"Time (s)","Acceleration x (m/s^2)","Acceleration y (m/s^2)","Acceleration z (m/s^2)"
3.197229400E-2,9.332008362E-1,5.883950710E0,8.652446747E0
4.863896000E-2,9.332008362E-1,5.883950710E0,8.652446747E0
6.530562600E-2,9.332008362E-1,5.883950710E0,8.652446747E0
8.197229200E-2,1.119840980E0,5.929414749E0,7.401000500E0
9.863895800E-2,1.363908887E0,6.159125328E0,7.410571575E0
1.153056240E-1,1.292124271E0,6.128018856E0,7.621140003E0
1.319722900E-1,1.359123230E0,5.977271080E0,7.829315662E0
1.486389560E-1,1.430907965E0,6.025127411E0,8.106883049E0
1.653056220E-1,1.342373490E0,6.022734642E0,8.197810173E0
1.819722880E-1,1.366301775E0,6.027520180E0,8.030312538E0
1.986389540E-1,1.244267821E0,5.953342915E0,7.982456207E0
2.153056200E-1,1.124626637E0,5.931807518E0,8.020741463E0
2.319722860E-1,1.215553880E0,5.927021503E0,8.183453560E0
2.486389520E-1,1.294517040E0,5.965306759E0,8.286344528E0
2.653056180E-1,1.272981644E0,5.919843197E0,8.243273735E0
2.819722840E-1,1.289731383E0,5.970092297E0,8.073383331E0
2.986389500E-1,1.359123230E0,5.989234924E0,8.080561638E0
3.153056160E-1,1.409372568E0,5.974878311E0,7.869993687E0
3.319722820E-1,1.395015597E0,5.994020939E0,7.735995770E0
3.486389480E-1,1.509871125E0,6.082555294E0,7.922635555E0
3.653056140E-1,1.512263894E0,6.082555294E0,7.989634991E0
3.819722800E-1,1.560120344E0,6.005984783E0,8.090133667E0
3.986389460E-1,1.318445325E0,6.034698486E0,8.078168869E0
4.153056120E-1,1.454836130E0,5.994020939E0,7.944170952E0
4.319722780E-1,1.607976794E0,6.037091732E0,8.070990562E0
4.486389440E-1,1.567298889E0,6.319444656E0,8.011170387E0
4.653056100E-1,1.215553880E0,6.218945980E0,7.910671711E0
4.819722760E-1,1.215553880E0,6.027520180E0,7.795815945E0
4.986389420E-1,1.593619823E0,6.266802311E0,7.738388538E0
5.153056080E-1,1.466800332E0,6.300302029E0,7.824530125E0
5.319722740E-1,1.339980721E0,6.199803352E0,7.628318787E0
5.486389400E-1,1.730010748E0,6.424728870E0,7.829315662E0
5.653056060E-1,1.569691658E0,6.360122681E0,7.838887215E0
5.819722720E-1,1.447657704E0,6.197410583E0,7.826922894E0
5.986389380E-1,1.337587833E0,6.345765591E0,7.925028801E0
6.153056040E-1,1.799402595E0,6.367300987E0,7.977670670E0
6.319722700E-1,1.730010748E0,6.271588326E0,7.879564762E0
6.486389360E-1,1.684547186E0,6.350551128E0,7.542177200E0
6.653056020E-1,1.581655741E0,6.266802311E0,7.458428383E0
6.819722680E-1,1.447657704E0,6.412764549E0,7.518248558E0
6.986389340E-1,1.646261930E0,6.534798622E0,7.680960655E0
7.153056000E-1,1.782652855E0,6.541976929E0,7.791030407E0
7.319722660E-1,1.670190215E0,6.539584160E0,7.453642368E0
7.486389320E-1,1.430907965E0,6.577869415E0,7.269395351E0
7.653055980E-1,1.500299811E0,6.463014126E0,7.202396393E0
7.819722640E-1,1.720439434E0,6.477370739E0,7.384250641E0
7.986389300E-1,2.194218397E0,6.628118515E0,7.901100159E0
8.153055960E-1,1.823330879E0,6.534798622E0,7.814958572E0
8.319722620E-1,1.665404558E0,6.357729912E0,7.843672752E0
8.486389280E-1,1.801795483E0,6.506084919E0,7.633104324E0
8.653055940E-1,1.746760488E0,6.597012043E0,7.259823799E0
8.819722600E-1,1.777867198E0,6.680760860E0,7.345965385E0
8.986389260E-1,1.770688772E0,6.695117950E0,7.432106972E0
9.153055920E-1,1.852044702E0,6.671189308E0,7.458428383E0
9.319722580E-1,1.823330879E0,6.556334019E0,7.539783955E0
9.486389240E-1,1.722832322E0,6.570691109E0,7.645068169E0
9.653055900E-1,1.741974831E0,6.546762943E0,7.515855789E0
9.819722560E-1,1.682154298E0,6.448657036E0,7.372286797E0
9.986389220E-1,1.636690736E0,6.472585201E0,7.300501823E0
1.015305588E0,1.703689694E0,6.477370739E0,7.240681171E0
1.031972254E0,1.797009826E0,6.537191391E0,7.494320393E0
1.048638920E0,1.911865234E0,6.501298904E0,7.621140003E0
1.065305586E0,1.844866276E0,6.463014126E0,7.494320393E0
1.081972252E0,1.751546144E0,6.534798622E0,7.472784996E0
1.098638918E0,1.797009826E0,6.563512325E0,7.594819069E0
1.115305584E0,1.864008784E0,6.532405853E0,7.556533813E0
1.131972250E0,1.478764415E0,6.307480335E0,7.176074982E0
1.148638916E0,1.667797327E0,6.644868374E0,7.798209190E0
1.165305582E0,1.835294962E0,6.821937561E0,7.582854748E0
1.181972248E0,1.761117458E0,6.601797581E0,7.779066563E0
1.198638914E0,1.899901152E0,6.369693756E0,7.374679565E0
1.215305580E0,1.804188251E0,6.776473522E0,7.609176159E0
1.231972246E0,1.825723648E0,6.465406895E0,7.757531166E0
1.248638912E0,1.572084427E0,6.137589931E0,7.817351341E0
1.265305578E0,1.447657704E0,6.149554253E0,7.635497093E0
1.281972244E0,1.402194023E0,6.195017815E0,7.561319351E0
1.298638910E0,1.268195987E0,6.061019897E0,7.532605648E0
1.315305576E0,1.258624673E0,6.084948063E0,7.645068169E0
1.331972242E0,1.674975872E0,6.149554253E0,8.118846893E0
1.348638908E0,1.947757602E0,5.998806477E0,8.214560509E0
1.365305574E0,1.861616015E0,5.982056618E0,7.994420528E0
1.381972240E0,1.686939955E0,5.962913990E0,7.767102242E0
1.398638906E0,1.639083505E0,5.809773445E0,7.879564762E0
1.415305572E0,1.756331801E0,5.793023586E0,8.276773453E0
1.431972238E0,1.940579176E0,5.917450428E0,8.396414757E0
1.448638904E0,1.911865234E0,5.912664890E0,8.087740898E0
1.465305570E0,1.849651933E0,6.017949104E0,7.881958008E0
1.481972236E0,1.770688772E0,5.984449387E0,7.908278942E0
1.498638902E0,1.557727575E0,5.869594097E0,8.013563156E0
1.515305568E0,1.433300734E0,5.826523304E0,8.001599312E0
1.531972234E0,1.313659668E0,5.642275810E0,8.123632431E0
1.548638900E0,1.189232826E0,5.637490273E0,8.204988480E0
1.565305566E0,1.462014675E0,5.769095421E0,8.403593063E0
1.581972232E0,1.911865234E0,5.965306759E0,8.484949112E0
1.598638898E0,1.986042738E0,6.001199245E0,8.394021988E0
1.615305564E0,1.856830359E0,5.974878311E0,8.059026718E0
1.631972230E0,1.753939033E0,5.984449387E0,7.824530125E0
1.648638896E0,1.591227055E0,5.816951752E0,7.903493404E0
1.665305562E0,1.562513232E0,5.771488190E0,8.030312538E0
1.681972228E0,1.756331801E0,5.924628735E0,8.236095428E0
1.698638894E0,1.950150490E0,5.986842155E0,8.279166222E0
1.715305560E0,1.878365755E0,5.888736725E0,8.061419487E0
1.731972226E0,2.076970100E0,5.814558983E0,6.790830612E0
1.748638892E0,1.715653777E0,6.046662807E0,7.984848976E0
1.765305558E0,1.844866276E0,5.800201893E0,8.420342445E0
1.781972224E0,1.990828395E0,5.804987907E0,8.425128937E0
1.798638890E0,2.088934183E0,5.934200287E0,8.394021988E0
1.815305556E0,2.079362869E0,5.924628735E0,8.281558990E0
1.831972222E0,1.959721804E0,5.816951752E0,8.114061356E0
1.848638888E0,1.916650891E0,5.816951752E0,7.865208149E0
1.865305554E0,1.921436548E0,5.886343479E0,7.853243828E0
1.881972220E0,1.909472466E0,5.797809124E0,8.080561638E0
1.898638886E0,1.868794441E0,5.747560024E0,8.353343964E0
1.915305552E0,1.823330879E0,5.678168297E0,8.408378601E0
1.931972218E0,1.797009826E0,5.675775528E0,8.370093346E0
1.948638884E0,1.780260086E0,5.687739372E0,8.319844246E0
1.965305550E0,1.713261008E0,5.594419479E0,8.295916557E0
1.981972216E0,1.586441398E0,5.493920803E0,8.181060791E0
1.998638882E0,1.550549030E0,5.556134224E0,8.097311974E0
2.015305548E0,1.505085468E0,5.493920803E0,8.123632431E0
2.031972214E0,1.844866276E0,5.505885124E0,8.114061356E0
2.048638880E0,2.368894339E0,5.871986866E0,8.044670105E0
2.065305546E0,2.194218397E0,5.568098068E0,7.963313580E0
2.081972212E0,2.012363911E0,5.225924492E0,7.810173035E0
2.098638878E0,1.799402595E0,5.268995285E0,8.365307808E0
2.115305544E0,1.093519926E0,5.032105923E0,8.798408508E0
2.131972210E0,-1.818545163E-1,3.976871252E0,9.571290970E0
2.148638876E0,-9.355936646E-1,3.479164124E0,1.031785107E1
2.165305542E0,-1.256231904E0,3.574877024E0,1.030588722E1
2.181972208E0,3.589234129E-2,4.141975880E0,9.387042999E0
2.198638874E0,1.478764415E0,4.725824833E0,7.345965385E0
2.215305540E0,3.821337700E0,6.707081795E0,6.613761902E0
2.231972206E0,6.841079712E0,7.728816986E0,8.616554260E0
2.248638872E0,4.113262177E0,6.455835342E0,7.575676441E0
2.265305538E0,1.885544300E0,4.890929699E0,8.384450912E0
2.281972204E0,1.945364833E0,4.232903481E0,8.535198212E0
2.298638870E0,1.201196909E0,4.175475597E0,8.451449394E0
2.315305536E0,1.129412293E0,4.493721008E0,8.702695847E0
2.331972202E0,1.567298889E0,4.594219685E0,8.640482903E0
2.348638868E0,1.414158225E0,4.364508629E0,8.724231720E0
2.365305534E0,1.196411371E0,3.974478483E0,9.016156197E0
2.381972200E0,9.690931439E-1,3.859622955E0,9.154939651E0
2.398638866E0,1.691725612E0,4.091726780E0,8.965906143E0
2.415305532E0,2.196611166E0,4.687539577E0,8.214560509E0
2.431972198E0,2.026720762E0,4.481756687E0,8.937192917E0
2.448638864E0,1.818545222E0,3.967299938E0,9.796216011E0
2.465305530E0,1.450050473E0,3.651447296E0,9.985248566E0
2.481972196E0,1.253839016E0,3.632304668E0,1.027956581E1
2.498638862E0,1.351944804E0,3.802195072E0,9.583254814E0
2.515305528E0,1.993221283E0,4.132404804E0,9.095118523E0
2.531972194E0,2.206182480E0,4.230510235E0,9.384650230E0
2.548638860E0,1.806581140E0,3.811766386E0,9.767501831E0
2.565305526E0,1.488335729E0,3.711267948E0,9.961320877E0
2.581972192E0,1.552941918E0,3.653840065E0,9.688538551E0
2.598638858E0,1.332802176E0,3.689732552E0,9.334401131E0
2.615305524E0,1.253839016E0,3.419343472E0,9.193224907E0
2.631972190E0,2.120040894E0,3.684946775E0,8.944371223E0
2.648638856E0,2.268395901E0,4.053441525E0,9.468399048E0
2.665305522E0,1.770688772E0,3.529413462E0,9.767501831E0
2.681972188E0,9.595218897E-1,3.084348440E0,9.894321442E0
2.698638854E0,1.768295884E0,3.163311481E0,9.681360245E0
2.715305520E0,2.108076811E0,3.651447296E0,9.200403214E0
2.731972186E0,2.132004976E0,3.471985579E0,9.372686386E0
2.748638852E0,1.811366796E0,3.349951744E0,1.001874828E1
2.765305518E0,2.057827473E0,3.038884640E0,9.870393753E0
2.781972184E0,1.842473388E0,2.988635540E0,9.542576790E0
2.798638850E0,1.830509305E0,2.940778971E0,9.621540070E0
2.815305516E0,1.861616015E0,2.876172781E0,9.913464546E0
2.831972182E0,2.158325911E0,2.883351326E0,9.745966911E0
2.848638848E0,2.067398787E0,2.976671457E0,9.597611427E0
2.865305514E0,1.928615093E0,2.976671457E0,9.188439369E0
2.881972180E0,1.875972986E0,2.677568436E0,9.662218094E0
2.898638846E0,1.880758643E0,2.586641312E0,9.915857315E0
2.915305512E0,1.725225091E0,2.524427891E0,9.623932838E0
2.931972178E0,1.878365755E0,2.476571321E0,9.537791252E0
2.948638844E0,1.586441398E0,2.620140791E0,9.564111710E0
2.965305510E0,2.148754835E0,2.502892494E0,9.028120041E0
2.981972176E0,1.720439434E0,2.383251429E0,9.511469841E0
2.998638842E0,1.296909928E0,2.036292076E0,9.650253296E0
3.015305508E0,1.545763373E0,1.655833244E0,9.674181938E0
3.031972174E0,1.390229940E0,1.600798368E0,9.705288887E0
3.048638840E0,1.421336651E0,1.617548108E0,9.198010445E0
3.065305506E0,1.505085468E0,1.308874011E0,9.489934921E0
3.081972172E0,1.612762451E0,9.116654396E-1,9.549755096E0
3.098638838E0,1.663011789E0,5.359922647E-1,9.542576790E0
3.115305504E0,1.277767301E0,5.024927482E-2,9.104690552E0
3.131972170E0,1.667797327E0,-2.081755698E-1,8.882157326E0
3.148638836E0,1.246660590E0,-4.378865361E-1,9.037691116E0
3.165305502E0,1.574477315E0,-3.038884699E-1,9.427721024E0
3.181972168E0,1.773081541E0,-1.962114573E-1,9.956535339E0
3.198638834E0,1.698904037E0,-4.235295951E-1,1.005464077E1
3.215305500E0,2.397608280E0,-2.057827413E-1,1.022213840E1
3.231972166E0,2.084148407E0,-2.033899277E-1,1.075573826E1
3.248638832E0,1.859223247E0,-4.618147612E-1,1.093041420E1
3.265305498E0,1.962114573E0,-5.910272002E-1,1.077488041E1
3.281972164E0,1.718046665E0,-6.819544435E-1,1.105962658E1
3.298638830E0,2.014756680E0,-6.245267391E-1,1.110269737E1
3.315305496E0,2.318645239E0,-4.546363056E-1,1.062173939E1
3.331972162E0,2.311466694E0,-5.168496966E-1,1.057388306E1
3.348638828E0,2.538784742E0,-5.216353536E-1,1.058106136E1
3.365305494E0,2.199003935E0,-2.919243574E-1,1.086102200E1
3.381972160E0,2.196611166E0,-6.101697683E-1,1.121755219E1
3.398638826E0,2.096112728E0,-6.005984545E-1,1.148315620E1
3.415305492E0,2.167897224E0,-5.240281820E-1,1.138026428E1
3.431972158E0,2.024327993E0,-5.575276613E-1,1.102612686E1
3.448638824E0,1.914258122E0,-5.551348329E-1,1.078445148E1
3.465305490E0,1.811366796E0,-5.862415433E-1,1.082752228E1
3.481972156E0,1.667797327E0,-7.034898400E-1,1.088973618E1
3.498638822E0,1.629512191E0,-7.154539824E-1,1.098066330E1
3.515305488E0,1.593619823E0,-7.513462901E-1,1.093519974E1
3.531972154E0,1.469193101E0,-8.422735929E-1,1.068395329E1
3.548638820E0,1.363908887E0,-9.308080077E-1,1.024606609E1
3.565305486E0,1.404586911E0,-9.140582681E-1,1.034417248E1
3.581972152E0,1.416550994E0,-8.063812256E-1,1.044945621E1
3.598638818E0,1.375872970E0,-9.140582681E-1,1.049970531E1
3.615305484E0,1.361516118E0,-9.284151793E-1,1.061695385E1
3.631972150E0,1.442872047E0,-9.332008362E-1,1.046381378E1
3.648638816E0,1.483550072E0,-9.116654396E-1,1.018624592E1
3.665305482E0,1.569691658E0,-9.379864931E-1,1.029153061E1
3.681972148E0,1.483550072E0,-8.853443861E-1,1.021974564E1
3.698638814E0,2.115255117E0,-6.364908218E-1,1.023170948E1
3.715305480E0,2.074577332E0,-5.551348329E-1,1.038006496E1
3.731972146E0,2.304288149E0,-2.488535494E-1,1.085384369E1
3.748638812E0,2.376072884E0,-2.321037948E-1,1.081077290E1
3.765305478E0,2.447857618E0,-1.842473447E-1,1.099980545E1
3.781972144E0,7.202396393E-1,-1.170090318E0,6.644868374E0
3.798638810E0,3.996013701E-1,-1.533799291E0,8.465806961E0
3.815305476E0,7.561319470E-1,-1.050449133E0,9.071190834E0
3.831972142E0,2.244467735E0,1.938186288E-1,1.289252853E1
3.848638808E0,4.122833252E0,1.368694544E0,1.652483368E1
3.865305474E0,2.074577332E0,-4.187439680E-1,1.082752228E1
3.881972140E0,1.373480201E0,-5.431707501E-1,9.678967476E0
3.898638806E0,1.055234790E0,-4.833501875E-1,8.315058708E0
3.915305472E0,4.019941986E-1,-3.804588020E-1,6.936792850E0
3.931972138E0,1.579262912E-1,-1.339980662E-1,6.396014690E0
3.948638804E0,8.135597110E-1,2.344966233E-1,8.439485550E0
3.965305470E0,1.402194023E0,4.737788737E-1,9.980463028E0
3.981972136E0,1.588834286E0,5.527420044E-1,1.095912743E1
3.998638802E0,1.517049551E0,4.283152521E-1,1.110269737E1
4.015305468E0,1.337587833E0,2.129612118E-1,1.081316566E1
4.031972134E0,1.172483087E0,1.100698411E-1,1.053320503E1
4.048638800E0,9.260223508E-1,-5.503492057E-2,1.023649502E1
4.065305466E0,7.274180651E-1,-4.307080805E-2,1.001874828E1
4.081972132E0,7.824530005E-1,6.699903309E-2,1.005942631E1
4.098638798E0,8.949156404E-1,8.614161611E-2,1.020778179E1
4.115305464E0,8.781659007E-1,1.507478207E-1,1.039442158E1
4.131972130E0,9.188438654E-1,1.196411327E-1,1.054516983E1
4.148638796E0,1.016949654E0,5.742774159E-2,1.073659515E1
4.165305462E0,1.189232826E0,6.221338734E-2,1.089212894E1
4.181972128E0,1.445264935E0,1.483550072E-1,1.078684425E1
4.198638794E0,1.605584025E0,2.201396823E-1,1.068873882E1
4.215305460E0,1.770688772E0,2.560320199E-1,1.052602673E1
4.231972126E0,1.758724689E0,2.273181528E-1,1.033220863E1
4.248638792E0,1.596012712E0,1.674975827E-2,1.017667484E1
4.265305458E0,1.473978758E0,-1.148554832E-1,1.019342422E1
4.281972124E0,1.586441398E0,-1.531406492E-1,1.034895802E1
4.298638790E0,1.828116536E0,-5.503492057E-2,1.038963604E1
4.315305456E0,2.024327993E0,3.110669367E-2,1.046620655E1
4.331972122E0,2.136790514E0,5.742774159E-2,1.055474091E1
4.348638788E0,2.098505497E0,5.982056633E-2,1.048774147E1
4.365305454E0,1.993221283E0,9.571290575E-3,1.022213840E1
4.381972120E0,1.998006940E0,-5.982056633E-2,9.868000984E0
4.398638786E0,1.962114573E0,-9.810572863E-2,9.635896683E0
4.415305452E0,2.048256159E0,9.571290575E-3,9.710074425E0
4.431972118E0,2.158325911E0,1.435693651E-1,9.918250084E0
4.448638784E0,2.172683001E0,1.483550072E-1,1.019581699E1
4.465305450E0,2.206182480E0,1.387837082E-1,1.032742214E1
4.481972116E0,2.172683001E0,1.220339537E-1,1.025803089E1
4.498638782E0,2.143969059E0,1.363908947E-1,1.017906761E1
4.515305448E0,2.129612207E0,1.579262912E-1,9.949356079E0
4.531972114E0,2.129612207E0,1.579262912E-1,9.949356079E0
4.548638780E0,2.129612207E0,1.579262912E-1,9.949356079E0
4.565305446E0,2.129612207E0,1.579262912E-1,9.949356079E0
4.581972112E0,2.129612207E0,1.579262912E-1,9.949356079E0
4.598638778E0,1.902294040E0,2.895315289E-1,1.017906761E1
4.615305444E0,1.844866276E0,2.584248483E-1,1.002114105E1
4.631972110E0,1.844866276E0,2.584248483E-1,1.002114105E1
4.648638776E0,1.631905079E0,1.363908947E-1,9.980463028E0
4.665305442E0,1.627119422E0,1.483550072E-1,1.013360405E1
4.681972108E0,1.787438512E0,2.201396823E-1,1.031067276E1
4.698638774E0,1.806581140E0,2.344966233E-1,1.038724327E1
4.715305440E0,1.732403636E0,1.818545163E-1,1.044945621E1
4.731972106E0,1.744367719E0,1.938186288E-1,1.044945621E1
4.748638772E0,1.768295884E0,2.225325108E-1,1.037288570E1
4.765305438E0,1.835294962E0,1.818545163E-1,1.029392338E1
4.781972104E0,1.804188251E0,2.057827413E-1,1.030588722E1
4.798638770E0,1.856830359E0,2.297109663E-1,1.043270683E1
4.815305436E0,1.861616015E0,1.914258152E-1,1.056431198E1
4.831972102E0,1.844866276E0,2.488535494E-1,1.055234814E1
4.848638768E0,1.837687731E0,2.823530734E-1,1.034656525E1
4.865305434E0,1.756331801E0,3.062812984E-1,1.009771156E1
4.881972100E0,1.596012712E0,2.967100143E-1,1.003310490E1
4.898638766E0,1.584048629E0,2.775674164E-1,1.011446095E1
4.915305432E0,1.564906001E0,3.421736360E-1,1.022453117E1
4.931972098E0,1.509871125E0,3.780659735E-1,1.044227791E1
4.948638764E0,1.462014675E0,4.594219327E-1,1.046142101E1
4.965305430E0,1.473978758E0,4.785645306E-1,1.041117096E1
4.981972096E0,1.497906923E0,4.570291340E-1,1.025085258E1
4.998638762E0,1.445264935E0,3.493520916E-1,1.010010433E1
5.015305428E0,1.421336651E0,2.344966233E-1,1.016949654E1
5.031972094E0,1.450050473E0,9.332008660E-2,1.027717304E1
5.048638760E0,1.502692580E0,2.871387079E-2,1.043509960E1
5.065305426E0,1.708475351E0,0.000000000E0,1.052841949E1
5.081972092E0,1.995614052E0,2.632104978E-2,1.053799057E1
5.098638758E0,2.179861546E0,8.135596663E-2,1.049491978E1
5.115305424E0,2.277967215E0,1.124626622E-1,1.049491978E1
5.131972090E0,2.210968018E0,-1.914258115E-2,1.065284634E1
5.148638756E0,2.026720762E0,-2.273181528E-1,1.066002464E1
5.165305422E0,1.957328916E0,-2.129612118E-1,1.071506023E1
5.181972088E0,2.086541414E0,-1.076770201E-1,1.068873882E1
5.198638754E0,2.132004976E0,1.172483116E-1,1.054756260E1
5.215305420E0,2.055434704E0,2.129612118E-1,1.034895802E1
5.231972086E0,1.878365755E0,3.469592929E-1,1.020060253E1
5.248638752E0,1.837687731E0,4.522434771E-1,1.009531879E1
5.265305418E0,1.734796405E0,4.713860750E-1,1.000678444E1
5.281972084E0,1.658226132E0,4.522434771E-1,9.954142570E0
5.298638750E0,1.756331801E0,5.216353536E-1,9.808179855E0
5.315305416E0,2.110469580E0,7.465606928E-1,8.886942863E0
5.331972082E0,2.256431818E0,4.977070987E-1,9.147761345E0
5.348638748E0,2.306680918E0,5.838487148E-1,9.552147865E0
5.365305414E0,2.184647083E0,6.699903607E-1,9.875179291E0
5.381972080E0,1.808973908E0,3.780659735E-1,9.879964828E0
5.398638746E0,1.682154298E0,5.479564071E-1,9.446864128E0
5.415305412E0,1.849651933E0,6.508477330E-1,9.700503349E0
5.431972078E0,1.990828395E0,7.848458290E-1,9.856036186E0
5.448638744E0,1.691725612E0,7.010970116E-1,9.848857880E0
5.465305410E0,1.531406522E0,4.953143001E-1,1.005464077E1
5.481972076E0,1.588834286E0,5.958128572E-1,1.035613632E1
5.498638742E0,1.799402595E0,5.982056856E-1,1.046381378E1
5.515305408E0,1.830509305E0,5.982056856E-1,1.045184898E1
5.531972074E0,1.727617979E0,6.125625968E-1,1.024845982E1
5.548638740E0,1.983649969E0,6.628118753E-1,1.014556789E1
5.565305406E0,2.012363911E0,5.455635786E-1,1.022931671E1
5.581972072E0,2.201396942E0,9.595218897E-1,1.011924744E1
5.598638738E0,2.799602509E0,1.409372568E0,1.029870892E1
5.615305404E0,3.656233072E0,2.093719721E0,1.092562866E1
5.631972070E0,3.890729666E0,2.493321180E0,1.097827053E1
5.648638736E0,3.531806231E0,2.129612207E0,1.041356373E1
5.665305402E0,3.017349243E0,1.825723648E0,9.887143135E0
5.681972068E0,2.840280533E0,2.344966173E0,9.458827972E0
5.698638734E0,2.950350285E0,3.194418192E0,9.056833267E0
5.715305400E0,3.488735437E0,3.735196114E0,9.083154678E0
5.731972066E0,3.728017569E0,3.938585997E0,9.394221306E0
5.748638732E0,3.572484255E0,4.010370731E0,9.162117958E0
5.765305398E0,3.005385160E0,3.558127165E0,7.834101200E0
5.781972064E0,1.964507341E0,2.340180635E0,7.869993687E0
5.798638730E0,1.172483087E0,1.844866276E0,8.796015739E0
5.815305396E0,2.031506538E0,1.158126116E0,1.156690502E1
5.831972062E0,2.667997360E0,1.746760458E-1,1.304088306E1
5.848638728E0,2.304288149E0,8.374879509E-2,1.295713425E1
5.865305394E0,2.021935225E0,9.930213690E-1,1.225125217E1
5.881972060E0,2.081755638E0,2.031506538E0,1.047817039E1
5.898638726E0,2.392822742E0,2.983849764E0,9.260223389E0
5.915305392E0,2.758924484E0,2.632104874E0,8.958727837E0
5.931972058E0,4.402793884E0,1.746760488E0,1.000917721E1
5.948638724E0,3.627519131E0,2.321038008E0,1.113858986E1
5.965305390E0,2.199003935E0,1.878365755E0,1.158126163E1
5.981972056E0,2.665604353E0,4.639683247E0,7.951349735E0
5.998638722E0,3.792623997E0,4.524827480E0,6.297909260E0
6.015305388E0,4.036691666E0,3.254238844E0,6.108876228E0
6.031972054E0,3.725624800E0,2.266003132E0,5.087141037E0
6.048638720E0,4.165904045E0,3.393022537E0,3.404986620E0
6.065305386E0,2.510071039E0,2.498106956E0,7.245467186E0
6.081972052E0,5.053641319E0,3.579662561E0,6.489335060E0
6.098638718E0,6.948757172E0,6.486942291E0,7.240681171E0
6.115305384E0,4.938786030E0,6.049055576E0,9.966106415E0
6.131972050E0,5.230710506E0,4.366901398E0,9.659825325E0
6.148638716E0,5.453242779E0,3.553341627E0,9.834501266E0
6.165305382E0,5.651846886E0,3.852444410E0,9.631111145E0
6.181972048E0,6.302694798E0,2.785245657E0,8.554341316E0
6.198638714E0,6.302694798E0,2.785245657E0,8.554341316E0
6.215305380E0,6.302694798E0,2.785245657E0,8.554341316E0
6.231972046E0,6.302694798E0,2.785245657E0,8.554341316E0
6.248638712E0,6.302694798E0,2.785245657E0,8.554341316E0
6.265305378E0,4.914857864E0,5.501099110E0,1.082752228E1
6.281972044E0,2.713460922E0,3.273381472E0,1.041356373E1
6.298638710E0,3.747160196E0,3.701696634E0,6.448657036E0
6.315305376E0,3.598805189E0,3.775874138E0,5.434100151E0
6.331972042E0,3.651447296E0,3.409772158E0,5.922235966E0
6.348638708E0,1.292124271E0,2.512463808E0,5.757131100E0
6.365305374E0,6.221339107E-1,2.289931297E0,4.240081787E0
6.381972040E0,1.052842021E0,1.105484009E0,3.677768469E0
6.398638706E0,1.392622828E0,7.561319470E-1,3.182454109E0
6.415305372E0,2.084148407E0,1.916650891E0,5.848058701E0
6.431972038E0,4.520041943E0,3.333201885E0,8.195417404E0
6.448638704E0,5.429314613E0,3.058027267E0,9.166903496E0
6.465305370E0,5.300102234E0,3.180061340E0,9.186046600E0
6.481972036E0,3.929014683E0,3.218346357E0,8.329415321E0
6.498638702E0,3.627519131E0,3.940979004E0,8.848658562E0
6.515305368E0,5.249852657E0,5.087141037E0,1.072463131E1
6.531972034E0,5.656632900E0,4.673182487E0,1.340459251E1
6.548638700E0,5.486742496E0,4.888536453E0,1.410090351E1
6.565305366E0,4.565505505E0,4.546362877E0,1.490967751E1
6.581972032E0,4.034298897E0,4.536791801E0,1.399322701E1
6.598638698E0,4.228117466E0,4.572684288E0,1.320598793E1
6.615305364E0,3.809373617E0,4.371686935E0,1.159801102E1
6.631972030E0,3.785445452E0,4.046263218E0,1.048295593E1
6.648638696E0,3.627519131E0,4.694717884E0,1.064088249E1
6.665305362E0,2.761317253E0,4.299902439E0,1.125583744E1
6.681972028E0,2.007578135E0,4.151547432E0,1.045902824E1
6.698638694E0,1.586441398E0,4.223331928E0,9.822537422E0
6.715305360E0,1.579262972E0,4.070191383E0,9.217152596E0
6.731972026E0,1.722832322E0,4.137190342E0,9.080761909E0
6.748638692E0,1.143769264E0,4.213760853E0,9.430113792E0
6.765305358E0,6.269195080E-1,4.173082829E0,9.686145782E0
6.781972024E0,5.742774606E-1,3.981656790E0,9.334401131E0
6.798638690E0,8.853443861E-1,3.991228104E0,8.542376518E0
6.815305356E0,1.064806104E0,3.952943087E0,8.032705307E0
6.831972022E0,8.279166222E-1,3.833301783E0,7.611568928E0
6.848638688E0,3.948157430E-1,4.223331928E0,7.865208149E0
6.865305354E0,-3.397808075E-1,4.185046673E0,8.745766640E0
6.881972020E0,-5.838487148E-1,4.309473515E0,8.626125336E0
6.898638686E0,-1.148554832E-1,4.436293125E0,8.221738815E0
6.915305352E0,8.590233326E-1,4.491328239E0,8.166703224E0
6.931972018E0,1.189232826E0,4.113262177E0,7.908278942E0
6.948638684E0,7.585247755E-1,4.039084435E0,7.992027760E0
6.965305350E0,3.373879790E-1,4.055834293E0,8.767302513E0
6.981972016E0,-1.555334777E-1,3.964907169E0,9.604789734E0
6.998638682E0,-1.009771109E0,3.306880951E0,9.554540634E0
7.015305348E0,-1.588834286E0,2.361716032E0,8.432307243E0
7.031972014E0,-1.450050473E0,1.550549030E0,7.764709473E0
7.048638680E0,-1.222732425E0,1.560120344E0,8.188239098E0
7.065305346E0,-1.521835208E0,2.048256159E0,1.030588722E1
7.081972012E0,-1.856830359E0,1.746760488E0,1.320359516E1
7.098638678E0,-1.502692580E0,2.242074728E0,1.509631824E1
7.115305344E0,-5.264209956E-2,2.230110645E0,1.505324745E1
7.131972010E0,1.237089276E0,2.007578135E0,1.340698528E1
7.148638676E0,1.433300734E0,2.249253273E0,1.178225899E1
7.165305342E0,1.356730461E0,2.266003132E0,1.118644619E1
7.181972008E0,2.423929453E0,2.187039852E0,1.060738277E1
7.198638674E0,1.576870084E0,3.029313564E0,1.022213840E1
7.215305340E0,7.465606928E-1,3.381058455E0,1.006181908E1
7.231972006E0,9.834501147E-1,2.407179594E0,9.341579437E0
7.248638672E0,1.512263894E0,1.289731383E0,8.520841599E0
7.265305338E0,2.230110645E0,1.014556766E0,9.047262192E0
7.281972004E0,2.407179594E0,1.605584025E0,1.046381378E1
7.298638670E0,2.603390932E0,1.540977836E0,9.339186668E0
7.315305336E0,3.366701365E0,1.014556766E0,7.520641804E0
7.331972002E0,4.768895626E0,8.566305041E-1,6.494120598E0
7.348638668E0,4.814359188E0,4.163511395E-1,4.618147850E0
7.365305334E0,4.084548473E0,-3.254238665E-1,3.184846878E0
7.381972000E0,2.591426849E0,-1.249053478E0,2.833101988E0
7.398638666E0,3.481556892E0,-3.706482172E0,2.658426046E0
7.415305332E0,4.378865242E0,-4.137190342E0,3.696911097E0
7.431971998E0,4.816751957E0,-4.883750916E0,4.938786030E0
7.448638664E0,4.840680122E0,-5.362315655E0,7.264609337E0
7.465305330E0,3.617947817E0,-6.893722057E0,7.357929707E0
7.481971996E0,3.517449379E0,-7.556533813E0,6.362515450E0
7.498638662E0,6.764509678E0,-6.343372822E0,1.050927734E1
7.515305328E0,8.944371223E0,-5.412564754E0,1.455793285E1
7.531971994E0,8.231309891E0,-4.701896667E0,1.464168167E1
7.548638660E0,5.113461971E0,-7.128218651E0,1.301695538E1
7.565305326E0,2.845066071E0,-7.345965385E0,1.145444202E1
7.581971992E0,2.600998163E0,-5.422136307E0,9.288937569E0
7.598638658E0,3.172882795E0,-5.721239090E0,6.972685337E0
7.615305324E0,2.950350285E0,-6.771687984E0,7.546962738E0
7.631971990E0,4.467400074E0,-7.523034573E0,1.040159988E1
7.648638656E0,4.922036171E0,-6.821937561E0,1.163151073E1
7.665305322E0,4.352544308E0,-6.762116909E0,9.669396400E0
7.681971988E0,2.459821701E0,-6.281159401E0,7.142575741E0
7.698638654E0,1.471585870E0,-6.908079147E0,5.513063431E0
7.715305320E0,1.923829436E0,-6.477370739E0,4.060619831E0
7.731971986E0,1.694118381E0,-7.922635555E0,1.081555843E0
7.748638652E0,2.976671457E0,-8.202595711E0,1.873580098E0
7.765305318E0,6.608976364E0,-8.965906143E0,5.714060307E0
7.781971984E0,1.108116150E1,-9.214759827E0,8.403593063E0
7.798638650E0,1.201436234E1,-8.977870941E0,8.602197647E0
7.815305316E0,7.508677483E0,-9.157332420E0,7.262216568E0
7.831971982E0,5.484349728E0,-6.836294174E0,5.101497650E0
7.848638648E0,7.791030407E0,-6.711867332E0,4.197010994E0
7.865305314E0,1.030827999E1,-6.242874146E0,5.335994720E0
7.881971980E0,1.131805134E1,-5.371886730E0,3.962514400E0
7.898638646E0,9.693324089E0,-5.807380676E0,3.838087559E0
7.915305312E0,7.345965385E0,-4.766502857E0,6.367300987E0
7.931971978E0,6.608976364E0,-5.651846886E0,1.195693493E1
7.948638644E0,6.139982700E0,-5.690132141E0,1.476850128E1
7.965305310E0,5.173282623E0,-5.190032482E0,1.416072464E1
7.981971976E0,6.778866768E0,-4.706682205E0,1.400279808E1
7.998638642E0,7.257431030E0,-3.986442566E0,9.631111145E0
8.015305308E0,7.101897717E0,-3.972085476E0,1.042792130E1
8.031971974E0,6.963113785E0,-6.541976929E0,7.527820110E0
8.048638640E0,5.565705299E0,-7.357929707E0,9.858429432E-1
8.065305306E0,6.946363926E0,-9.159725189E0,1.667797327E0
8.081971972E0,9.858429432E-1,-9.844072342E0,1.852523232E1
8.098638638E0,1.808973908E0,-4.551148891E0,9.846465111E0
8.115305304E0,3.084348440E0,-6.573083878E0,3.873979807E0
8.131971970E0,2.385644197E0,-9.908679008E0,3.847658873E0
8.148638636E0,2.385644197E0,-9.908679008E0,3.847658873E0
8.165305302E0,2.385644197E0,-9.908679008E0,3.847658873E0
8.181971968E0,2.385644197E0,-9.908679008E0,3.847658873E0
8.198638634E0,8.439485550E0,-6.037091732E0,-5.958128572E-1
8.215305300E0,1.303849030E1,-3.464807272E0,4.811966419E0
8.231971966E0,1.178943729E1,-4.926821709E0,4.725824833E0
8.248638632E0,8.980263710E0,-5.424529076E0,7.202396393E0
8.265305298E0,7.046862602E0,-6.080162525E0,4.910071850E0
8.281971964E0,3.629911900E0,-6.836294174E0,2.706282377E0
8.298638630E0,-5.527420044E-1,-6.403193474E0,5.271388054E0
8.315305296E0,7.944171429E-1,-4.503292084E0,7.200003147E0
8.331971962E0,-3.613162339E-1,-1.328016520E0,8.248059273E0
8.348638628E0,-2.012363911E0,-3.036491871E0,9.712467194E0
8.365305294E0,-4.996213913E0,-3.739981890E0,7.740781307E0
8.381971960E0,-3.617947817E0,-6.233303070E0,9.087940216E0
8.398638626E0,2.364108801E0,-6.405586243E0,1.439043522E1
8.415305292E0,6.776473522E0,-3.163311481E0,1.718525314E1
8.431971958E0,9.360722542E0,-1.564906001E0,2.066202354E1
8.448638624E0,8.724231720E0,-2.825923443E0,2.158804512E1
8.465305290E0,6.922435760E0,-1.067198944E1,1.778824425E1
8.481971956E0,1.088495064E1,-1.540738487E1,1.404108334E1
8.498638622E0,7.879564762E0,-1.110269737E1,1.209811115E1
8.515305288E0,6.953542709E0,-8.377271652E0,1.239242840E1
8.531971954E0,6.149554253E0,-6.379265308E0,1.331366539E1
8.548638620E0,4.560719967E0,-6.958328247E0,1.077009487E1
8.565305286E0,8.116454124E0,-7.575676441E0,1.002353382E1
8.581971952E0,8.829515457E0,-5.568098068E0,7.030112743E0
8.598638618E0,8.891729355E0,-3.141776085E0,6.934400082E0
8.615305284E0,9.061619759E0,-1.588834286E0,7.999206066E0
8.631971950E0,9.109476089E0,-3.979264021E0,9.473184586E0
8.648638616E0,6.271588326E0,-1.588834286E0,6.996613503E0
8.665305282E0,6.223731518E0,-1.383051515E0,5.029713154E0
8.681971948E0,5.864808083E0,-1.569691658E0,2.280359983E0
8.698638614E0,5.515456200E0,-5.575276613E-1,2.715853691E0
8.715305280E0,5.517848969E0,-9.451649189E-1,3.720839262E0
8.731971946E0,3.929014683E0,-1.746760488E0,3.323630571E0
8.748638612E0,2.306680918E0,-3.237488985E0,2.842673302E0
8.765305278E0,1.191625714E0,-3.318845034E0,-1.411765367E-1
8.781971944E0,2.419143677E0,-2.433500528E0,-6.340979934E-1
8.798638610E0,5.132604599E0,-2.751746178E-1,1.227517962E0
8.815305276E0,7.633104324E0,3.125026464E0,4.467400074E0
8.831971942E0,7.879564762E0,5.036891460E0,7.389036179E0
8.848638608E0,6.876972198E0,8.214560509E0,1.010967541E1
8.865305274E0,2.127219439E0,6.065805435E0,4.551148891E0
8.881971940E0,-1.983649969E0,4.718646049E0,8.149953842E0
8.898638606E0,7.896314859E-1,5.804987907E0,5.958128452E0
8.915305272E0,4.426722050E0,4.694717884E0,4.945964336E0
8.931971938E0,2.962314367E0,1.562513232E0,2.567498684E0
8.948638604E0,7.872386575E-1,-1.100698411E-1,-5.766702294E-1
8.965305270E0,2.076970100E0,1.969292998E0,-1.110269666E0
8.981971936E0,6.273981094E0,5.221138954E0,4.352544308E0
8.998638602E0,7.757531166E0,7.195217609E0,9.652647018E0
9.015305268E0,6.891329288E0,7.477570534E0,1.430668640E1
9.031971934E0,7.405786037E0,1.002114105E1,1.695075607E1
9.048638600E0,4.893322468E0,7.257431030E0,1.707039642E1
9.065305266E0,1.636690736E0,6.994220734E0,1.559881115E1
9.081971932E0,1.490728498E0,7.704888821E0,1.576630878E1
9.098638598E0,2.495713949E0,8.724231720E0,1.715414619E1
9.115305264E0,2.888136864E0,8.599804878E0,1.759681702E1
9.131971930E0,3.395415306E0,7.032505512E0,1.448136234E1
9.148638596E0,4.242474556E0,5.056034088E0,8.444271088E0
9.165305262E0,2.644068956E0,4.302295208E0,4.374079704E0
9.181971928E0,2.926422119E0,4.838287354E0,3.058027267E0
9.198638594E0,5.955735683E0,4.869394302E0,2.574677229E0
9.215305260E0,4.993820667E0,3.333201885E0,2.823530674E0
9.231971926E0,3.170490026E0,2.294716835E0,2.163111687E0
9.248638592E0,2.991028309E0,3.457628727E0,2.000399828E0
9.265305258E0,5.809773445E0,1.722832322E0,5.029713154E0
9.281971924E0,2.058066750E1,9.875179291E0,1.163390350E1
9.298638590E0,1.195214939E1,6.010770321E0,7.274180889E0
9.315305256E0,5.479563713E0,3.158525944E0,2.792423964E0
9.331971922E0,1.314377499E1,7.960920811E0,1.058584690E1
9.348638588E0,6.855436802E0,3.924229145E-1,7.891529083E0
9.365305254E0,5.670989513E0,3.744767427E0,7.042077065E0
9.381971920E0,4.577469826E0,1.952543259E0,1.427079391E1
9.398638586E0,6.029912949E0,1.495514154E0,1.095673466E1
9.415305252E0,6.929614544E0,3.218346357E0,6.149554253E0
9.431971918E0,7.513463020E0,3.287738323E0,1.062413216E0
9.448638584E0,6.563512325E0,3.366701365E0,3.783052683E0
9.465305250E0,5.225924492E0,1.306481123E0,6.599404812E0
9.481971916E0,6.087340832E0,1.981257200E0,7.211967468E0
9.498638582E0,6.276373863E0,3.945764542E0,7.386643410E0
9.515305248E0,5.632704735E0,4.125226021E0,8.420342445E0
9.531971914E0,9.269794464E0,4.835894585E0,6.802794933E0
9.548638580E0,9.140582085E0,4.055834293E0,6.331408501E0
9.565305246E0,9.645467758E0,4.532006264E0,7.240681171E0
9.581971912E0,7.972885132E0,3.605983734E0,6.470192432E0
9.598638578E0,7.066005230E0,2.026720762E0,4.082155228E0
9.615305244E0,4.874179840E0,4.469792843E0,3.534198999E0
9.631971910E0,4.271188259E0,7.245467186E0,7.640282631E0
9.648638576E0,4.273581028E0,7.649854183E0,8.063812256E0
9.665305242E0,2.943171740E0,5.436492920E0,6.769295216E0
9.681971908E0,7.180860519E0,5.637490273E0,7.903493404E0
9.698638574E0,8.858229637E0,3.019742250E0,4.819144726E0
9.715305240E0,1.126540947E1,5.099104881E0,5.570491314E0
9.731971906E0,8.142775536E0,4.723432064E0,7.932207108E0
9.748638572E0,8.650053978E0,4.733003139E0,5.414957523E0
9.765305238E0,1.025563812E1,7.403393269E0,7.348358154E0
9.781971904E0,3.737588882E0,6.357729912E0,2.675175667E0
9.798638570E0,7.013363361E0,6.195017815E0,8.616554260E0
9.815305236E0,2.007578135E0,3.567698479E0,4.912465096E0
9.831971902E0,5.113461971E0,6.084948063E0,5.836094379E0
9.848638568E0,4.924428940E0,4.993820667E0,6.541976929E0
9.865305234E0,2.397608280E0,3.871587038E0,6.955935478E0
9.881971900E0,2.232503414E0,2.926422119E0,9.456435204E0
9.898638566E0,5.972485542E0,4.749752998E0,7.575676441E0
9.915305232E0,6.623332977E0,1.232303619E0,6.611369133E0
9.931971898E0,8.724231720E0,1.588834286E0,5.534598827E0
9.948638564E0,9.073583603E0,2.651247501E0,6.611369133E0
9.965305230E0,1.002592659E1,3.859622955E0,6.137589931E0
9.981971896E0,9.588040352E0,2.593819857E0,5.264209747E0
9.998638562E0,1.098305607E1,2.950350285E0,5.326423168E0
1.001530523E1,1.061695385E1,2.615355253E0,5.685346603E0
1.003197189E1,1.068873882E1,2.811566591E0,4.902893543E0
1.004863856E1,1.051645565E1,3.878765583E0,2.512463808E0
1.006530523E1,1.185643578E1,3.732803345E0,3.034099102E0
1.008197189E1,1.575912952E1,2.390429735E0,6.250052929E0
1.009863856E1,7.037291527E0,-1.414158225E0,3.498306751E0
1.011530522E1,6.886543751E0,3.613162279E0,8.877371788E0
1.013197189E1,1.023170948E1,4.955535889E0,3.402593851E0
1.014863856E1,-3.809373617E0,1.899901152E0,5.266602516E0
1.016530522E1,8.336593628E0,5.273781300E0,1.385444355E1
1.018197189E1,3.912265062E0,2.309073925E0,7.889136314E0
1.019863855E1,5.501099110E0,5.510670662E0,7.511070251E0
1.021530522E1,3.314059258E0,5.781059742E0,6.264409542E0
1.023197189E1,4.809573650E0,6.116054535E0,4.847858906E0
1.024863855E1,3.672982693E0,5.728417397E0,4.534399033E0
1.026530522E1,4.656432629E0,4.137190342E0,5.376672268E0
1.028197188E1,9.494720459E0,5.544169903E0,7.202396393E0
1.029863855E1,8.482556343E0,4.488935471E0,5.860022545E0
1.031530522E1,8.695517540E0,3.826123476E0,7.109076023E0
1.033197188E1,1.024128056E1,3.854837179E0,8.147561073E0
1.034863855E1,1.222014523E1,4.491328239E0,7.688138962E0
1.036530521E1,1.082512951E1,4.764110088E0,7.511070251E0
1.038197188E1,8.226524353E0,6.053841114E0,8.118846893E0
1.039863855E1,5.481956482E0,5.864808083E0,8.295916557E0
1.041530521E1,3.330809116E0,4.883750916E0,7.274180889E0
1.043197188E1,4.278367043E0,4.553541660E0,5.242674351E0
1.044863854E1,7.537391186E0,4.122833252E0,5.178068161E0
1.046530521E1,8.958727837E0,4.223331928E0,4.890929699E0
1.048197188E1,8.212167740E0,4.759324074E0,4.704289436E0
1.049863854E1,6.946363926E0,4.802394867E0,4.900500774E0
1.051530521E1,5.737988472E0,4.615755081E0,5.601597786E0
1.053197187E1,5.194818020E0,4.299902439E0,5.606383324E0
1.054863854E1,5.769095421E0,3.996013880E0,4.981856823E0
1.056530521E1,5.845665932E0,3.862015724E0,3.282952785E0
1.058197187E1,6.422336102E0,4.225724697E0,2.888136864E0
1.059863854E1,7.637889862E0,4.536791801E0,4.364508629E0
1.061530520E1,9.133403778E0,4.149154663E0,5.974878311E0
1.063197187E1,9.987641335E0,4.354937077E0,5.785845280E0
1.064863854E1,1.018624592E1,4.285545349E0,3.768695593E0
1.066530520E1,9.812965393E0,3.790230989E0,3.570091486E0
1.068197187E1,9.193224907E0,4.637290478E0,8.231309652E-1
1.069863853E1,7.259823799E0,4.007977962E0,-1.414158225E0
1.071530520E1,6.431907177E0,3.500699520E0,-1.366301775E0
1.073197187E1,5.919843197E0,4.807180882E0,6.245267391E-1
1.074863853E1,5.931807518E0,5.924628735E0,-2.584248483E-1
1.076530520E1,5.391029358E0,6.482156754E0,7.513462901E-1
1.078197186E1,4.534399033E0,6.367300987E0,1.459621787E0
1.079863853E1,3.818944931E0,5.943771362E0,1.464407444E0
1.081530520E1,5.804987907E0,6.587440968E0,1.320838094E0
1.083197186E1,8.571090698E0,7.824530125E0,2.249253273E0
1.084863853E1,1.011206818E1,8.056633949E0,1.713261008E0
1.086530519E1,7.247859955E0,8.056633949E0,3.725624800E0
1.088197186E1,4.788038254E0,8.511270523E0,5.481956482E0
1.089863853E1,5.304887772E0,6.819544315E0,2.330609322E0
1.091530519E1,7.013363361E0,6.664011002E0,2.622533560E0
1.093197186E1,1.052602673E1,7.329215527E0,1.165304661E0
1.094863852E1,1.120080280E1,7.776673794E0,-2.129612207E0
1.096530519E1,9.944570541E0,7.575676441E0,1.526620865E0
1.098197186E1,7.424928665E0,8.748159409E0,1.287338614E0
1.099863852E1,5.225924492E0,8.508877754E0,-3.661018610E-1
1.101530519E1,4.977071285E0,7.819744587E0,-1.404586911E0
1.103197185E1,5.919843197E0,8.322237015E0,-3.187239647E0
1.104863852E1,5.967699528E0,7.747959614E0,-2.385644197E0
1.106530519E1,4.137190342E0,7.613961697E0,-2.019542217E0
1.108197185E1,3.237488985E0,8.082955360E0,-2.667997360E0
1.109863852E1,2.995813847E0,8.252845764E0,-2.665604353E0
1.111530518E1,4.232903481E0,7.781459332E0,-2.897708178E0
1.113197185E1,3.474378586E0,7.628318787E0,-4.266402721E0
1.114863852E1,4.955535889E0,8.341380119E0,-2.019542217E0
1.116530518E1,5.666203976E0,9.449256897E0,-1.232303619E0
1.118197185E1,4.220939159E0,9.102297783E0,-4.857429862E-1
1.119863851E1,2.455035925E0,8.405985832E0,-5.503492355E-1
1.121530518E1,2.337787628E0,8.078168869E0,-9.355936646E-1
1.123197185E1,2.780459881E0,8.126026154E0,-2.091326952E0
1.124863851E1,2.605783939E0,7.554141045E0,-2.112862349E0
1.126530518E1,2.440679073E0,6.920042992E0,-1.584048629E0
1.128197184E1,1.691725612E0,6.635297298E0,-2.890529871E0
1.129863851E1,2.555534601E0,7.467999458E0,-2.285145521E0
1.131530518E1,2.462214470E0,8.128418922E0,-1.847259045E0
1.133197184E1,2.297109842E0,7.819744587E0,-8.757730722E-1
1.134863851E1,1.294517040E0,6.900900364E0,-1.246660590E0
1.136530517E1,3.637090325E-1,4.706682205E0,-1.904686809E0
1.138197184E1,2.344966233E-1,4.484149456E0,-1.806581140E0
1.139863851E1,3.397808075E-1,5.836094379E0,-2.103291035E0
1.141530517E1,5.144568682E-1,6.175875187E0,-2.507678032E0
1.143197184E1,5.168496966E-1,6.307480335E0,-2.713460922E0
1.144863850E1,2.945564747E0,8.489734650E0,-2.392822653E-1
1.146530517E1,3.034099102E0,1.011685371E1,6.317051649E-1
1.148197184E1,1.911865234E0,1.038724327E1,6.484549642E-1
1.149863850E1,1.825723648E0,1.102851963E1,7.010970116E-1
1.151530517E1,3.156133175E0,1.213161087E1,5.024927258E-1
1.153197183E1,2.478964329E0,1.071984577E1,5.431707501E-1
1.154863850E1,7.896314859E-1,9.200403214E0,1.294517040E0
1.156530517E1,1.722832322E-1,9.920642853E0,1.610369682E0
1.158197183E1,2.517249346E0,9.982855797E0,4.163511395E-1
1.159863850E1,5.000999451E0,8.817551613E0,-1.294517040E0
1.161530516E1,4.922036171E0,9.308079720E0,-1.816152334E0
1.163197183E1,3.448057413E0,8.360522270E0,1.780260086E0
1.164863850E1,-1.244267821E0,1.135155106E1,1.146640587E1
1.166530516E1,-3.464807272E0,9.059226990E0,5.065605640E0
1.168197183E1,-2.603390932E0,9.399007797E0,1.036092162E0
1.169863849E1,-3.984049797E0,8.805587769E0,4.938786030E0
1.171530516E1,-3.553341627E0,9.028120041E0,2.330609322E0
1.173197183E1,-2.462214470E0,7.731209755E0,2.847459018E-1
1.174863849E1,-5.431707501E-1,6.580262184E0,2.175075769E0
1.176530516E1,-2.014756680E0,7.255038261E0,1.406979680E0
1.178197182E1,-4.070191383E0,7.494320393E0,-2.380858421E0
1.179863849E1,-4.869394302E0,5.869594097E0,-1.148554832E-1
1.181530516E1,-5.316852093E0,6.943971157E0,6.740581512E0
1.183197182E1,-6.013163090E0,8.989834785E0,3.682554007E0
1.184863849E1,-6.955935478E0,9.365508080E0,5.314459324E0
1.186530515E1,-8.319844246E0,8.824729919E0,4.465006828E0
1.188197182E1,-8.599804878E0,8.702695847E0,2.907279491E0
1.189863849E1,-7.635497093E0,8.441878319E0,3.589234129E-2
1.191530515E1,-6.192625046E0,7.685746193E0,2.009970993E-1
1.193197182E1,-2.720639229E0,8.762516975E0,2.502892494E0
1.194863848E1,-4.218546391E0,7.618747234E0,3.802195072E0
1.196530515E1,-7.645068169E0,5.187639713E0,5.867201328E0
1.198197182E1,-8.279166222E0,3.383451223E0,8.834300995E0
1.199863848E1,-8.226524353E0,2.029113531E0,7.948956966E0
1.201530515E1,-7.585247993E0,-3.986442566E0,3.775874138E0
1.203197181E1,-7.817351341E0,6.652047038E-1,5.910272121E0
1.204863848E1,-6.118447304E0,5.508277893E0,5.422136307E0
1.206530515E1,-7.664210796E0,5.402993679E0,4.905286312E0
1.208197181E1,-6.257231236E0,4.783252239E0,6.226124287E0
1.209863848E1,-6.056233883E0,5.089533806E0,5.024927616E0
1.211530514E1,-4.465006828E0,5.338387489E0,2.711068153E0
1.213197181E1,-3.570091486E0,5.355136871E0,4.476971149E0
1.214863848E1,-5.687739372E0,5.814558983E0,4.785645485E0
1.216530514E1,-3.270988464E0,6.238088608E0,6.350551128E0
1.218197181E1,-2.512463808E0,5.950950146E0,5.840879917E0
1.219863847E1,-1.684547186E0,6.015556335E0,6.604190350E0
1.221530514E1,-2.577069998E0,5.910272121E0,6.290730953E0
1.223197181E1,-2.266003132E0,6.628118515E0,7.977670670E0
1.224863847E1,-5.216353536E-1,9.018548965E0,1.051645565E1
1.226530514E1,7.776673436E-1,8.044670105E0,1.101655579E1
1.228197180E1,1.124626622E-1,6.707081795E0,1.042792130E1
1.229863847E1,-1.459621787E-1,5.982056618E0,1.081555843E1
1.231530514E1,-2.952743053E0,4.658825874E0,1.358644676E1
1.233197180E1,-1.402194023E0,5.429314613E0,1.204786205E1
1.234863847E1,-7.274180651E-1,4.766502857E0,8.824729919E0
1.236530513E1,-1.244267821E0,4.488935471E0,6.695117950E0
1.238197180E1,-9.451649189E-1,5.225924492E0,7.312466145E0
1.239863847E1,-1.124626637E0,5.276174068E0,1.018863869E1
1.241530513E1,-1.670190215E0,4.776073933E0,1.023649502E1
1.243197180E1,-1.414158225E0,4.981856823E0,9.571290970E0
1.244863846E1,-8.805587292E-1,4.766502857E0,9.726823807E0
1.246530513E1,-1.529013634E0,4.876572609E0,9.255437851E0
1.248197180E1,-7.585247755E-1,5.367101192E0,8.319844246E0
1.249863846E1,-1.818545222E0,4.484149456E0,9.157332420E0
1.251530513E1,-1.411765337E0,4.407579422E0,1.034177971E1
1.253197179E1,-7.154539824E-1,3.885943890E0,1.059063339E1
1.254863846E1,-1.428515077E0,3.804588079E0,1.114337540E1
1.256530513E1,-1.600798368E0,3.919443607E0,1.052363396E1
1.258197179E1,-1.201196909E0,4.158725739E0,8.951549530E0
1.259863846E1,-1.674975872E0,3.986442566E0,8.776873589E0
1.261530512E1,-1.739582062E0,4.019941807E0,9.171689034E0
1.263197179E1,-2.170290232E0,4.101297855E0,8.532805443E0
1.264863846E1,-2.266003132E0,5.312066078E0,9.286544800E0
1.266530512E1,-2.277967215E0,6.163911343E0,9.434899330E0
1.268197179E1,-6.510870457E0,3.560520172E0,1.165065384E1
1.269863845E1,-2.672782898E0,2.344966173E0,8.374878883E0
1.271530512E1,-9.044869542E-1,4.828716278E0,7.810173035E0
1.273197179E1,-1.823330879E0,3.469592810E0,8.695517540E0
1.274863845E1,-1.880758643E0,3.381058455E0,9.241081238E0
1.276530512E1,-2.239681959E0,3.864408493E0,1.149272728E1
1.278197178E1,7.369893789E-1,3.448057413E0,1.192582798E1
1.279863845E1,1.129412293E0,3.720839262E0,1.041595650E1
1.281530512E1,-2.833101988E0,2.608176708E0,8.128418922E0
1.283197178E1,-3.948157310E0,2.811566591E0,8.544769287E0
1.284863845E1,-4.118047714E0,1.974078655E0,7.336394310E0
1.286530511E1,-2.364108801E0,1.830509305E0,7.970492363E0
1.288197178E1,-7.896314859E-1,2.002792597E0,8.573483467E0
1.289863845E1,1.115055323E0,1.213161111E0,9.655039787E0
1.291530511E1,-7.441678643E-1,1.249053478E0,8.898907661E0
1.293197178E1,-1.265803218E0,2.031506538E0,8.422736168E0
1.294863844E1,-1.351944804E0,2.411965132E0,8.712266922E0
1.296530511E1,-2.904886723E0,1.945364833E0,8.901300430E0
1.298197178E1,-1.079162955E0,1.761117458E0,1.164826107E1
1.299863844E1,4.067798331E-2,1.792224169E0,1.280877972E1
1.301530511E1,1.028913707E-1,2.959921598E0,9.059226990E0
1.303197177E1,-1.756331801E0,4.326223373E0,9.894321442E0
1.304863844E1,-1.545763373E0,1.823330879E0,1.040877819E1
1.306530511E1,-5.886343718E-1,3.869194269E0,9.085547447E0
1.308197177E1,-9.044869542E-1,3.005385160E0,9.114261627E0
1.309863844E1,-5.623133183E-1,2.950350285E0,9.372686386E0
1.311530510E1,5.312066078E-1,2.500499725E0,1.043988514E1
1.313197177E1,6.604190469E-1,2.000399828E0,1.068634605E1
1.314863844E1,5.599204898E-1,1.926222205E0,1.037527943E1
1.316530510E1,5.934200287E-1,1.552941918E0,9.781859398E0
1.318197177E1,9.451649189E-1,1.280160069E0,9.473184586E0
1.319863843E1,1.048056364E0,1.194018483E0,9.190832138E0
1.321530510E1,1.464407444E0,1.170090318E0,9.214759827E0
1.323197177E1,1.299302697E0,7.130611539E-1,9.293723106E0
1.324863843E1,1.871187329E0,1.095912814E0,8.922835350E0
1.326530510E1,2.160718918E0,1.751546144E0,9.121439934E0
1.328197176E1,1.466800332E0,2.189432621E0,9.643074989E0
1.329863843E1,1.909472466E0,2.979064226E0,9.678967476E0
1.331530510E1,2.041077614E0,3.038884640E0,9.614361763E0
1.333197176E1,2.043470621E0,3.012563705E0,1.015992451E1
1.334863843E1,2.007578135E0,3.273381472E0,1.022453117E1
1.336530509E1,2.060220242E0,3.385843992E0,1.059781170E1
1.338197176E1,1.892722726E0,3.165704250E0,1.147597694E1
1.339863843E1,1.950150490E0,3.345165968E0,1.168893814E1
1.341530509E1,1.837687731E0,3.400201082E0,1.152383423E1
1.343197176E1,1.698904037E0,3.237488985E0,1.103569794E1
1.344863842E1,1.574477315E0,3.409772158E0,9.944570541E0
1.346530509E1,1.588834286E0,3.495913982E0,9.382257462E0
1.348197176E1,1.361516118E0,3.263810158E0,9.477970123E0
1.349863842E1,1.473978758E0,2.919243574E0,9.870393753E0
1.351530509E1,1.619940877E0,2.900100946E0,9.824930191E0
1.353197175E1,1.404586911E0,2.825923443E0,9.791430473E0
1.354863842E1,1.502692580E0,3.053241730E0,9.734002113E0
1.356530509E1,1.526620865E0,2.933600664E0,9.949356079E0
1.358197175E1,1.483550072E0,3.314059258E0,9.580862045E0
1.359863842E1,1.208375454E0,3.440878868E0,9.279366493E0
1.361530508E1,1.414158225E0,3.328416348E0,9.379864693E0
1.363197175E1,1.430907965E0,2.991028309E0,9.851250648E0
1.364863842E1,1.414158225E0,2.706282377E0,1.022692394E1
1.366530508E1,1.466800332E0,2.596212626E0,1.037767220E1
1.368197175E1,1.418943882E0,2.878565550E0,1.013121128E1
1.369863841E1,1.359123230E0,3.017349243E0,9.394221306E0
1.371530508E1,1.354337573E0,2.976671457E0,9.265008926E0
1.373197175E1,1.177268744E0,2.646461725E0,9.549755096E0
1.374863841E1,1.158126116E0,2.555534601E0,9.544969559E0
1.376530508E1,1.189232826E0,2.435893536E0,9.561718941E0
1.378197174E1,1.344766378E0,2.313859463E0,9.671789169E0
1.379863841E1,1.160519004E0,2.352144718E0,9.734002113E0
1.381530508E1,1.201196909E0,2.486142635E0,9.810572624E0
1.383197174E1,1.172483087E0,2.450250387E0,1.001156998E1
1.384863841E1,1.069591761E0,2.493321180E0,9.841679573E0
1.386530507E1,1.074377418E0,2.603390932E0,9.521040916E0
1.388197174E1,1.284945726E0,2.471785784E0,9.688538551E0
1.389863841E1,1.521835208E0,2.414358139E0,9.659825325E0
1.391530507E1,1.311266780E0,2.428714991E0,9.736394882E0
1.393197174E1,1.512263894E0,2.529213428E0,9.626325607E0
1.394863840E1,1.624726534E0,2.620140791E0,9.779465675E0
1.396530507E1,1.622333765E0,2.622533560E0,9.839286804E0
1.398197174E1,1.454836130E0,2.629712105E0,9.836894035E0
1.399863840E1,1.380658627E0,2.603390932E0,1.003071213E1
1.401530507E1,1.316052437E0,2.699103832E0,9.906285286E0
1.403197173E1,1.105484009E0,2.684746981E0,9.748359680E0
1.404863840E1,8.518448472E-1,2.703889608E0,9.734002113E0
1.406530507E1,8.183453679E-1,2.689532757E0,9.676574707E0
1.408197173E1,9.308080077E-1,2.545963287E0,9.762716293E0
1.409863840E1,1.009771109E0,2.450250387E0,9.777072906E0
1.411530506E1,1.110269666E0,2.352144718E0,9.743574142E0
1.413197173E1,1.239482164E0,2.385644197E0,9.774680138E0
1.414863840E1,1.249053478E0,2.340180635E0,9.961320877E0
1.416530506E1,1.301695466E0,2.318645239E0,9.992427826E0
1.418197173E1,1.316052437E0,2.428714991E0,9.820143700E0
1.419863839E1,1.359123230E0,2.452643156E0,9.731609344E0
1.421530506E1,1.390229940E0,2.385644197E0,9.719645500E0
1.423197173E1,1.249053478E0,2.318645239E0,9.832108498E0
1.424863839E1,1.249053478E0,2.280359983E0,9.820143700E0
1.426530506E1,1.146162033E0,2.344966173E0,9.772287369E0
1.428197172E1,1.086341500E0,2.354537487E0,9.774680138E0
1.429863839E1,1.234696507E0,2.321038008E0,9.978070259E0
1.431530506E1,1.263410330E0,2.333002090E0,1.006181908E1
1.433197172E1,1.272981644E0,2.402393818E0,1.001874828E1
1.434863839E1,1.261017561E0,2.383251429E0,9.987641335E0
1.436530505E1,1.402194023E0,2.392822742E0,9.949356079E0
1.438197172E1,1.476371527E0,2.328216314E0,9.980463028E0
1.439863839E1,1.466800332E0,2.383251429E0,9.791430473E0
1.441530505E1,1.371087432E0,2.361716032E0,9.717252731E0
1.443197172E1,1.335195065E0,2.297109842E0,9.741181374E0
1.444863838E1,1.213161111E0,2.285145521E0,9.664610863E0
1.446530505E1,1.167697430E0,2.280359983E0,9.537791252E0
1.448197172E1,1.136590719E0,2.285145521E0,9.592825890E0
1.449863838E1,1.155733347E0,2.282752752E0,9.755537987E0
1.451530505E1,1.284945726E0,2.313859463E0,9.884750366E0
1.453197171E1,1.337587833E0,2.333002090E0,9.865608215E0
1.454863838E1,1.363908887E0,2.419143677E0,9.884750366E0
1.456530505E1,1.404586911E0,2.419143677E0,9.810572624E0
1.458197171E1,1.251446247E0,2.469393015E0,9.815358162E0
1.459863838E1,1.292124271E0,2.490928411E0,9.906285286E0
1.461530504E1,1.349551916E0,2.502892494E0,9.932606697E0
1.463197171E1,1.488335729E0,2.498106956E0,9.757930756E0
1.464863838E1,1.533799291E0,2.474178553E0,9.714859962E0
1.466530504E1,1.380658627E0,2.493321180E0,9.674181938E0
1.468197171E1,1.335195065E0,2.498106956E0,9.509077072E0
1.469863837E1,1.249053478E0,2.440679073E0,9.650253296E0
1.471530504E1,1.251446247E0,2.476571321E0,9.504291534E0
1.473197171E1,1.268195987E0,2.423929453E0,9.360722542E0
1.474863837E1,1.488335729E0,2.337787628E0,9.494720459E0
1.476530504E1,1.524227977E0,2.282752752E0,9.382257462E0
1.478197170E1,1.519442320E0,2.287538528E0,9.183652878E0
1.479863837E1,1.485942841E0,2.117648125E0,9.253045082E0
1.481530504E1,1.349551916E0,1.749153376E0,9.533005714E0
1.483197170E1,7.058826685E-1,2.029113531E0,9.643074989E0
1.484863837E1,-5.503492057E-2,2.498106956E0,9.336793900E0
1.486530503E1,-3.565305769E-1,3.079562664E0,9.099904060E0
1.488197170E1,-1.674975902E-1,3.053241730E0,8.894122124E0
1.489863837E1,-1.507478207E-1,2.742174864E0,9.712467194E0
1.491530503E1,-6.699903607E-1,2.112862349E0,9.348757744E0
1.493197170E1,-4.043870270E-1,1.952543259E0,9.982855797E0
1.494863836E1,-4.211367965E-1,2.402393818E0,1.195454216E1
1.496530503E1,-1.110269666E0,1.818545222E0,1.228235817E1
1.498197170E1,-1.787438512E0,3.713660717E0,1.002353382E1
1.499863836E1,-3.000599623E0,4.536791801E0,8.609375954E0
1.501530503E1,-5.302495003E0,4.941178799E0,8.319844246E0
1.503197169E1,-5.259424210E0,6.348158360E0,8.487341881E0
1.504863836E1,-4.010370731E0,6.037091732E0,9.188439369E0
1.506530503E1,-2.684746981E0,7.087540627E0,1.184207916E1
1.508197169E1,-3.677768469E0,7.022934437E0,9.556933403E0
1.509863836E1,-5.182853699E0,6.072983742E0,6.613761902E0
1.511530502E1,-9.923035622E0,6.668796539E0,4.357329845E0
1.513197169E1,-5.850451469E0,6.716653347E0,3.431307554E0
1.514863836E1,-6.484549522E0,7.578069210E0,4.134797573E0
1.516530502E1,-9.075976372E0,6.565905571E0,3.723232031E0
1.518197169E1,-8.231309891E0,6.692724705E0,5.376672268E0
1.519863835E1,-6.747759819E0,7.448856831E0,5.907878876E0
1.521530502E1,-4.981856823E0,8.114061356E0,6.618547440E0
1.523197169E1,-5.297709465E0,7.453642368E0,4.728217602E0
1.524863835E1,-6.699903488E0,5.041677475E0,8.063812256E-1
1.526530502E1,-6.999006271E0,4.063013077E0,2.344966173E0
1.528197168E1,-7.972885132E0,3.996013880E0,-1.244267747E-1
1.529863835E1,-7.814958572E0,3.790230989E0,9.068797827E-1
1.531530502E1,-7.544569969E0,3.692125320E0,1.885544300E0
1.533197168E1,-8.360522270E0,3.491128206E0,3.127419233E0
1.534863835E1,-1.097587776E1,1.749153376E0,2.684746981E0
1.536530501E1,-1.076052380E1,2.340180635E0,5.663811207E0
1.538197168E1,-6.699903488E0,3.842873096E0,5.663811207E0
1.539863835E1,-7.709674358E0,1.832902193E0,5.340780258E0
1.541530501E1,-7.317251682E0,1.564906001E0,3.536591768E0
1.543197168E1,-8.006384850E0,2.129612118E-1,3.651447296E0
1.544863834E1,-8.678768158E0,4.905286431E-1,5.393422127E0
1.546530501E1,-7.676175117E0,-6.939185411E-2,5.240281582E0
1.548197168E1,-5.793023586E0,1.904686809E0,3.081955671E0
1.549863834E1,-3.672982693E0,6.173482537E-1,2.009970903E0
1.551530501E1,-6.630511761E0,-1.177268744E0,4.173082829E0
1.553197167E1,-5.383851051E0,1.562513232E0,8.453842163E0
1.554863834E1,-1.097348499E1,-6.532405615E-1,1.057627583E1
1.556530501E1,-6.666403770E0,2.801995277E0,5.115854740E0
1.558197167E1,-7.322037220E0,5.285745144E0,3.067598581E0
1.559863834E1,-5.840879917E0,6.704689026E0,2.770888567E0
1.561530500E1,-5.300102234E0,7.235895634E0,1.141376376E0
1.563197167E1,-6.649653912E0,6.142375946E0,-1.363908887E0
1.564863834E1,-8.750552177E0,5.869594097E0,1.873580098E0
1.566530500E1,-1.002831936E1,4.594219685E0,3.601198196E0
1.568197167E1,-9.868000984E0,3.306880951E0,1.761117458E0
1.569863833E1,-8.870193481E0,3.349951744E0,-1.660618901E0
1.571530500E1,-7.829315662E0,4.476971149E0,-3.333201885E0
1.573197167E1,-7.788637638E0,5.144568920E0,-2.866601467E0
1.574863833E1,-8.499305725E0,5.139782906E0,-9.499505758E-1
1.576530500E1,-9.822537422E0,3.144168854E0,-1.890329868E-1
1.578197166E1,-9.619147301E0,1.945364833E0,-1.555334777E-1
1.579863833E1,-9.454042435E0,1.909472466E0,1.459621787E-1
1.581530500E1,-8.769695282E0,4.029513359E0,8.925228715E-1
1.583197166E1,-8.501698494E0,5.271388054E0,1.555334687E0
1.584863833E1,-1.011446095E1,4.350151539E0,1.708475351E0
1.586530499E1,-1.113380337E1,3.818944931E0,1.397408366E0
1.588197166E1,-1.028913784E1,4.802394867E0,4.450650215E-1
1.589863833E1,-9.571290970E0,6.556334019E0,2.751746178E-1
1.591530499E1,-9.576076508E0,7.470392227E0,1.579262912E-1
1.593197166E1,-1.016471100E1,7.467999458E0,1.265803218E0
1.594863832E1,-1.069352436E1,6.814758778E0,2.636890650E0
1.596530499E1,-1.098305607E1,5.706882000E0,3.383451223E0
1.598197166E1,-1.010488987E1,4.764110088E0,4.110869408E0
1.599863832E1,-9.745966911E0,4.512863636E0,2.447857618E0
1.601530499E1,-1.014796066E1,3.323630571E0,1.543370605E0
1.603197165E1,-1.014317513E1,4.371686935E0,8.877372146E-1
1.604863832E1,-1.088495064E1,2.861815929E0,-3.708875179E-1
1.606530499E1,-9.511469841E0,5.529813290E0,-1.540977836E0
1.608197165E1,-1.033699417E1,2.065006018E0,-4.378865361E-1
1.609863832E1,-1.043270683E1,2.459821701E0,2.883351326E0
1.611530498E1,-8.094919205E0,3.337987661E0,1.718046665E0
1.613197165E1,-6.130411625E0,3.584448338E0,-1.122233868E0
1.614863832E1,-7.231110096E0,2.191825628E0,-1.012163997E0
1.616530498E1,-8.499305725E0,1.818545222E0,4.713860750E-1
1.618197165E1,-8.535198212E0,1.107876897E0,1.770688772E0
1.619863831E1,-7.822137356E0,1.184447169E0,1.545763373E0
1.621530498E1,-1.054756260E1,-2.653640270E0,3.294916868E0
1.623197165E1,-9.305686951E0,6.151947021E0,7.465606928E-1
1.624863831E1,-1.146640587E1,6.759724140E0,-4.912465096E0
1.626530498E1,-1.319402409E1,2.672782898E0,-6.771687865E-1
1.628197164E1,-1.202871990E1,7.944171429E-1,3.984049797E0
1.629863831E1,-1.094716358E1,1.653440475E0,1.311266780E0
1.631530498E1,-1.136830044E1,2.569891453E0,6.891329288E-1
1.633197164E1,-1.287817192E1,3.206382275E0,2.514856577E0
1.634863831E1,-1.230628681E1,3.814159393E0,1.978864312E0
1.636530497E1,-1.036570740E1,2.780459881E0,7.465606928E-1
1.638197164E1,-9.652647018E0,1.880758643E0,-1.663011789E0
1.639863831E1,-1.025803089E1,-4.450650215E-1,3.397808075E-1
1.641530497E1,-9.377471924E0,4.977070987E-1,-2.285145521E0
1.643197164E1,-8.080561638E0,1.002592683E0,-1.134197950E0
1.644863830E1,-7.692924976E0,-2.878565550E0,-2.679961324E-1
1.646530497E1,-4.264009953E0,8.398807645E-1,-1.249053478E0
1.648197164E1,-3.833301783E0,1.004985496E-1,-2.206182480E0
1.649863830E1,-6.577869415E0,-1.308874011E0,-1.103091240E0
1.651530497E1,-9.891928673E0,-1.538584948E0,-2.392822653E-1
1.653197163E1,-9.332008362E0,4.194618225E0,1.162911773E0
1.654863830E1,-1.142572784E1,2.861815929E0,-5.728417397E0
1.656530497E1,-1.008814049E1,1.962114573E-1,-3.634697676E0
1.658197163E1,-9.494720459E0,4.737788737E-1,-3.230310678E-1
1.659863830E1,-9.774680138E0,3.493520916E-1,1.799402595E0
1.661530496E1,-7.204789162E0,1.825723648E0,3.347558975E0
1.663197163E1,-7.209574699E0,6.987041950E0,5.144568920E0
1.664863830E1,-6.563512325E0,9.509077072E0,1.978864312E0
1.666530496E1,-1.085623646E1,7.910671711E0,-2.943171859E-1
1.668197163E1,-1.490489197E1,6.300302029E0,4.632504463E0
1.669863829E1,-1.574716568E1,2.495713949E0,5.161318302E0
1.671530496E1,-1.323709488E1,1.600798368E0,5.259424210E0
1.673197163E1,-7.992027760E0,3.888336897E0,5.520241737E0
1.674863829E1,-4.754538536E0,6.465406895E0,2.706282377E0
1.676530496E1,-3.192025423E0,8.750552177E0,-1.962114573E-1
1.678197162E1,-3.515056372E0,8.233702660E0,-1.232303619E0
1.679863829E1,-4.809573650E0,6.891329288E0,-7.872386575E-1
1.681530496E1,-6.472585201E0,4.553541660E0,1.746760458E-1
1.683197162E1,-3.663411379E0,6.802794933E0,4.170690060E0
1.684863829E1,-1.792224169E0,1.099501991E1,4.608576298E0
1.686530495E1,-4.666004181E0,7.324429989E0,4.175475597E0
1.688197162E1,-5.826523304E0,6.331408501E0,3.431307554E0
1.689863829E1,-6.218945980E0,7.286144733E0,3.285345554E0
1.691530495E1,-7.018148899E0,7.367500782E0,2.388036966E0
1.693197162E1,-8.336593628E0,7.020541668E0,2.139183521E0
1.694863828E1,-8.468199730E0,7.152146816E0,2.773281336E0
1.696530495E1,-8.360522270E0,6.977470875E0,3.182454109E0
1.698197162E1,-7.420143127E0,6.460621357E0,1.875972986E0
1.699863828E1,-6.814758778E0,6.314659119E0,1.093519926E0
1.701530495E1,-5.481956482E0,6.987041950E0,1.507478237E0
1.703197161E1,-4.376472473E0,7.566105366E0,2.187039852E0
1.704863828E1,-6.273981094E0,7.365108013E0,2.560320139E0
1.706530495E1,-6.814758778E0,7.226324558E0,2.443071842E0
1.708197161E1,-6.597012043E0,7.235895634E0,2.790031195E0
1.709863828E1,-7.161718369E0,6.223731518E0,2.979064226E0
1.711530494E1,-7.166503906E0,5.761917114E0,1.509871125E0
1.713197161E1,-5.857629776E0,5.673382282E0,1.567298889E0
1.714863828E1,-5.493920803E0,5.391029358E0,3.058027267E0
1.716530494E1,-6.427121639E0,5.546562672E0,3.177668571E0
1.718197161E1,-7.573283672E0,6.762116909E0,-1.603191197E-1
1.719863827E1,-6.735795975E0,7.348358154E0,-1.306481123E0
1.721530494E1,-7.489534855E0,7.317251682E0,3.565305769E-1
1.723197161E1,-9.741181374E0,6.467799664E0,5.455635548E0
1.724863827E1,-1.042552853E1,4.709074974E0,3.010170937E0
1.726530494E1,-6.759724140E0,6.199803352E0,5.632704735E0
1.728197160E1,-4.046263218E0,7.168896675E0,4.374079704E0
1.729863827E1,-5.245067120E0,7.434499741E0,2.014756680E0
1.731530494E1,-5.907878876E0,7.625925541E0,1.105484009E0
1.733197160E1,-7.429714203E0,7.805387497E0,1.897508383E0
1.734863827E1,-6.733402729E0,6.982256413E0,5.441278458E0
1.736530493E1,-3.280559778E0,7.771887779E0,9.334401131E0
1.738197160E1,-6.355337143E0,6.094519138E0,2.091326952E0
1.739863827E1,-4.543970108E0,7.762316704E0,3.311666489E0
1.741530493E1,-5.393422127E0,7.101897717E0,3.840480328E0
1.743197160E1,-6.084948063E0,7.070790768E0,3.282952785E0
1.744863826E1,-5.819344521E0,6.994220734E0,4.151547432E0
1.746530493E1,-5.785845280E0,6.805187702E0,4.577469826E0
1.748197160E1,-5.891129494E0,6.173482418E0,3.873979807E0
1.749863826E1,-5.970092297E0,5.819344521E0,3.565305710E0
1.751530493E1,-5.982056618E0,6.223731518E0,3.419343472E0
1.753197159E1,-5.103890896E0,6.585047722E0,3.172882795E0
1.754863826E1,-4.792823792E0,6.929614544E0,3.072384357E0
1.756530493E1,-4.601397991E0,7.479963779E0,2.945564747E0
1.758197159E1,-4.740181446E0,8.137989998E0,3.706482172E0
1.759863826E1,-5.647061348E0,8.145168304E0,3.282952785E0
1.761530492E1,-5.314459324E0,8.791230202E0,2.658426046E0
1.763197159E1,-5.314459324E0,8.791230202E0,2.658426046E0
1.764863826E1,-5.314459324E0,8.791230202E0,2.658426046E0
1.766530492E1,-5.314459324E0,8.791230202E0,2.658426046E0
1.768197159E1,-5.314459324E0,8.791230202E0,2.658426046E0
1.769863825E1,-5.314459324E0,8.791230202E0,2.658426046E0
1.771530492E1,-3.850051641E0,8.616554260E0,1.765903115E0
1.773197159E1,-3.850051641E0,8.616554260E0,1.765903115E0
1.774863825E1,-4.630111694E0,7.982456207E0,2.510071039E0
1.776530492E1,-4.376472473E0,7.817351341E0,2.514856577E0
1.778197158E1,-5.352744102E0,7.511070251E0,2.146361828E0
1.779863825E1,-6.221338749E0,7.228717327E0,3.924229145E0
1.781530492E1,-6.254838467E0,7.243073940E0,3.792623997E0
1.783197158E1,-4.840680122E0,7.360322475E0,4.642076015E0
1.784863825E1,-3.493520975E0,8.472985268E0,2.143969059E0
1.786530491E1,-3.665804386E0,9.087940216E0,2.443071842E0
1.788197158E1,-3.687339783E0,9.066405296E0,2.364108801E0
1.789863825E1,-5.211567879E0,8.463413239E0,2.313859463E0
1.791530491E1,-6.649653912E0,7.429714203E0,1.670190215E0
1.793197158E1,-5.819344521E0,7.274180889E0,2.866601467E0
1.794863824E1,-1.643869162E0,9.858428955E0,3.383451223E0
1.796530491E1,-2.093719721E0,8.906085968E0,4.024727821E0
1.798197158E1,-6.106483459E0,5.802595139E0,4.141975880E0
1.799863824E1,-4.137190342E0,7.549355507E0,1.462014675E0
1.801530491E1,-4.474578381E0,7.434499741E0,2.734996319E0
1.803197157E1,-4.278367043E0,6.527620316E0,2.471785784E0
1.804863824E1,-4.654039860E0,6.273981094E0,2.294716835E0
1.806530491E1,-5.266602516E0,6.577869415E0,1.773081541E0
1.808197157E1,-4.022335052E0,7.668996811E0,2.206182480E0
1.809863824E1,-5.216353416E0,6.975078106E0,1.395015597E0
1.811530490E1,-5.568098068E0,7.149754047E0,5.048855543E-1
1.813197157E1,-5.271388054E0,7.948956966E0,6.173482537E-1
1.814863824E1,-8.528019905E0,7.226324558E0,4.426721931E-1
1.816530490E1,-4.323830605E0,9.678967476E0,2.440679073E0
1.818197157E1,1.550549030E0,1.254078388E1,4.704289436E0
1.819863823E1,-2.871387079E-2,8.494520187E0,5.151747227E0
1.821530490E1,-4.929214716E-1,9.958928108E0,4.098905087E0
1.823197157E1,-3.326023579E0,1.068395329E1,-6.963114142E-1
1.824863823E1,-2.091326952E0,1.295713425E1,-1.172483116E-1
1.826530490E1,3.756731451E-1,1.252881908E1,-3.426522017E0
1.828197156E1,-1.069591761E0,1.226082325E1,-2.199003935E0
1.829863823E1,2.392822653E-1,1.253839111E1,2.464607358E-1
1.831530490E1,-3.486342669E0,8.078168869E0,2.589034081E0
1.833197156E1,-3.723232031E0,8.563912392E0,-1.009771109E0
1.834863823E1,-3.282952785E0,9.851250648E0,-2.289931297E0
1.836530489E1,-2.057827413E-1,9.554540634E0,-6.317051649E-1
1.838197156E1,2.775674164E-1,7.377072334E0,1.859223247E0
1.839863823E1,-5.015356064E0,6.594619274E0,6.101697683E-1
1.841530489E1,-3.136990547E0,6.979863644E0,1.536192179E0
1.843197156E1,2.548356056E0,7.523034573E0,3.038884640E0
1.844863822E1,1.101416302E1,9.461220741E0,1.938186288E-1
1.846530489E1,1.001156998E1,9.688538551E0,6.149554253E-1
1.848197156E1,5.024927616E0,7.707281590E0,1.691725612E0
1.849863822E1,8.006384850E0,4.089334011E0,4.402793646E-1
1.851530489E1,5.197210789E0,3.795016766E0,4.405186653E0
1.853197155E1,1.330409408E0,7.465606689E0,1.445264935E0
1.854863822E1,4.895715237E0,1.207657623E1,-2.699103832E0
1.856530489E1,5.577669621E0,1.030349445E1,1.344766378E0
1.858197155E1,2.122433662E0,7.611568928E0,2.569891453E0
1.859863822E1,1.619940877E0,7.941778183E0,3.677768469E0
1.861530488E1,3.421736479E0,8.417949677E0,5.946164131E0
1.863197155E1,6.644868374E0,1.244028473E1,-1.667797327E0
1.864863822E1,3.876372576E0,1.056909752E1,9.379864931E-1
1.866530488E1,5.008177757E0,9.631111145E0,4.498506486E-1
1.868197155E1,4.005585194E0,5.757131100E0,-5.120640397E-1
1.869863821E1,4.905286312E0,9.267401695E0,2.732603550E0
1.871530488E1,6.922435760E0,1.064566803E1,1.660618901E0
1.873197155E1,6.783652306E0,1.016710377E1,4.450650215E-1
1.874863821E1,3.984049797E0,9.810572624E0,-6.675975323E-1
1.876530488E1,1.141854954E1,7.712067604E0,-8.853443861E-1
1.878197154E1,8.116454124E0,4.776073933E0,-1.844866276E0
1.879863821E1,6.168696880E0,8.152346611E0,-5.264210105E-1
1.881530488E1,3.945764542E0,8.128418922E0,1.679761529E0
1.883197154E1,3.041277647E0,6.489335060E0,6.575476646E0
1.884863821E1,2.189432621E0,6.329015732E0,3.548556089E0
1.886530487E1,-7.082754970E-1,7.166503906E0,2.833101988E0
1.888197154E1,-1.586441398E0,6.860222340E0,3.893122435E0
1.889863821E1,1.177268744E0,4.919643402E0,-2.184647083E0
1.891530487E1,3.031706333E0,2.151147604E0,3.132204771E0
1.893197154E1,3.572484255E0,1.004985452E0,6.774080753E0
1.894863820E1,5.096712112E0,7.061219692E0,-1.299302697E0
1.896530487E1,3.986442566E0,9.537791252E0,-5.065605640E0
1.898197154E1,6.642475605E0,1.097827053E1,-2.074577332E0
1.899863820E1,4.826323509E0,1.384487152E1,-2.921636343E0
1.901530487E1,1.483550072E-1,8.437092781E0,-5.982056618E0
1.903197153E1,-1.552941918E0,1.149990559E1,-3.354737282E0
1.904863820E1,-5.718846321E-1,1.416551018E1,4.589433670E0
1.906530487E1,2.388036966E0,1.464168167E1,9.836894035E0
1.908197153E1,1.670190215E0,1.052602673E1,9.690931439E-1
1.909863820E1,4.881358147E-1,1.130608654E1,1.804188251E0
1.911530486E1,1.481157184E0,1.320838070E1,3.251846075E0
1.913197153E1,2.191825628E0,1.283510113E1,1.952543259E0
1.914863820E1,1.670190215E0,1.077488041E1,2.031506538E0
1.916530486E1,1.505085468E0,9.253045082E0,1.418943882E0
1.918197153E1,1.399801254E0,8.982656479E0,8.709874153E-1
1.919863819E1,-6.527620316E0,-1.012163997E0,6.757331371E0
1.921530486E1,8.963513374E0,1.403151226E1,-2.976671457E0
1.923197153E1,8.973084450E0,1.114816093E1,-3.440878868E0
1.924863819E1,4.508078098E0,8.279166222E0,-9.834501147E-1
1.926530486E1,1.253839016E0,7.915457249E0,-5.862415433E-1
1.928197152E1,3.268595695E0,9.451649666E0,-2.459821701E0
1.929863819E1,3.589233875E0,7.944170952E0,-1.320838094E0
1.931530486E1,3.182454109E0,8.815158844E0,4.905286431E-1
1.933197152E1,2.737389088E0,8.858229637E0,2.352144718E0
1.934863819E1,5.012963295E0,9.334401131E0,1.337587833E0
1.936530485E1,6.632904530E0,9.511469841E0,5.623133183E-1
1.938197152E1,5.785845280E0,7.580461979E0,6.556333899E-1
1.939863819E1,4.113262177E0,6.664011002E0,-1.938186288E-1
1.941530485E1,4.331008911E0,8.377271652E0,-2.368894368E-1
1.943197152E1,3.189632654E0,8.537590981E0,-3.397808075E-1
1.944863818E1,8.685946465E-1,6.833901405E0,1.048056364E0
1.946530485E1,-3.613162339E-1,2.667997360E0,5.120640397E-1
1.948197152E1,2.392822653E-1,9.332008362E0,1.363908947E-1
1.949863818E1,4.259224415E0,1.137547874E1,1.935793519E0
1.951530485E1,5.718846321E0,8.822337151E0,4.441078663E0
1.953197151E1,3.091526747E0,9.781859398E0,-3.524627686E0
1.954863818E1,4.039084435E0,1.430907917E1,1.962114573E-1
1.956530485E1,1.476371527E0,1.062652493E1,1.959721804E0
1.958197151E1,5.465207100E0,1.169611740E1,3.086741269E-1
1.959863818E1,5.491528034E0,1.042313576E1,-3.852444589E-1
1.961530484E1,6.733402729E0,1.023170948E1,-9.954141974E-1
1.963197151E1,7.417750359E0,9.745966911E0,2.344966173E0
1.964863818E1,5.735595703E0,9.176474571E0,3.050848961E0
1.966530484E1,-1.615155339E0,5.625525951E0,2.591426849E0
1.968197151E1,-5.790630579E-1,5.625525951E0,3.900300860E-1
1.969863817E1,1.792224169E0,8.152346611E0,-1.773081541E0
1.971530484E1,1.861616015E0,9.760323524E0,1.797009826E0
1.973197151E1,2.057827473E0,1.090409279E1,4.015156269E0
1.974863817E1,2.443071842E0,1.104048347E1,2.533999205E0
1.976530484E1,3.239881754E0,9.915857315E0,1.313659668E0
1.978197150E1,3.567698479E0,8.669196129E0,3.148954630E0
1.979863817E1,4.737788677E0,8.815158844E0,2.840280533E0
1.981530484E1,5.563312531E0,9.308079720E0,3.629911900E0
1.983197150E1,6.429514408E0,1.010010433E1,6.410371780E0
1.984863817E1,4.852644444E0,9.073583603E0,1.663011789E0
1.986530483E1,1.682154298E0,8.468199730E0,-1.435693622E0
1.988197150E1,-2.392822653E-1,6.762116909E0,-2.653640270E0
1.989863817E1,-1.024128079E0,6.833901405E0,-4.594219327E-1
1.991530483E1,-1.823330879E0,8.221738815E0,6.281159401E0
1.993197150E1,-2.495713949E0,9.710074425E0,4.675575256E0
1.994863816E1,-1.598405480E0,1.040399265E1,3.792623997E0
1.996530483E1,-5.312066078E-1,9.702896118E0,3.950550079E0
1.998197150E1,5.599204898E-1,6.809973240E0,2.407179594E0
1.999863816E1,2.495713949E0,7.683353424E0,3.601198196E0
2.001530483E1,3.077169895E0,8.496912956E0,6.288337708E0
2.003197149E1,3.759124279E0,8.492127419E0,6.649653912E0
2.004863816E1,4.321437836E0,7.314858913E0,4.094119549E0
2.006530483E1,4.926821709E0,6.297909260E0,3.670589924E0
2.008197149E1,4.637290478E0,6.384050846E0,4.898108006E0
2.009863816E1,4.785645485E0,6.549155712E0,4.479363918E0
2.011530482E1,4.476971149E0,6.934400082E0,3.479164124E0
2.013197149E1,4.292723656E0,6.659225464E0,2.713460922E0
2.014863816E1,3.340380430E0,6.226124287E0,2.979064226E0
2.016530482E1,4.043870449E0,6.204588890E0,5.101497650E0
2.018197149E1,1.356730461E0,9.032905579E0,4.548755646E0
2.019863815E1,-9.810572863E-2,1.422772312E1,2.333002090E0
2.021530482E1,5.958128572E-1,1.936989975E1,4.867001057E0
2.023197149E1,2.596212626E0,1.991785622E1,7.585247755E-1
2.024863815E1,3.632304668E0,8.803194046E0,-9.403793216E-1
2.026530482E1,4.146761417E0,6.678368092E0,9.020941257E-1
2.028197148E1,2.947957516E0,5.111069202E0,6.412764788E-1
2.029863815E1,4.161118507E0,5.649454117E0,9.355936646E-1
2.031530482E1,5.840879917E0,6.826723099E0,9.236295223E-1
2.033197148E1,7.176074982E0,9.142974854E0,1.148554921E0
2.034863815E1,1.950150490E0,9.939785004E0,1.167697430E0
2.036530481E1,-1.316052526E-1,1.013599682E1,5.240281820E-1
2.038197148E1,-9.571290761E-2,9.812965393E0,1.069591761E0
2.039863815E1,4.546363056E-1,9.638289452E0,1.512263894E0
2.041530481E1,6.867401004E-1,9.793823242E0,1.213161111E0
2.043197148E1,1.105484009E0,1.015753174E1,3.206382394E-1
2.044863814E1,7.298108935E-1,1.019103146E1,9.092726111E-1
2.046530481E1,1.818545163E-1,1.127019501E1,1.493121386E0
2.048197148E1,-1.387837082E-1,1.119123173E1,1.375872970E0
2.049863814E1,-1.028913736E0,9.987641335E0,1.517049551E0
2.051530481E1,7.728816867E-1,8.398807526E0,1.433300734E0
2.053197147E1,3.830909014E0,6.348158360E0,6.364908218E-1
2.054863814E1,2.579462767E0,7.879564762E0,1.141376376E0
2.056530481E1,2.175075769E0,9.860821724E0,1.476371527E0
2.058197147E1,2.081755638E0,1.070788097E1,1.428515077E0
2.059863814E1,1.986042738E0,9.549755096E0,1.545763373E0
2.061530480E1,1.945364833E0,8.197810173E0,1.244267821E0
2.063197147E1,2.220539331E0,8.166703224E0,6.963114142E-1
2.064863814E1,2.478964329E0,8.523234367E0,1.459621787E-1
2.066530480E1,2.868994236E0,9.083154678E0,5.024927482E-2
2.068197147E1,2.234896421E0,9.018548965E0,6.628118753E-1
2.069863813E1,1.677368641E0,9.116654396E0,1.033699393E0
2.071530480E1,1.674975872E0,9.664610863E0,9.523434043E-1
2.073197147E1,1.739582062E0,9.963713646E0,9.547362328E-1
2.074863813E1,1.816152334E0,9.954142570E0,8.207381964E-1
2.076530480E1,2.155933142E0,9.937392235E0,5.240281820E-1
2.078197146E1,2.598605394E0,9.633503914E0,6.963114142E-1
2.079863813E1,2.261217356E0,8.997013092E0,5.144568682E-1
2.081530480E1,1.990828395E0,8.386843681E0,2.464607358E-1
2.083197146E1,1.849651933E0,8.264809608E0,1.220339537E-1
2.084863813E1,2.033899307E0,8.630910873E0,-7.417750359E-2
2.086530479E1,2.277967215E0,9.442078590E0,3.565305769E-1
2.088197146E1,1.854437590E0,1.023170948E1,8.015955687E-1
2.089863813E1,1.691725612E0,1.033460140E1,6.508477330E-1
2.091530479E1,2.251646042E0,9.602396965E0,5.407779217E-1
2.093197146E1,1.789831281E0,8.731410027E0,4.857429862E-1
2.094863812E1,1.643869162E0,8.690732002E0,5.048855543E-1
2.096530479E1,2.541177750E0,9.449256897E0,5.407779217E-1
2.098197146E1,2.416750908E0,1.009771156E1,1.404586911E0
2.099863812E1,2.167897224E0,1.023170948E1,1.316052437E0
2.101530479E1,2.148754835E0,9.970891953E0,8.255237937E-1
2.103197145E1,1.636690736E0,9.662218094E0,4.642075896E-1
2.104863812E1,7.728816867E-1,9.707681656E0,2.536391914E-1
2.106530479E1,6.101697683E-1,9.377471924E0,1.435693540E-2
2.108197145E1,2.328216314E0,9.475577354E0,-4.307080805E-1
2.109863812E1,3.022135019E0,9.420542717E0,-1.962114573E-1
2.111530478E1,2.931207657E0,9.681360245E0,-5.024927258E-1
2.113197145E1,3.419343472E0,9.159725189E0,-1.531406492E-1
2.114863812E1,3.613162279E0,8.980263710E0,1.368694544E0
2.116530478E1,3.541377544E0,9.918250084E0,2.249253243E-1
2.118197145E1,2.888136864E0,1.010728264E1,4.139583111E-1
2.119863811E1,2.158325911E0,1.011685371E1,3.326023519E-1
2.121530478E1,1.878365755E0,9.899106979E0,-4.187439680E-1
2.123197145E1,2.275574446E0,9.820143700E0,-3.541377485E-1
2.124863811E1,2.093719721E0,9.844072342E0,-3.996013701E-1
2.126530478E1,1.165304661E0,9.355937004E0,-5.048855543E-1
2.128197144E1,8.709874153E-1,8.793622971E0,-1.636690736E0
2.129863811E1,1.385444283E0,8.264809608E0,-1.701296926E0
2.131530478E1,2.431107759E0,7.915457249E0,-1.646261930E0
2.133197144E1,3.452843189E0,8.793622971E0,-6.604190469E-1
2.134863811E1,3.364308596E0,9.497113228E0,6.388836503E-1
2.136530477E1,2.739781857E0,8.961120605E0,1.002592683E0
2.138197144E1,2.443071842E0,8.161917686E0,1.036092162E0
2.139863811E1,1.998006940E0,8.233702660E0,7.633104324E-1
2.141530477E1,1.519442320E0,9.238688469E0,1.363908947E-1
2.143197144E1,1.773081541E0,1.010728264E1,-9.212366939E-1
2.144863810E1,2.136790514E0,1.012642574E1,-1.272981644E0
2.146530477E1,2.967100143E0,9.358329773E0,-1.284945726E0
2.148197144E1,3.768695593E0,9.035298347E0,-5.168496966E-1
2.149863810E1,3.749552965E0,9.418149948E0,-1.746760458E-1
2.151530477E1,3.670589924E0,9.645467758E0,8.374879509E-2
2.153197143E1,3.795016766E0,9.903892517E0,-3.517449200E-1
2.154863810E1,4.876572609E0,1.108116150E1,5.503492057E-2
2.156530477E1,5.965306759E0,1.169611740E1,1.835294962E0
2.158197143E1,5.481956482E0,1.105723381E1,2.505285263E0
2.159863810E1,3.845266104E0,1.059302616E1,-5.024927258E-1
2.161530476E1,5.161318302E0,1.064088249E1,-2.038684845E0
2.163197143E1,5.599205017E0,1.100219822E1,-8.015955687E-1
2.164863810E1,4.948357105E0,1.142572784E1,-9.571290761E-2
2.166530476E1,3.498306751E0,1.149512005E1,2.512463629E-1
2.168197143E1,2.584248543E0,1.056670475E1,7.776673436E-1
2.169863809E1,2.356930256E0,9.906285286E0,5.359922647E-1
2.171530476E1,2.656033039E0,9.887143135E0,6.628118753E-1
2.173197143E1,3.716053486E0,9.683753014E0,1.287338614E0
2.174863809E1,4.680361271E0,9.741181374E0,1.160519004E0
2.176530476E1,4.754538536E0,9.741181374E0,6.269195080E-1
2.178197142E1,4.919643402E0,9.456435204E0,-9.571290761E-2
2.179863809E1,5.000999451E0,8.633303642E0,-8.805587292E-1
2.181530476E1,5.103890896E0,7.948956966E0,-1.835294962E0
2.183197142E1,5.197210789E0,7.592426300E0,-2.589034081E0
2.184863809E1,5.436492920E0,7.702496052E0,-1.799402595E0
2.186530475E1,6.223731518E0,8.494520187E0,6.269195080E-1
2.188197142E1,6.137589931E0,9.552147865E0,4.819144726E0
2.189863809E1,5.536991596E0,1.061695385E1,7.917850018E0
2.191530475E1,4.465006828E0,9.982855797E0,4.000799656E0
2.193197142E1,4.065405846E0,9.032905579E0,6.005984545E-1
2.194863808E1,3.431307554E0,8.027919769E0,-1.251446247E0
2.196530475E1,3.292523861E0,7.628318787E0,-2.943171859E-1
2.198197142E1,3.988835335E0,8.283951759E0,7.968099117E-1
2.199863808E1,4.254438877E0,8.918049812E0,2.414358139E0
2.201530475E1,3.783052683E0,9.961320877E0,5.376672268E0
2.203197141E1,3.476771355E0,1.107398319E1,5.113461971E0
2.204863808E1,2.739781857E0,1.087777138E1,3.529413462E0
2.206530475E1,2.299502611E0,1.076052380E1,2.737389088E0
2.208197141E1,3.445664644E0,1.044467068E1,4.098905087E0
2.209863808E1,4.926821709E0,9.832108498E0,5.438885689E0
2.211530474E1,4.924428940E0,9.044869423E0,4.867001057E0
2.213197141E1,2.859423161E0,8.729017258E0,4.264009953E0
2.214863808E1,1.911865234E0,8.425128937E0,4.613361835E0
2.216530474E1,1.517049551E0,9.080761909E0,4.989035130E0
2.218197141E1,2.919243574E0,7.917850018E0,6.147161484E0
2.219863807E1,1.942971945E0,8.061419487E0,7.075576782E0
2.221530474E1,9.260223508E-1,6.111268997E0,5.879165173E0
2.223197141E1,-7.465606928E-1,4.804787636E0,2.892922640E0
2.224863807E1,-1.404586911E0,4.539184570E0,4.606183529E0
2.226530474E1,9.332008362E-1,4.601397991E0,4.642076015E0
2.228197140E1,2.883351326E0,2.543570518E0,7.238288403E0
2.229863807E1,2.232503414E0,3.273381472E0,5.639883041E0
2.231530474E1,6.532405615E-1,2.873780012E0,6.214160442E0
2.233197140E1,4.785645287E-3,1.935793519E0,5.498706341E0
2.234863807E1,-6.245267391E-1,8.422735929E-1,5.577669621E0
2.236530473E1,-1.067198873E0,1.756331801E0,5.757131100E0
2.238197140E1,-9.403793216E-1,3.543770313E0,6.683153629E0
2.239863807E1,-7.226324677E-1,4.804787636E0,6.664011002E0
2.241530473E1,-1.387837172E0,4.668396950E0,6.178267956E0
2.243197140E1,-1.966900229E0,3.060420275E0,6.226124287E0
2.244863806E1,-5.335994363E-1,1.926222205E0,4.852644444E0
2.246530473E1,-2.943171859E-1,2.012363911E0,4.826323509E0
2.248197140E1,-1.036092162E0,3.433700562E0,6.496513367E0
2.249863806E1,-1.686939955E0,4.546362877E0,1.000678444E1
2.251530473E1,4.785645381E-2,5.063212872E0,1.072941685E1
2.253197139E1,1.450050473E0,5.563312531E0,1.003549862E1
2.254863806E1,-3.589234054E-1,6.135197163E0,1.034895802E1
2.256530473E1,-2.723032236E0,7.578069210E0,1.136590767E1
2.258197139E1,-3.696911097E0,9.891928673E0,1.190429306E1
2.259863806E1,1.067198873E0,7.678567886E0,1.002592659E1
2.261530472E1,2.438286304E0,6.879364967E0,9.662218094E0
2.263197139E1,3.022135019E0,4.666004181E0,8.087740898E0
2.264863806E1,3.053241730E0,2.878565550E0,8.140382767E0
2.266530472E1,1.363908947E-1,7.862815380E0,1.144487095E1
2.268197139E1,9.810572863E-2,1.000199890E1,8.078168869E0
2.269863805E1,2.266003132E0,6.941578388E0,7.905886173E0
2.271530472E1,1.055234790E0,5.479563713E0,7.858029366E0
2.273197139E1,1.435693651E-1,4.618147850E0,8.185846329E0
2.274863805E1,2.632105052E-1,4.637290478E0,8.542376518E0
2.276530472E1,7.585247755E-1,5.017749310E0,8.250452042E0
2.278197138E1,5.790630579E-1,6.355337143E0,6.857829571E0
2.279863805E1,2.943171859E-1,6.809973240E0,8.827122688E0
2.281530472E1,-1.658226132E0,5.429314613E0,6.479763508E0
2.283197138E1,-9.140582681E-1,5.479563713E0,6.762116909E0
2.284863805E1,-1.694118381E0,2.864208698E0,5.852844238E0
2.286530471E1,-1.344766378E0,1.497906923E0,7.721638680E0
2.288197138E1,-1.112662554E0,-2.943171859E-1,8.020741463E0
2.289863805E1,-1.019342422E0,2.667997360E0,8.623732567E0
2.291530471E1,-2.225325108E-1,4.709074974E0,8.700303078E0
2.293197138E1,7.298108935E-1,5.826523304E0,9.147761345E0
2.294863804E1,4.019941986E-1,5.845665932E0,8.901300430E0
2.296530471E1,4.857429862E-1,5.469992638E0,9.939785004E0
2.298197138E1,8.039883971E-1,5.726024628E0,9.662218094E0
2.299863804E1,9.810572863E-1,5.924628735E0,9.559326172E0
2.301530471E1,1.000199914E0,6.204588890E0,8.736195564E0
2.303197137E1,9.020941257E-1,5.804987907E0,8.760123253E0
2.304863804E1,5.048855543E-1,4.692325115E0,8.640482903E0
2.306530471E1,-5.670989752E-1,3.541377544E0,8.544769287E0
2.308197137E1,-1.026520967E0,3.811766386E0,7.920242786E0
2.309863804E1,-7.417750359E-2,5.297709465E0,7.360322475E0
2.311530470E1,1.069591761E0,6.317051888E0,8.154739380E0
2.313197137E1,1.450050473E0,6.271588326E0,9.461220741E0
2.314863804E1,6.675975323E-1,6.017949104E0,8.472985268E0
2.316530470E1,5.551348329E-1,6.245266914E0,8.796015739E0
2.318197137E1,9.858429432E-1,6.463014126E0,8.190631866E0
2.319863803E1,1.241874933E0,6.034698486E0,8.049455643E0
2.321530470E1,7.752745152E-1,5.654240131E0,7.757531166E0
2.323197137E1,-2.751746178E-1,5.639883041E0,7.640282631E0
2.324863803E1,7.178467698E-3,6.312266350E0,7.054041386E0
2.326530470E1,1.339980721E0,7.281359196E0,6.431907177E0
2.328197136E1,1.954936147E0,6.752545357E0,6.924828529E0
2.329863803E1,2.510071039E0,6.206982136E0,8.145168304E0
2.331530470E1,1.663011789E0,6.003592014E0,8.774480820E0
2.333197136E1,6.149554253E-1,5.455635548E0,8.604590416E0
2.334863803E1,-5.216353536E-1,4.484149456E0,7.542177200E0
2.336530469E1,-8.733802438E-1,4.254438877E0,7.389036179E0
2.338197136E1,-9.762716293E-1,4.445864677E0,7.523034573E0
2.339863803E1,-9.260223508E-1,6.319444656E0,7.482356548E0
2.341530469E1,-6.795616150E-1,7.192824841E0,7.357929707E0
2.343197136E1,-3.038884699E-1,7.554141045E0,7.329215527E0
2.344863802E1,-2.392822644E-3,6.628118515E0,7.573283672E0
2.346530469E1,-5.264210105E-1,5.254638672E0,8.432307243E0
2.348197136E1,-1.265803218E0,4.869394302E0,8.551948547E0
2.349863802E1,-1.768295884E0,5.477170944E0,8.260024071E0
2.351530469E1,-2.225325108E0,6.405586243E0,8.245666504E0
2.353197135E1,-2.550748825E0,6.886543751E0,8.652446747E0
2.354863802E1,-3.371487141E0,6.862615108E0,8.824729919E0
2.356530469E1,-2.629712105E0,6.958328247E0,8.035098076E0
2.358197135E1,-1.995614052E0,6.659225464E0,7.554141045E0
2.359863802E1,-1.641476393E0,5.900700569E0,7.401000500E0
2.361530468E1,-1.591227055E0,5.515456200E0,7.874779224E0
2.363197135E1,-1.299302697E0,6.386443615E0,7.867600918E0
2.364863802E1,-1.110269666E0,7.068397999E0,7.508677483E0
2.366530468E1,-5.144568682E-1,6.532405853E0,7.738388538E0
2.368197135E1,-7.322037220E-1,6.180660725E0,8.008777618E0
2.369863801E1,-7.944171429E-1,6.032305717E0,7.953742504E0
2.371530468E1,-2.081755698E-1,5.469992638E0,7.781459332E0
2.373197135E1,1.339980662E-1,4.845465660E0,7.920242786E0
2.374863801E1,3.876372576E-1,4.620540619E0,7.616354465E0
2.376530468E1,3.278166950E-1,5.295316696E0,7.195217609E0
2.378197134E1,5.144568682E-1,5.613562107E0,7.546962738E0
2.379863801E1,-2.464607358E-1,4.898108006E0,8.056633949E0
2.381530468E1,-1.433300734E0,5.216353416E0,7.968099594E0
2.383197134E1,-1.359123230E0,6.094519138E0,7.379465103E0
2.384863801E1,-5.527420044E-1,6.384050846E0,7.800601959E0
2.386530467E1,-6.723831892E-1,5.824130535E0,8.224131584E0
2.388197134E1,-1.031306505E0,6.082555294E0,8.618947029E0
2.389863801E1,-2.067398787E0,6.266802311E0,8.554341316E0
2.391530467E1,-3.144168854E0,6.266802311E0,8.499305725E0
2.393197134E1,-2.794816732E0,6.376872540E0,7.716853142E0
2.394863800E1,-2.038684845E0,6.199803352E0,8.303094864E0
2.396530467E1,-1.674975827E-2,6.041877270E0,8.051848412E0
2.398197134E1,-7.417750359E-1,4.582255363E0,8.762516975E0
2.399863800E1,-1.935793519E0,4.730610371E0,9.884750366E0
2.401530467E1,-2.132004976E0,5.623133183E0,9.810572624E0
2.403197133E1,-1.610369682E0,6.716653347E0,9.073583603E0
2.404863800E1,-3.996013701E-1,7.135396957E0,8.461020470E0
2.406530467E1,-3.014956415E-1,6.474977970E0,8.307880402E0
2.408197133E1,-2.967100143E-1,5.620740414E0,7.960920811E0
2.409863800E1,-1.194018483E0,4.488935471E0,8.197810173E0
2.411530466E1,-1.706082582E0,4.670789719E0,7.953742504E0
2.413197133E1,-1.395015597E0,4.503292084E0,7.757531166E0
2.414863800E1,-8.757730722E-1,4.228117466E0,7.324429989E0
2.416530466E1,-6.891329288E-1,4.043870449E0,7.611568928E0
2.418197133E1,-1.119840980E0,3.864408493E0,7.862815380E0
2.419863799E1,-1.555334687E0,4.441078663E0,8.133204460E0
2.421530466E1,-1.019342422E0,5.314459324E0,8.209774017E0
2.423197133E1,-7.322037220E-1,5.819344521E0,8.190631866E0
2.424863799E1,-1.052841991E-1,6.290730953E0,8.456234932E0
2.426530466E1,-1.076770186E0,5.860022545E0,9.530612946E0
2.428197132E1,-1.631905079E0,6.171089649E0,9.487542152E0
2.429863799E1,-1.368694544E0,7.156932354E0,9.238688469E0
2.431530466E1,-6.939185858E-1,6.783652306E0,8.530412674E0
2.433197132E1,-6.963114142E-1,5.982056618E0,7.824530125E0
2.434863799E1,-8.470591903E-1,5.149354458E0,7.707281590E0
2.436530465E1,-7.322037220E-1,4.790431023E0,7.759923935E0
2.438197132E1,-5.216353536E-1,4.972285271E0,7.984848976E0
2.439863799E1,-7.585247755E-1,4.302295208E0,8.310273170E0
2.441530465E1,-4.977070987E-1,4.208974838E0,7.389036179E0
2.443197132E1,-1.722832322E0,4.905286312E0,8.288737297E0
2.444863798E1,-2.347358942E0,4.912465096E0,8.477770805E0
2.446530465E1,-1.473978758E0,5.127819061E0,8.097311974E0
2.448197132E1,-6.221339107E-1,5.412564754E0,8.061419487E0
2.449863798E1,-5.551348329E-1,6.405586243E0,8.592626572E0
2.451530465E1,-8.159525394E-1,6.247660160E0,8.752944946E0
2.453197131E1,-8.853443861E-1,6.123233318E0,9.152546883E0
2.454863798E1,-7.010970116E-1,7.326822758E0,9.836894035E0
2.456530465E1,2.967100143E-1,6.221338749E0,8.798408508E0
2.458197131E1,-1.746760458E-1,7.044469833E0,8.049455643E0
2.459863798E1,4.067798555E-1,5.699703693E0,6.826723099E0
2.461530464E1,1.380658627E0,5.199603558E0,6.836294174E0
2.463197131E1,4.474578202E-1,5.666203976E0,7.049255371E0
2.464863798E1,-6.699903607E-1,6.549155712E0,7.054041386E0
2.466530464E1,-5.838487148E-1,6.245266914E0,6.999006271E0
2.468197131E1,-1.179661512E0,5.687739372E0,6.826723099E0
2.469863797E1,-4.331009090E-1,5.864808083E0,5.898307800E0
2.471530464E1,-7.417750359E-2,5.472385406E0,6.537191391E0
2.473197131E1,2.847459018E-1,5.761917114E0,7.381857872E0
2.474863797E1,-7.178467698E-3,6.297909260E0,6.793223381E0
2.476530464E1,5.359922647E-1,7.855636597E0,6.183053493E0
2.478197130E1,1.708475351E0,7.776673794E0,6.482156754E0
2.479863797E1,2.026720762E0,6.446264267E0,7.101897717E0
2.481530464E1,7.465606928E-1,6.161518097E0,6.656832695E0
2.483197130E1,1.232303619E0,6.321837425E0,6.666403770E0
2.484863797E1,2.139183521E0,5.747560024E0,7.319644451E0
2.486530463E1,8.135597110E-1,7.128218651E0,7.929814339E0
2.488197130E1,1.244267747E-1,9.169296265E0,8.018348694E0
2.489863797E1,1.459621787E-1,9.580862045E0,7.877171993E0
2.491530463E1,2.153540403E-2,7.676175117E0,7.745566845E0
2.493197130E1,1.148554832E-1,5.977271080E0,7.365108013E0
2.494863796E1,-4.426721931E-1,5.615954876E0,7.750352383E0
2.496530463E1,-8.757730722E-1,5.814558983E0,6.893722057E0
2.498197130E1,-1.127019525E0,8.152346611E0,7.219145775E0
2.499863796E1,-1.050449133E0,8.470592499E0,8.018348694E0
2.501530463E1,-9.092726111E-1,8.705088615E0,7.977670670E0
2.503197129E1,-4.091726840E-1,7.755138397E0,7.791030407E0
2.504863796E1,-5.575276613E-1,6.369693756E0,7.580461979E0
2.506530463E1,-8.853443861E-1,6.293123722E0,7.063612461E0
2.508197129E1,-8.829515576E-1,6.599404812E0,6.867401123E0
2.509863796E1,-1.024128079E0,6.687939167E0,6.795616150E0
2.511530462E1,-9.499505758E-1,6.501298904E0,6.893722057E0
2.513197129E1,-2.823530734E-1,6.798008919E0,6.338587284E0
2.514863796E1,-1.378265858E0,5.496313572E0,6.561119556E0
2.516530462E1,-3.732803464E-1,5.410171986E0,6.431907177E0
2.518197129E1,1.244267747E-1,5.948556900E0,7.061219692E0
2.519863795E1,-1.196411345E-2,6.886543751E0,7.932207108E0
2.521530462E1,-8.063812256E-1,7.073183537E0,8.580661774E0
2.523197129E1,-1.385444283E0,8.128418922E0,8.693124771E0
2.524863795E1,-1.636690736E0,8.714659691E0,8.037490845E0
2.526530462E1,-1.670190215E0,8.336593628E0,7.015756130E0
2.528197128E1,-9.284151793E-1,7.721638680E0,6.991827965E0
2.529863795E1,-4.019941986E-1,6.697510719E0,6.685546398E0
2.531530462E1,-1.222732425E0,5.292923450E0,7.329215527E0
2.533197128E1,-1.950150490E0,4.950749874E0,6.905686378E0
2.534863795E1,-1.887937069E0,4.867001057E0,6.747759819E0
2.536530461E1,-1.318445325E0,5.271388054E0,6.096911907E0
2.538197128E1,-1.201196909E0,5.525027275E0,6.570691109E0
2.539863795E1,-1.237089276E0,5.737988472E0,7.975277901E0
2.541530461E1,-1.789831281E0,6.104090691E0,8.812766075E0
2.543197128E1,-2.344966173E0,7.841279984E0,8.293522835E0
2.544863794E1,-2.244467735E0,8.032705307E0,7.585247993E0
2.546530461E1,-1.562513232E0,7.056434155E0,6.824330330E0
2.548197128E1,-9.619147182E-1,5.553741455E0,6.211767673E0
2.549863794E1,-7.082754970E-1,5.735595703E0,5.687739372E0
2.551530461E1,-1.067198873E0,6.120840549E0,7.106683254E0
2.553197127E1,-8.877372146E-1,5.733202934E0,7.281359196E0
2.554863794E1,-1.969292998E0,6.494120598E0,7.357929707E0
2.556530461E1,-1.160519004E0,6.786045074E0,6.187839508E0
2.558197127E1,-1.481157184E0,5.836094379E0,7.202396393E0
2.559863794E1,-1.301695466E0,5.091926575E0,7.740781307E0
2.561530460E1,-1.143769264E0,6.403193474E0,7.793423176E0
2.563197127E1,-2.206182480E0,8.441878319E0,7.233502865E0
2.564863794E1,-2.481357098E0,8.279166222E0,7.355536938E0
2.566530460E1,-2.524427891E0,6.769295216E0,8.130811691E0
2.568197127E1,-2.342573404E0,6.608976364E0,7.685746193E0
2.569863793E1,-9.858429432E-1,6.742974281E0,6.637690067E0
2.571530460E1,-1.392622828E0,6.204588890E0,6.692724705E0
2.573197127E1,-1.268195987E0,5.527420521E0,6.233303070E0
2.574863793E1,-1.529013634E0,4.967499733E0,6.647261143E0
2.576530460E1,-2.242074728E0,5.601597786E0,7.209574699E0
2.578197126E1,-2.024327993E0,6.776473522E0,6.721438885E0
2.579863793E1,-2.081755638E0,8.068597794E0,6.374479294E0
2.581530460E1,-1.856830359E0,9.071190834E0,7.118647575E0
2.583197126E1,-3.139383316E0,8.322237015E0,8.420342445E0
2.584863793E1,-3.713660717E0,7.838887215E0,6.824330330E0
2.586530459E1,-2.658426046E0,6.805187702E0,5.245067120E0
2.588197126E1,-7.896314561E-2,5.668596745E0,3.711267948E0
2.589863793E1,-1.411765337E0,4.752145767E0,5.381458282E0
2.591530459E1,-2.768495798E0,5.443671703E0,7.934599876E0
2.593197126E1,-1.698904037E0,9.205188751E0,8.142775536E0
2.594863792E1,-1.639083505E0,1.084905815E1,7.298109055E0
2.596530459E1,-2.421536446E0,9.075976372E0,6.900900364E0
2.598197126E1,-2.493321180E0,8.516056061E0,6.348158360E0
2.599863792E1,-1.600798368E0,8.303094864E0,6.163911343E0
2.601530459E1,5.551348329E-1,8.360522270E0,5.697310925E0
2.603197125E1,-9.044869542E-1,7.487142086E0,5.611168861E0
2.604863792E1,-1.651047587E0,8.946763992E0,4.398007870E0
2.606530459E1,-2.160718918E0,9.645467758E0,5.087141037E0
2.608197125E1,-2.792423964E0,7.391428947E0,4.984249592E0
2.609863792E1,-2.538784742E0,7.219145775E0,4.644468784E0
2.611530458E1,-2.361716032E0,6.838686943E0,4.826323509E0
2.613197125E1,-5.407779217E-1,7.183253765E0,3.883551121E0
2.614863792E1,-1.083948612E0,6.989434719E0,4.838287354E0
2.616530458E1,-1.339980721E0,7.006184578E0,6.482156754E0
2.618197125E1,-1.294517040E0,8.434700012E0,5.706882000E0
2.619863791E1,-1.694118381E0,9.372686386E0,4.307080746E0
2.621530458E1,-3.239881754E0,9.927821159E0,6.130411625E0
2.623197125E1,-4.599005222E0,9.576076508E0,5.472385406E0
2.624863791E1,-2.517249346E0,9.573683739E0,3.093919754E0
2.626530458E1,-1.043270707E0,9.501898766E0,2.419143677E0
2.628197124E1,-1.392622828E0,6.793223381E0,1.890329838E0
2.629863791E1,-1.220339537E0,4.989035130E0,2.419143677E0
2.631530458E1,-7.824530005E-1,3.818944931E0,5.276174068E0
2.633197124E1,6.364908218E-1,4.120440483E0,5.371886730E0
2.634863791E1,3.349951804E-1,6.080162525E0,4.029513359E0
2.636530457E1,-1.995614052E0,9.183652878E0,6.051448345E0
2.638197124E1,-4.019941807E0,1.204068375E1,5.505885124E0
2.639863791E1,-4.859822750E0,1.404108334E1,4.232903481E0
2.641530457E1,-7.386643410E0,1.316291714E1,3.627519131E0
2.643197124E1,-5.170889854E0,1.149272728E1,4.816751957E0
2.644863790E1,-4.177868366E0,1.083709335E1,6.034698486E0
2.646530457E1,-3.263810158E0,1.124148083E1,5.742774487E0
2.648197124E1,-1.921436548E0,1.119601727E1,4.156332970E0
2.649863790E1,-1.531406522E0,8.666803360E0,4.460221291E0
2.651530457E1,-1.481157184E0,7.570890903E0,4.201796532E0
2.653197123E1,-2.306680918E0,6.486942291E0,4.735395908E0
2.654863790E1,-2.368894339E0,6.333801746E0,4.766502857E0
2.656530457E1,-1.564906001E0,7.511070251E0,4.462614059E0
2.658197123E1,-1.758724689E0,8.573483467E0,3.665804386E0
2.659863790E1,-2.474178553E0,8.228917122E0,2.780459881E0
2.661530456E1,-2.333002090E0,8.350951195E0,2.943171740E0
2.663197123E1,-1.670190215E0,8.652446747E0,3.826123476E0
2.664863790E1,-2.215753794E0,8.260024071E0,3.974478483E0
2.666530456E1,-1.919043779E0,9.233902931E0,3.373879910E0
2.668197123E1,-1.689332843E0,9.817750931E0,3.160918713E0
2.669863789E1,-1.840080619E0,8.501698494E0,3.708875179E0
2.671530456E1,-1.562513232E0,7.152146816E0,3.826123476E0
2.673197123E1,-1.502692580E0,7.843672752E0,3.029313564E0
2.674863789E1,-1.579262972E0,8.776873589E0,4.591826439E0
2.676530456E1,-1.610369682E0,7.446464062E0,4.498506546E0
2.678197122E1,-1.921436548E0,7.532605648E0,4.436293125E0
2.679863789E1,-2.237289190E0,7.582854748E0,4.443471432E0
2.681530456E1,-2.232503414E0,7.128218651E0,4.874179840E0
2.683197122E1,-2.160718918E0,7.185646534E0,5.536991596E0
2.684863789E1,-2.024327993E0,7.767102242E0,6.068198204E0
2.686530455E1,-2.041077614E0,8.657232285E0,6.317051888E0
2.688197122E1,-2.378465652E0,8.987442017E0,5.352744102E0
2.689863789E1,-3.826123476E0,8.547162056E0,4.551148891E0
2.691530455E1,-4.529613495E0,7.927421570E0,6.132804394E0
2.693197122E1,-4.498506546E0,7.920242786E0,5.091926575E0
2.694863788E1,-3.328416348E0,8.554341316E0,5.422136307E0
2.696530455E1,-2.122433662E0,8.568697929E0,4.350151539E0
2.698197122E1,-2.129612207E0,7.499105930E0,4.608576298E0
2.699863788E1,-3.036491871E0,7.401000500E0,4.969892502E0
2.701530455E1,-2.634497643E0,7.855636597E0,5.556134224E0
2.703197121E1,-1.902294040E0,8.025527000E0,5.525027275E0
2.704863788E1,-1.789831281E0,8.578269005E0,5.003392220E0
2.706530455E1,-1.495514154E0,9.052047729E0,4.682754040E0
2.708197121E1,-1.079162955E0,8.532805443E0,4.878965378E0
2.709863788E1,-1.684547186E0,7.977670670E0,5.946164131E0
2.711530454E1,-2.347358942E0,7.740781307E0,6.072983742E0
2.713197121E1,-1.823330879E0,7.073183537E0,5.383851051E0
2.714863788E1,-1.933400750E0,6.845865726E0,4.905286312E0
2.716530454E1,-2.151147604E0,7.561319351E0,4.151547432E0
2.718197121E1,-1.158126116E0,7.491927624E0,4.704289436E0
2.719863787E1,-7.130611539E-1,6.434299946E0,5.599205017E0
2.721530454E1,-2.184647083E0,7.367500782E0,5.620740414E0
2.723197121E1,-2.029113531E0,9.035298347E0,5.611168861E0
2.724863787E1,-2.232503414E0,8.338987350E0,5.974878311E0
2.726530454E1,-2.167897224E0,8.975478172E0,5.345565796E0
2.728197120E1,-9.810572863E-1,8.327022552E0,4.984249592E0
2.729863787E1,-1.591227055E0,6.984649181E0,5.611168861E0
2.731530454E1,-2.560320139E0,7.456035137E0,6.680760860E0
2.733197120E1,-2.277967215E0,7.860422611E0,6.087340832E0
2.734863787E1,-2.206182480E0,7.616354465E0,5.187639713E0
2.736530453E1,-2.043470621E0,7.168896675E0,4.579862595E0
2.738197120E1,-2.483749866E0,5.608776093E0,4.780859470E0
2.739863787E1,-2.196611166E0,4.709074974E0,5.615954876E0
2.741530453E1,-1.835294962E0,4.658825874E0,5.754738331E0
2.743197120E1,-2.677568436E0,6.570691109E0,5.496313572E0
2.744863786E1,-2.215753794E0,8.776873589E0,4.876572609E0
2.746530453E1,-1.765903115E0,9.418149948E0,5.058426857E0
2.748197120E1,-1.670190215E0,9.674181938E0,5.611168861E0
2.749863786E1,-1.648654819E0,9.322437286E0,5.252245903E0
2.751530453E1,-2.648854733E0,9.080761909E0,5.903093338E0
2.753197119E1,-3.120240688E0,9.217152596E0,6.096911907E0
2.754863786E1,-2.921636343E0,9.008976936E0,5.962913990E0
2.756530453E1,-2.462214470E0,9.035298347E0,6.029912949E0
2.758197119E1,-1.538584948E0,1.042313576E1,6.838686943E0
2.759863786E1,-1.373480201E0,1.092084217E1,8.391629219E0
2.761530452E1,-2.344966173E0,1.196172047E1,6.573083878E0
2.763197119E1,-2.431107759E0,1.057388306E1,5.371886730E0
2.764863786E1,-2.239681959E0,6.967899323E0,5.166104317E0
2.766530452E1,-1.873580098E0,4.658825874E0,4.496113777E0
2.768197119E1,-1.780260086E0,4.204189301E0,3.830909014E0
2.769863785E1,-1.105484009E0,4.266402721E0,3.218346357E0
2.771530452E1,-1.887937069E0,4.441078663E0,4.747360229E0
2.773197119E1,-2.895315409E0,4.730610371E0,5.343173027E0
2.774863785E1,-3.058027267E0,6.790830612E0,5.769095421E0
2.776530452E1,-1.942971945E0,9.095118523E0,4.663611412E0
2.778197118E1,-1.406979680E0,8.456234932E0,3.553341627E0
2.779863785E1,-2.988635540E0,6.491727829E0,4.747360229E0
2.781530452E1,-4.017549038E0,4.790431023E0,4.244867325E0
2.783197118E1,-3.675375462E0,4.185046673E0,5.283352375E0
2.784863785E1,-1.373480201E0,5.855237007E0,3.694518089E0
2.786530451E1,-3.871587038E0,7.424928665E0,6.611369133E0
2.788197118E1,-5.666203976E0,9.975677490E0,1.195932770E1
2.789863785E1,-5.379065514E0,1.335195065E1,1.145444202E1
2.791530451E1,-1.978864312E0,1.757288933E1,7.094718933E0
2.793197118E1,-1.208375454E0,1.852762604E1,4.642076015E0
2.794863784E1,-2.816352367E0,1.271545982E1,5.570491314E0
2.796530451E1,-2.734996319E0,7.898707390E0,5.898307800E0
2.798197118E1,-2.167897224E0,5.912664890E0,4.220939159E0
2.799863784E1,-9.379864931E-1,5.283352375E0,2.646461725E0
2.801530451E1,-9.810572863E-2,5.149354458E0,2.385644197E0
2.803197117E1,2.727817893E-1,4.417150497E0,2.924029350E0
2.804863784E1,-6.628118753E-1,3.359523058E0,4.287938118E0
2.806530451E1,-1.256231904E0,3.306880951E0,5.367101192E0
2.808197117E1,-2.679961324E-1,5.728417397E0,5.204389095E0
2.809863784E1,7.657032460E-2,8.563912392E0,3.369094372E0
2.811530450E1,-1.818545163E-1,1.019342422E1,1.540977836E0
2.813197117E1,-6.747759581E-1,1.117926693E1,-3.397808075E-1
2.814863784E1,-2.033899307E0,7.085147858E0,1.162911773E0
2.816530450E1,-3.256631613E0,4.077369690E0,9.140582681E-1
2.818197117E1,-1.141376376E0,2.761317253E0,3.541377544E0
2.819863783E1,1.457229018E0,2.237289190E0,3.692125320E0
2.821530450E1,1.773081541E0,4.266402721E0,3.847658873E0
2.823197117E1,6.891329288E-1,6.405586243E0,5.130211830E0
2.824863783E1,7.178467698E-3,7.836493969E0,4.398007870E0
2.826530450E1,-3.524627686E0,1.046381378E1,5.024927616E0
2.828197116E1,-4.287938118E0,1.241635704E1,3.560520172E0
2.829863783E1,-4.725824833E0,1.207179070E1,2.969492912E0
2.831530450E1,-6.623332977E0,1.409851074E1,5.185246468E0
2.833197116E1,-5.584847927E0,1.127737331E1,4.433900356E0
2.834863783E1,-4.481756687E0,1.162193966E1,6.888936520E0
2.836530449E1,-4.115654945E0,1.259821129E1,5.355136871E0
2.838197116E1,-3.921836376E0,1.395733452E1,6.257231236E0
2.839863783E1,-3.936193228E0,1.335195065E1,8.429914474E0
2.841530449E1,-2.947957516E0,1.655594063E1,3.668197155E0
2.843197116E1,-3.220739365E0,1.438086414E1,5.142175674E0
2.844863782E1,-2.529213428E0,8.238488197E0,4.328616142E0
2.846530449E1,-3.529413462E0,5.154139996E0,4.252045631E0
2.848197116E1,-3.259024382E0,5.575276852E0,4.230510235E0
2.849863782E1,-1.531406522E0,7.745566845E0,2.928814888E0
2.851530449E1,-8.757730722E-1,6.888936520E0,5.139782906E0
2.853197115E1,-1.131805062E0,5.867201328E0,4.510470867E0
2.854863782E1,-2.373680115E0,5.388636589E0,4.807180882E0
2.856530449E1,-5.824130535E0,7.874779224E0,6.324230194E0
2.858197115E1,-4.467400074E0,1.135394382E1,4.553541660E0
2.859863782E1,-1.950150490E0,1.337109280E1,1.239482164E0
2.861530448E1,4.905286431E-1,1.381855106E1,-1.146162033E0
2.863197115E1,-8.453842163E0,8.453842163E0,1.434257889E1
2.864863782E1,-9.480362892E0,1.292842102E1,8.614161491E0
2.866530448E1,-3.448057413E0,2.586880493E1,6.223731518E0
2.868197115E1,-3.397808075E0,2.549791718E1,3.170490026E0
2.869863781E1,-6.759724140E0,1.383051491E1,7.226324558E0
2.871530448E1,-5.072783947E0,1.043031406E1,6.582654953E0
2.873197115E1,-4.041477680E0,8.480163574E0,4.333401680E0
2.874863781E1,-3.948157310E0,6.381658077E0,2.739781857E0
2.876530448E1,-1.368694544E0,4.869394302E0,3.172882795E0
2.878197114E1,2.043470621E0,3.677768469E0,2.342573404E0
2.879863781E1,3.146561861E0,7.010970116E-1,8.374879360E-1
2.881530448E1,7.058826685E-1,-4.433900356E0,5.661418438E0
2.883197114E1,1.170090318E0,-4.170690060E0,4.675575256E0
2.884863781E1,8.853443712E-2,-2.261217356E0,3.584448338E0
2.886530447E1,-2.179861546E0,2.203789711E0,1.593619823E0
2.888197114E1,-2.742174864E0,5.379065514E0,2.129612207E0
2.889863781E1,-3.388236761E0,8.762516975E0,4.615755081E0
2.891530447E1,-4.390829563E0,1.201436234E1,5.314459324E0
2.893197114E1,-7.094718933E0,1.499103355E1,6.221338749E0
2.894863780E1,-7.243073940E0,1.399561977E1,6.307480335E0
2.896530447E1,-6.628118515E0,1.049731255E1,6.436692715E0
2.898197114E1,-4.618147850E0,6.092126369E0,6.680760860E0
2.899863780E1,-2.457428932E0,2.234896421E0,4.711467743E0
2.901530447E1,-8.805587292E-1,6.221338734E-2,4.543970108E0
2.903197113E1,-1.734796405E0,-4.450650215E-1,4.180261135E0
2.904863780E1,-3.818944931E0,1.107876897E0,3.077169895E0
2.906530447E1,-4.548755646E0,4.931607246E0,4.654039860E0
2.908197113E1,-5.225924492E0,9.109476089E0,4.146761417E0
2.909863780E1,-4.716253281E0,1.173679543E1,3.323630571E0
2.911530446E1,-3.634697676E0,1.299541950E1,4.299902439E0
2.913197113E1,-3.239881754E0,1.073898792E1,2.947957516E0
2.914863780E1,-2.842673302E0,7.549355507E0,2.510071039E0
2.916530446E1,-2.493321180E0,5.819344521E0,3.419343472E0
2.918197113E1,-2.825923443E0,6.029912949E0,5.295316696E0
2.919863779E1,-1.785045743E0,7.542177200E0,4.132404804E0
2.921530446E1,-8.231309652E-1,1.019820976E1,4.917250633E0
2.923197113E1,6.699903607E-1,1.171525955E1,3.694518089E0
2.924863779E1,1.124626637E0,1.188754272E1,3.658625841E0
2.926530446E1,3.924229145E-1,1.088734341E1,4.098905087E0
2.928197112E1,-6.987041831E-1,1.113619614E1,4.654039860E0
2.929863779E1,-1.342373490E0,1.203111267E1,4.953142643E0
2.931530446E1,-1.727617979E0,1.289970684E1,3.854837179E0
2.933197112E1,-8.279166222E-1,1.331845093E1,2.644068956E0
2.934863779E1,-1.818545163E-1,1.214596748E1,3.491128206E0
2.936530445E1,8.614161611E-1,1.073659515E1,3.206382275E0
2.938197112E1,1.820937991E0,9.774680138E0,3.352344513E0
2.939863779E1,1.749153376E0,9.370293617E0,1.990828395E0
2.941530445E1,-4.785645306E-1,1.082034397E1,2.009970903E0
2.943197112E1,-1.428515077E0,1.238285732E1,3.883551121E0
2.944863778E1,-1.055234790E0,1.111944675E1,4.086941242E0
2.946530445E1,-1.184447169E0,1.042792130E1,3.144168854E0
2.948197112E1,-1.124626622E-1,1.102612686E1,2.938386202E0
2.949863778E1,-2.967100143E-1,1.064566803E1,3.634697676E0
2.951530445E1,-1.328016520E0,9.748359680E0,3.139383316E0
2.953197111E1,-9.882357717E-1,9.667003632E0,1.739582062E0
2.954863778E1,4.067798331E-2,1.035135078E1,9.212366939E-1
2.956530445E1,2.560320139E0,1.127976608E1,3.409772158E0
2.958197111E1,3.704089403E0,1.323470211E1,4.070191383E0
2.959863778E1,2.074577332E0,1.422293758E1,5.486742496E0
2.961530444E1,-1.105484009E0,1.250967693E1,6.171089649E0
2.963197111E1,-3.077169895E0,1.059302616E1,4.307080746E0
2.964863778E1,-4.144368649E0,9.956535339E0,4.881358147E-1
2.966530444E1,-2.797209740E0,6.709474564E0,-3.053241730E0
2.968197111E1,-3.345165968E0,5.647061348E0,-2.234896421E0
2.969863777E1,-6.008377552E0,6.606583118E0,1.727617979E0
2.971530444E1,-7.343572617E0,8.245666504E0,4.333401680E0
2.973197111E1,-2.471785784E0,9.607182503E0,4.917250633E0
2.974863777E1,1.674975902E-1,9.812965393E0,4.730610371E0
2.976530444E1,-1.636690736E0,9.075976372E0,5.338387489E0
2.978197110E1,-2.158325911E0,8.382058144E0,3.847658873E0
2.979863777E1,-3.005385160E0,7.554141045E0,2.438286304E0
2.981530444E1,-2.495713949E0,7.276573658E0,3.830909014E0
2.983197110E1,-1.780260086E0,7.936992645E0,3.940979004E0
2.984863777E1,-2.854637384E0,8.810373306E0,4.426722050E0
2.986530443E1,-4.938786030E0,9.700503349E0,4.309473515E0
2.988197110E1,-4.859822750E0,1.008335495E1,4.934000492E0
2.989863777E1,-4.249652863E0,9.061619759E0,4.654039860E0
2.991530443E1,-3.168097258E0,8.367700577E0,3.759124279E0
2.993197110E1,-2.718246460E0,8.221738815E0,2.294716835E0
2.994863776E1,-1.952543259E0,8.126026154E0,5.426921844E0
2.996530443E1,-4.003192425E0,7.408178806E0,3.426522017E0
2.998197110E1,-5.008177757E0,8.310273170E0,4.034298897E0
2.999863776E1,-4.577469826E0,8.927620888E0,5.474778175E0
3.001530443E1,-4.898108006E0,1.016471100E1,4.560719967E0
3.003197109E1,-3.287738323E0,7.848458290E0,-1.122233868E0
3.004863776E1,-9.762716293E-1,1.730010748E0,4.376472473E0
3.006530443E1,-9.714859724E-1,-1.457229018E0,7.862815380E0
3.008197109E1,-1.658226132E0,4.728217602E0,2.036292076E0
3.009863776E1,-2.407179594E0,3.785445452E0,3.275774240E0
3.011530442E1,-2.842673302E0,4.555934429E0,3.974478483E0
3.013197109E1,-2.471785784E0,5.615954876E0,2.689532757E0
3.014863776E1,-2.904886723E0,6.987041950E0,2.574677229E0
3.016530442E1,-3.866801500E0,8.434700012E0,3.809373617E0
3.018197109E1,-4.649254322E0,8.817551613E0,2.443071842E0
3.019863775E1,-4.287938118E0,8.927620888E0,2.794816732E0
3.021530442E1,-3.323630571E0,8.243273735E0,4.237689018E0
3.023197109E1,-2.935993433E0,5.924628735E0,3.610769272E0
3.024863775E1,-2.648854733E0,3.634697676E0,2.598605394E0
3.026530442E1,-3.038884640E0,3.656233072E0,3.799802303E0
3.028197108E1,-3.567698479E0,5.125426292E0,4.567898273E0
3.029863775E1,-4.029513359E0,7.348358154E0,4.546362877E0
3.031530442E1,-4.424329281E0,9.865608215E0,4.230510235E0
3.033197108E1,-4.476971149E0,1.110748291E1,2.900100946E0
3.034863775E1,-5.079962254E0,1.020538902E1,2.483749866E0
3.036530441E1,-4.460221291E0,9.669396400E0,1.916650891E0
3.038197108E1,-3.153740168E0,9.678967476E0,3.543770313E0
3.039863775E1,-2.756531715E0,9.262616158E0,2.074577332E0
3.041530441E1,-1.095912814E0,9.939785004E0,2.088934183E0
3.043197108E1,5.024927482E-2,1.110987568E1,2.644068956E0
3.044863774E1,-7.441678643E-1,1.185165024E1,1.722832322E0
3.046530441E1,3.254238665E-1,1.217946720E1,1.000199914E0
3.048197108E1,1.308874011E0,1.219382381E1,1.938186288E0
3.049863774E1,1.220339537E0,1.194018459E1,2.773281336E0
3.051530441E1,1.445264935E0,1.208136177E1,2.694318295E0
3.053197107E1,6.508477330E-1,1.137069321E1,2.536391973E0
3.054863774E1,2.392822690E-2,1.059063339E1,2.356930256E0
3.056530441E1,-1.354337573E0,1.109791183E1,2.744567633E0
3.058197107E1,-9.810572863E-1,1.240678501E1,3.460021496E0
3.059863774E1,0.000000000E0,1.091844940E1,2.928814888E0
3.061530440E1,-5.312066078E-1,1.098544884E1,2.701496840E0
3.063197107E1,1.122233868E0,9.975677490E0,3.294916868E0
3.064863774E1,2.203789711E0,1.055952644E1,3.811766386E0
3.066530440E1,1.574477315E0,1.187557888E1,3.713660717E0
3.068197107E1,9.260223508E-1,1.089691448E1,3.268595695E0
3.069863773E1,9.236295223E-1,1.053559780E1,3.019742250E0
3.071530440E1,7.417750359E-2,1.008096218E1,1.897508383E0
3.073197107E1,-9.834501147E-1,9.863214493E0,2.306680918E0
3.074863773E1,-1.349551916E0,9.446864128E0,2.490928411E0
3.076530440E1,-1.203589797E0,9.542576790E0,1.701296926E0
3.078197106E1,-1.639083505E0,9.391828537E0,1.682154298E0
3.079863773E1,-1.406979680E0,1.075813103E1,2.586641312E0
3.081530440E1,-1.395015597E0,1.185643578E1,3.034099102E0
3.083197106E1,-1.024128079E0,1.010488987E1,1.651047587E0
3.084863773E1,-3.050848961E0,9.635896683E0,1.856830359E0
3.086530439E1,-5.005784988E0,1.019820976E1,2.096112728E0
3.088197106E1,-3.270988464E0,9.501898766E0,2.177468538E0
3.089863773E1,-2.378465652E0,8.370093346E0,1.380658627E0
3.091530439E1,-2.478964329E0,7.628318787E0,4.287938118E0
3.093197106E1,-1.057627559E0,7.319644451E0,4.405186653E0
3.094863772E1,-5.431707501E-1,6.599404812E0,3.565305710E0
3.096530439E1,-1.495514154E0,5.852844238E0,2.330609322E0
3.098197106E1,-1.347159147E0,6.857829571E0,2.699103832E0
3.099863772E1,-2.187039852E0,8.149953842E0,3.395415306E0
3.101530439E1,-3.436093330E0,1.003071213E1,3.862015724E0
3.103197105E1,-4.189832687E0,1.197129154E1,3.304488182E0
3.104863772E1,-5.563312531E0,1.132044411E1,2.596212626E0
3.106530439E1,-5.666203976E0,1.199043465E1,3.354737282E0
3.108197105E1,-4.816751957E0,1.079641533E1,4.804787636E0
3.109863772E1,-4.414757729E0,9.078369141E0,3.141776085E0
3.111530438E1,-3.608376503E0,8.681160927E0,1.057627559E0
3.113197105E1,-1.761117458E0,7.271788120E0,2.385644197E0
3.114863772E1,-2.153540403E-2,1.014556766E0,5.374279499E0
3.116530438E1,3.014956415E-1,1.033699393E0,4.371686935E0
3.118197105E1,-1.095912814E0,5.929414749E0,9.762716293E-1
3.119863771E1,-1.864008784E0,5.970092297E0,4.398007870E0
3.121530438E1,-3.718446493E0,5.498706341E0,2.490928411E0
3.123197105E1,-2.005185366E0,6.034698486E0,2.163111687E0
3.124863771E1,-3.352344513E0,7.030112743E0,2.734996319E0
3.126530438E1,-4.345366001E0,7.661818027E0,2.821137905E0
3.128197104E1,-3.735196114E0,7.570890903E0,2.718246460E0
3.129863771E1,-4.003192425E0,7.989634991E0,3.498306751E0
3.131530438E1,-3.921836376E0,8.214560509E0,2.974278450E0
3.133197104E1,-2.574677229E0,7.941778183E0,2.488535643E0
3.134863771E1,-1.426122308E0,6.843472958E0,2.431107759E0
3.136530437E1,-1.495514154E0,5.962913990E0,2.517249346E0
3.138197104E1,-2.435893536E0,5.312066078E0,2.218146563E0
3.139863771E1,-3.744767427E0,5.687739372E0,2.730210543E0
3.141530437E1,-4.443471432E0,7.080362320E0,2.244467735E0
3.143197104E1,-4.316651821E0,8.707481384E0,2.569891453E0
3.144863770E1,-2.600998163E0,1.097827053E1,2.428714991E0
3.146530437E1,-1.406979680E0,1.217707443E1,1.880758643E0
3.148197104E1,-8.566305041E-1,1.139940739E1,1.744367719E0
3.149863770E1,-2.632105052E-1,1.103569794E1,2.952743053E0
3.151530437E1,-1.088734269E0,9.946963310E0,3.115455151E0
3.153197103E1,-1.576870084E0,8.776873589E0,1.969292998E0
3.154863770E1,-1.483550072E-1,9.863214493E0,2.356930256E0
3.156530437E1,5.838487148E-1,1.123669529E1,2.031506538E0
3.158197103E1,1.579262972E0,1.232064342E1,2.127219439E0
3.159863770E1,1.890329838E0,1.206221867E1,3.515056372E0
3.161530436E1,7.250252366E-1,1.083470058E1,3.318845034E0
3.163197103E1,2.775674164E-1,1.192822075E1,4.144368649E0
3.164863770E1,1.043270707E0,1.316291714E1,2.871387243E0
3.166530436E1,7.202396393E-1,1.146401310E1,2.715853691E0
3.168197103E1,1.435693540E-2,9.705288887E0,3.290131092E0
3.169863769E1,1.914258152E-1,9.647860527E0,2.502892494E0
3.171530436E1,-2.608176768E-1,1.121515942E1,2.861815929E0
3.173197103E1,9.451649189E-1,1.208854008E1,3.792623997E0
3.174863769E1,1.447657704E0,1.071266651E1,4.359723091E0
3.176530436E1,9.906286001E-1,9.719645500E0,2.610569477E0
3.178197102E1,4.594219327E-1,9.360722542E0,2.895315409E0
3.179863769E1,1.770688742E-1,8.776873589E0,2.809173822E0
3.181530436E1,-6.101697683E-1,9.092725754E0,2.639283419E0
3.183197102E1,-1.155733347E0,9.489934921E0,2.639283419E0
3.184863769E1,-9.643075466E-1,1.049013424E1,2.589034081E0
3.186530435E1,-1.194018483E0,1.147837067E1,1.529013634E0
3.188197102E1,-1.418943882E0,1.125105190E1,2.467000246E0
3.189863769E1,-1.648654819E0,1.066959572E1,2.366501570E0
3.191530435E1,-1.840080619E0,1.044467068E1,3.249453068E0
3.193197102E1,-1.658226132E0,1.089212894E1,4.701896667E0
3.194863768E1,-7.082754970E-1,1.106680489E1,4.163511276E0
3.196530435E1,-1.244267747E-1,1.045184898E1,2.998206854E0
3.198197102E1,-3.493520916E-1,8.980263710E0,1.811366796E0
3.199863768E1,-5.958128572E-1,8.370093346E0,1.730010748E0
3.201530435E1,-1.115055323E0,8.322237015E0,5.814558864E-1
3.203197101E1,-1.892722726E0,8.757730484E0,1.160519004E0
3.204863768E1,-2.287538528E0,9.327222824E0,1.651047587E0
3.206530435E1,-2.615355253E0,1.007378292E1,2.299502611E0
3.208197101E1,-3.048455954E0,1.047099209E1,2.452643156E0
3.209863768E1,-2.632104874E0,1.093519974E1,2.462214470E0
3.211530434E1,-1.990828395E0,9.887143135E0,2.012363911E0
3.213197101E1,-2.333002090E0,8.568697929E0,2.294716835E0
3.214863768E1,-3.065205812E0,9.162117958E0,2.471785784E0
3.216530434E1,-3.144168854E0,8.171489716E0,2.134397745E0
3.218197101E1,-1.823330879E0,4.800002098E0,2.624926329E0
3.219863767E1,-9.834501147E-1,2.481357098E0,5.087141037E0
3.221530434E1,-6.293123364E-1,4.649254322E0,3.950550079E0
3.223197101E1,-1.062413216E0,7.453642368E0,1.131805062E0
3.224863767E1,-1.373480201E0,6.396014690E0,2.237289190E0
3.226530434E1,-1.081555843E0,4.218546391E0,3.141776085E0
3.228197100E1,-1.897508383E0,4.017549038E0,2.931207657E0
3.229863767E1,-2.402393818E0,4.565505505E0,3.285345554E0
3.231530434E1,-3.168097258E0,6.072983742E0,3.014956474E0
3.233197100E1,-1.890329838E0,7.188039303E0,2.337787628E0
3.234863767E1,-1.746760488E0,8.128418922E0,2.885744095E0
3.236530433E1,-2.021935225E0,8.322237015E0,3.287738323E0
3.238197100E1,-1.430907965E0,8.300702095E0,2.952743053E0
3.239863767E1,-1.734796405E0,7.908278942E0,3.610769272E0
3.241530433E1,-2.103291035E0,7.164111137E0,2.481357098E0
3.243197100E1,-1.462014675E0,7.501499176E0,1.387837172E0
3.244863766E1,-9.667003751E-1,8.652446747E0,2.718246460E0
3.246530433E1,-2.206182480E0,9.789037704E0,2.641676188E0
3.248197100E1,-2.354537487E0,1.056909752E1,1.725225091E0
3.249863766E1,-1.780260086E0,1.177508068E1,2.806781054E0
3.251530433E1,-1.308874011E0,1.205264759E1,2.711068153E0
3.253197099E1,-9.714859724E-1,1.095434189E1,1.770688772E0
3.254863766E1,4.307080805E-2,1.010010433E1,1.825723648E0
3.256530433E1,-2.512463629E-1,9.784252167E0,2.438286304E0
3.258197099E1,1.076770201E-1,1.105244732E1,2.785245657E0
3.259863766E1,4.498506486E-1,1.261256790E1,2.689532757E0
3.261530432E1,1.521835208E0,1.334477234E1,3.098705292E0
3.263197099E1,1.165304661E0,1.203111267E1,3.517449379E0
3.264863766E1,-1.459621787E-1,1.051406288E1,3.424129248E0
3.266530432E1,-4.953143001E-1,1.152861977E1,2.297109842E0
3.268197099E1,3.541377485E-1,1.127498055E1,2.567498684E0
3.269863765E1,3.230310678E-1,1.178465176E1,3.110669374E0
3.271530432E1,1.584048629E0,1.216989613E1,4.139583111E0
3.273197099E1,1.904686809E0,1.022692394E1,2.988635540E0
3.274863765E1,5.431707501E-1,9.525827408E0,3.450450182E0
3.276530432E1,8.757730722E-1,9.274580956E0,2.179861546E0
3.278197098E1,1.339980721E0,9.360722542E0,2.031506538E0
3.279863765E1,1.418943882E0,1.001396275E1,2.801995277E0
3.281530432E1,1.517049551E0,1.030349445E1,3.134597778E0
3.283197098E1,1.177268744E0,9.657432556E0,3.053241730E0
3.284863765E1,4.426721931E-1,9.190832138E0,2.435893536E0
3.286530431E1,2.297109663E-1,9.525827408E0,2.134397745E0
3.288197098E1,-3.852444589E-1,1.052841949E1,1.828116536E0
3.289863765E1,-1.036092162E0,1.161715412E1,2.481357098E0
3.291530431E1,-1.251446247E0,1.144726372E1,2.579462767E0
3.293197098E1,-7.082754970E-1,9.911071777E0,2.725425005E0
3.294863764E1,-8.518448472E-1,8.398807526E0,2.270788670E0
3.296530431E1,-1.215553880E0,8.434700012E0,2.864208698E0
3.298197098E1,-1.897508383E0,1.081555843E1,3.364308596E0
3.299863764E1,-2.581855536E0,1.261735344E1,2.799602509E0
3.301530431E1,-2.165504456E0,1.300977707E1,1.916650891E0
3.303197097E1,-1.505085468E0,1.180379391E1,2.031506538E0
3.304863764E1,-1.962114573E0,1.010488987E1,1.641476393E0
3.306530431E1,-1.560120344E0,9.650253296E0,1.004985452E0
3.308197097E1,-1.524227977E0,8.839086533E0,1.529013634E0
3.309863764E1,-1.416550994E0,9.056833267E0,1.339980721E0
3.311530430E1,-1.947757602E0,1.006421185E1,1.103091240E0
3.313197097E1,-2.950350285E0,1.053320503E1,1.040877819E0
3.314863764E1,-2.321038008E0,6.623332977E0,2.079362869E0
3.316530430E1,-1.146162033E0,3.127419233E0,3.885943890E0
3.318197097E1,-1.280160069E0,4.618147850E0,3.811766386E0
3.319863763E1,-1.440479279E0,5.704489231E0,9.906286001E-1
3.321530430E1,-1.983649969E0,4.017549038E0,1.971685886E0
3.323197097E1,-9.140582681E-1,4.012763500E0,1.730010748E0
3.324863763E1,-1.507478207E-1,4.400400639E0,2.545963287E0
3.326530430E1,-1.036092162E0,4.989035130E0,3.259024382E0
3.328197096E1,-2.277967215E0,6.297909260E0,3.098705292E0
3.329863763E1,-2.543570518E0,7.109076023E0,2.785245657E0
3.331530430E1,-2.656033039E0,7.771887779E0,3.273381472E0
3.333197096E1,-1.663011789E0,8.597412109E0,2.158325911E0
3.334863763E1,-8.446664214E-1,8.664410591E0,2.299502611E0
3.336530429E1,-1.694118381E0,8.078168869E0,1.933400750E0
3.338197096E1,-2.474178553E0,7.755138397E0,1.550549030E0
3.339863763E1,-1.744367719E0,7.862815380E0,1.569691658E0
3.341530429E1,-2.493321180E0,8.449056625E0,2.122433662E0
3.343197096E1,-2.012363911E0,8.949156761E0,1.423729420E0
3.344863762E1,-1.433300734E0,9.391828537E0,1.993221283E0
3.346530429E1,-1.000199914E0,9.571290970E0,1.641476393E0
3.348197096E1,-6.173482537E-1,9.678967476E0,1.761117458E0
3.349863762E1,-1.938186288E-1,9.908679008E0,1.710868239E0
3.351530429E1,-3.852444589E-1,1.001874828E1,1.485942841E0
3.353197095E1,-2.392822653E-1,1.051884842E1,2.084148407E0
3.354863762E1,3.684946895E-1,1.140419292E1,1.749153376E0
3.356530429E1,9.092726111E-1,1.315095329E1,3.531806231E0
3.358197095E1,1.069591761E0,1.378026581E1,3.996013880E0
3.359863762E1,2.632104978E-2,1.417029572E1,4.141975880E0
3.361530428E1,-3.421736360E-1,1.398365593E1,3.299702406E0
3.363197095E1,7.896314561E-2,1.247856998E1,2.624926329E0
3.364863762E1,5.718846321E-1,1.053320503E1,3.661018610E0
3.366530428E1,1.083948612E0,9.628718376E0,3.474378586E0
3.368197095E1,9.092726111E-1,1.051167011E1,3.397808075E0
3.369863761E1,7.896314859E-1,1.107876873E1,3.278167009E0
3.371530428E1,9.786644578E-1,1.049970531E1,3.041277647E0
3.373197095E1,1.363908887E0,1.013121128E1,2.725425005E0
3.374863761E1,1.490728498E0,9.432506561E0,2.675175667E0
3.376530428E1,1.191625714E0,8.992227554E0,2.072184324E0
3.378197094E1,7.896314859E-1,9.339186668E0,2.328216314E0
3.379863761E1,2.368894368E-1,9.566504478E0,2.818745136E0
3.381530428E1,1.579262912E-1,1.008096218E1,2.593819857E0
3.383197094E1,3.349951655E-2,1.082752228E1,2.450250387E0
3.384863761E1,4.785645287E-3,1.125344467E1,2.380858421E0
3.386530427E1,2.153540403E-1,1.123908806E1,2.122433662E0
3.388197094E1,4.307080805E-2,1.082512951E1,2.222932339E0
3.389863761E1,-3.421736360E-1,1.013838959E1,2.230110645E0
3.391530427E1,-1.103091240E0,1.017667484E1,2.538784742E0
3.393197094E1,-1.890329838E0,1.048774147E1,3.010170937E0
3.394863760E1,-1.536192179E0,1.095912743E1,2.775674343E0
3.396530427E1,-2.280359983E0,1.069352436E1,1.512263894E0
3.398197094E1,-2.349751949E0,1.014317513E1,1.296909928E0
3.399863760E1,-2.416750908E0,1.041117096E1,2.031506538E0
3.401530427E1,-2.577069998E0,1.085145092E1,1.208375454E0
3.403197093E1,-1.787438512E0,1.095434189E1,1.244267821E0
3.404863760E1,-1.287338614E0,1.027717304E1,1.665404558E0
3.406530427E1,-2.318645239E0,8.776873589E0,2.108076811E0
3.408197093E1,-1.899901152E0,8.513663292E0,2.194218397E0
3.409863760E1,-2.634497643E0,8.001599312E0,1.653440475E0
3.411530426E1,-2.778067112E0,6.616154671E0,2.048256159E0
3.413197093E1,-1.182054400E0,4.496113777E0,2.103291035E0
3.414863760E1,-1.344766378E0,3.471985579E0,3.629911900E0
3.416530426E1,-1.387837082E-1,4.795216560E0,3.842873096E0
3.418197093E1,-1.241874933E0,5.221138954E0,3.024527788E0
3.419863759E1,-2.053041935E0,5.041677475E0,2.538784742E0
3.421530426E1,-1.710868239E0,4.194618225E0,2.519642353E0
3.423197093E1,-2.519642353E0,3.326023579E0,2.811566591E0
3.424863759E1,-3.127419233E0,4.417150497E0,2.292324066E0
3.426530426E1,-1.962114573E0,5.221138954E0,1.995614052E0
3.428197092E1,-2.471785784E0,6.001199245E0,1.797009826E0
3.429863759E1,-2.572284460E0,7.008577347E0,1.531406522E0
3.431530426E1,-1.392622828E0,7.994420528E0,2.600998163E0
3.433197092E1,-1.622333765E0,8.276773453E0,1.828116536E0
3.434863759E1,-1.399801254E0,8.494520187E0,1.138983607E0
3.436530425E1,-1.043270707E0,8.788837433E0,1.311266780E0
3.438197092E1,-1.091127157E0,8.752944946E0,1.643869162E0
3.439863759E1,-1.093519926E0,9.485149384E0,2.644068956E0
3.441530425E1,-9.332008660E-2,1.039920712E1,1.619940877E0
3.443197092E1,8.901300430E-1,1.141615677E1,1.165304661E0
3.444863758E1,1.294517040E0,1.268913841E1,1.902294040E0
3.446530425E1,-1.292124242E-1,1.204786205E1,2.342573404E0
3.448197092E1,-1.009771109E0,1.133958626E1,2.400001049E0
3.449863758E1,-3.565305769E-1,1.231346512E1,3.038884640E0
3.451530425E1,-5.982056633E-2,1.276810169E1,2.663211584E0
3.453197091E1,4.666004181E-1,1.241635704E1,1.986042738E0
3.454863758E1,8.781659007E-1,1.238046455E1,2.857030153E0
3.456530425E1,9.164510965E-1,1.233500099E1,2.778067112E0
3.458197091E1,1.636690736E0,1.191864967E1,2.780459881E0
3.459863758E1,2.383251429E0,1.083230782E1,3.538984776E0
3.461530424E1,2.598605394E0,9.410971642E0,3.938585997E0
3.463197091E1,2.414358139E0,8.116454124E0,3.407379389E0
3.464863758E1,9.212366939E-1,9.166903496E0,3.227917671E0
3.466530424E1,6.364908218E-1,9.571290970E0,2.758924484E0
3.468197091E1,9.451649189E-1,9.841679573E0,2.983849764E0
3.469863757E1,1.148554921E0,1.018385315E1,4.170690060E0
3.471530424E1,1.773081541E0,1.057388306E1,3.041277647E0
3.473197091E1,1.239482164E0,1.054995537E1,2.603390932E0
3.474863757E1,1.124626622E-1,1.009771156E1,8.685946465E-1
3.476530424E1,3.062812984E-1,8.939585686E0,3.828516304E-1
3.478197090E1,1.237089276E0,7.453642368E0,7.250252366E-1
3.479863757E1,2.639283419E0,6.647261143E0,1.208375454E0
3.481530424E1,3.641875982E0,7.831708431E0,1.986042738E0
3.483197090E1,3.457628727E0,9.621540070E0,2.258824587E0
3.484863757E1,3.962514400E0,1.163868904E1,3.199203968E0
3.486530423E1,2.548356056E0,1.159083271E1,3.620340586E0
3.488197090E1,1.452443361E0,1.162911797E1,4.342973232E0
3.489863757E1,-2.297109663E-1,1.077009487E1,3.998406649E0
3.491530423E1,-1.636690736E0,1.015274620E1,2.665604353E0
3.493197090E1,-2.285145521E0,9.815358162E0,1.390229940E0
3.494863756E1,-2.065006018E0,9.375079155E0,1.110269666E0
3.496530423E1,-1.797009826E0,9.119047165E0,1.904686809E0
3.498197090E1,-1.423729420E0,1.027717304E1,2.737389088E0
3.499863756E1,9.092725813E-2,1.120558834E1,3.352344513E0
3.501530423E1,1.378265858E0,1.144965649E1,3.139383316E0
3.503197089E1,2.014756680E0,1.099023438E1,2.232503414E0
3.504863756E1,1.945364833E0,9.980463028E0,2.471785784E0
3.506530423E1,9.595218897E-1,8.480163574E0,2.340180635E0
3.508197089E1,-1.579262912E-1,7.563712597E0,1.421336651E0
3.509863756E1,-1.430907965E0,7.771887779E0,1.299302697E0
