"Time (s)","Gyroscope x (rad/s)","Gyroscope y (rad/s)","Gyroscope z (rad/s)"
4.339568000E-2,3.229947388E-1,-7.559451740E-3,4.276053607E-2
6.006234600E-2,3.229947388E-1,-7.559451740E-3,4.276053607E-2
7.672901200E-2,5.345067009E-3,1.286633909E-1,4.276053607E-2
9.339567800E-2,-3.313941509E-2,4.253146052E-2,4.886918142E-2
1.100623440E-1,-2.886336111E-2,-7.231111825E-2,2.138026804E-2
1.267290100E-1,-1.725693047E-2,-1.126281917E-1,2.321286127E-2
1.433956760E-1,-1.114828233E-2,-7.964149863E-2,1.527161989E-2
1.600623420E-1,4.123337101E-3,-4.482220486E-2,6.719512399E-3
1.767290080E-1,5.345067009E-3,-1.183550525E-2,3.665188793E-3
1.933956740E-1,-9.926552884E-3,-1.672242396E-2,6.108647678E-3
2.100623400E-1,-1.847865991E-2,-4.787652567E-2,1.649334840E-2
2.267290060E-1,-3.207040019E-3,-1.046869531E-1,3.054323979E-2
2.433956720E-1,7.177661173E-3,-1.016326249E-1,3.604102135E-2
2.600623380E-1,1.206457894E-2,-6.009382382E-2,3.054323979E-2
2.767290040E-1,1.389717404E-2,-2.588539571E-2,2.932151034E-2
2.933956700E-1,1.023198478E-2,-3.749182448E-2,2.199113183E-2
3.100623360E-1,1.328630932E-2,-1.061377581E-2,1.649334840E-2
3.267290020E-1,1.756236330E-2,-1.855501719E-2,1.466075517E-2
3.433956680E-1,4.382954910E-2,-8.269581944E-2,1.404988952E-2
3.600623340E-1,9.086613357E-2,-1.682168841E-1,-1.527161989E-2
3.767290000E-1,1.104138121E-1,-2.274707705E-1,-4.337139800E-2
3.933956660E-1,1.311832070E-1,-1.596647799E-1,-7.635809481E-2
4.100623320E-1,1.122464016E-1,-9.491311759E-2,-5.375609919E-2
4.267289980E-1,1.391244531E-1,-1.193477064E-1,-5.253437161E-2
4.433956640E-1,1.934914142E-1,-1.474474818E-1,-6.047561392E-2
4.600623300E-1,2.283107042E-1,-1.614973694E-1,-7.941242307E-2
4.767289960E-1,2.112064958E-1,-1.694386154E-1,-4.092793912E-2
4.933956620E-1,1.543960720E-1,-1.419496983E-1,9.162971750E-3
5.100623280E-1,1.055268943E-1,-1.224020272E-1,2.443459118E-3
5.267289940E-1,8.842267841E-2,-1.004109010E-1,1.221729536E-2
5.433956600E-1,6.032289565E-2,-1.602756530E-1,3.054323979E-2
5.600623260E-1,1.000291109E-1,-2.488510460E-1,-2.443459071E-2
5.767289920E-1,1.348484010E-1,-3.019962609E-1,-4.825831577E-2
5.933956580E-1,1.226311028E-1,-2.738964856E-1,-5.070177838E-2
6.100623240E-1,1.281288862E-1,-1.792124510E-1,-2.565632015E-2
6.267289900E-1,1.287397593E-1,-4.482220486E-2,-4.764745384E-2
6.433956560E-1,1.348484010E-1,5.169443041E-2,-3.115410358E-2
6.600623220E-1,1.232419685E-1,2.420551702E-2,-3.115410358E-2
6.767289880E-1,1.311832070E-1,-9.369138628E-2,-1.710421406E-2
6.933956540E-1,1.104138121E-1,-1.327867359E-1,6.108647794E-4
7.100623200E-1,8.720094711E-2,-1.120173261E-1,-4.886918236E-3
7.267289860E-1,1.324049383E-1,-1.511126757E-1,-2.138026804E-2
7.433956520E-1,1.635590494E-1,-2.390772104E-1,-2.565632015E-2
7.600623180E-1,1.794415265E-1,-3.343721032E-1,-1.710421406E-2
7.767289840E-1,1.556178033E-1,-3.618610203E-1,-6.108647678E-3
7.933956500E-1,1.153007299E-1,-3.252091408E-1,-1.771507785E-2
8.100623160E-1,1.091920808E-1,-1.999818534E-1,-7.452550530E-2
8.267289820E-1,5.299251899E-2,-6.559160352E-2,-6.475166976E-2
8.433956480E-1,1.939495653E-2,5.902481079E-2,-3.115410358E-2
8.600623140E-1,7.788525894E-3,1.048396677E-1,-1.282816008E-2
8.767289800E-1,-1.985310577E-3,4.130972922E-2,-3.054323839E-3
8.933956460E-1,1.634063199E-2,-5.031998456E-2,0.000000000E0
9.100623120E-1,2.489273995E-2,-9.980003536E-2,7.330377586E-3
9.267289780E-1,-2.458730713E-2,-3.565923125E-2,3.054323839E-3
9.433956440E-1,-8.811724186E-2,7.368556410E-2,4.886918236E-3
9.600623100E-1,-1.229365394E-1,1.494327933E-1,3.054323839E-3
9.767289760E-1,-1.217148080E-1,1.549305767E-1,-1.221729536E-2
9.933956420E-1,-8.567378670E-2,9.078978002E-2,-1.649334840E-2
1.010062308E0,-5.268708616E-2,1.137735695E-2,-1.466075517E-2
1.026728974E0,-4.841103405E-2,-5.031998456E-2,-5.497782957E-3
1.043395640E0,-3.802633286E-2,-4.726566374E-2,-6.108647794E-4
1.060062306E0,-4.657844082E-2,1.603520010E-3,-6.108647678E-3
1.076728972E0,-8.628465235E-2,7.551816106E-2,2.443459118E-3
1.093395638E0,-1.211039424E-1,1.323285848E-1,1.221729559E-3
1.110062304E0,-1.424842030E-1,1.610392332E-1,-1.343902480E-2
1.126728970E0,-1.828012913E-1,2.251800299E-1,-2.321286127E-2
1.143395636E0,-1.791360974E-1,2.542724647E-2,4.276053607E-2
1.160062302E0,-3.924806044E-2,-1.486692131E-1,3.420842811E-2
1.176728968E0,3.833176568E-2,-2.696204484E-1,2.748891525E-2
1.193395634E0,-7.483093534E-3,-2.610683441E-1,2.932151034E-2
1.210062300E0,-1.632536054E-1,-6.070468575E-2,4.337139800E-2
1.226728966E0,-2.438877672E-1,4.069886729E-2,1.282816008E-2
1.243395632E0,-2.725984156E-1,1.512653977E-1,-1.710421406E-2
1.260062298E0,-2.921460867E-1,2.367864549E-1,9.773836471E-3
1.276728964E0,-3.178023994E-1,2.697731555E-1,4.092793912E-2
1.293395630E0,-3.135263622E-1,2.166279256E-1,7.635809481E-2
1.310062296E0,-3.031416535E-1,1.213330179E-1,1.398880333E-1
1.326728962E0,-2.878700197E-1,5.719221383E-2,1.912006736E-1
1.343395628E0,-2.603811026E-1,1.207221523E-1,1.850920320E-1
1.360062294E0,-2.335030586E-1,1.836412251E-1,1.655443609E-1
1.376728960E0,-2.170097083E-1,1.781434417E-1,1.618791670E-1
1.393395626E0,-2.200640440E-1,1.353829056E-1,1.893680841E-1
1.410062292E0,-1.828012913E-1,8.101594448E-2,2.278525680E-1
1.426728958E0,-7.773254067E-2,6.513345987E-2,2.321286201E-1
1.443395624E0,-1.985310577E-3,1.078939885E-1,2.089157552E-1
1.460062290E0,-2.947422490E-2,1.769217104E-1,1.905898154E-1
1.476728956E0,-1.113301069E-1,2.593884468E-1,1.771507859E-1
1.493395622E0,-1.736383140E-1,3.198640645E-1,1.789833754E-1
1.510062288E0,-1.650862098E-1,3.149771392E-1,2.003636509E-1
1.526728954E0,-1.290451884E-1,2.471711636E-1,2.357937992E-1
1.543395620E0,-8.933897316E-2,2.092975378E-1,3.035998046E-1
1.560062286E0,-8.078686893E-2,2.099084109E-1,3.854556680E-1
1.576728952E0,-5.940660089E-2,2.441168427E-1,4.062250853E-1
1.593395618E0,-4.428769462E-3,2.581667304E-1,3.469711840E-1
1.610062284E0,5.421425030E-2,2.428951114E-1,2.840521336E-1
1.626728950E0,4.688387364E-2,2.147953212E-1,2.461785078E-1
1.643395616E0,-4.428769462E-3,1.934150606E-1,2.370155305E-1
1.660062282E0,-3.375028074E-2,1.885281354E-1,2.663370371E-1
1.676728948E0,-2.764163166E-2,1.604283601E-1,2.926042378E-1
1.693395614E0,2.183841541E-2,1.219438836E-1,2.712239623E-1
1.710062280E0,8.475748450E-2,8.040507883E-2,2.266308367E-1
1.726728946E0,7.681624591E-2,6.391172856E-2,2.089157552E-1
1.743395612E0,-1.693622619E-1,1.372154951E-1,1.942549944E-1
1.760062278E0,-1.681405306E-1,1.329394430E-1,1.985310465E-1
1.776728944E0,-1.003345400E-1,1.195004210E-1,1.857028902E-1
1.793395610E0,-3.985892609E-2,8.956804872E-2,1.649334878E-1
1.810062276E0,1.206457894E-2,5.597048625E-2,1.215620935E-1
1.826728942E0,5.115992576E-2,2.542724647E-2,8.613193035E-2
1.843395608E0,5.360338464E-2,9.544761851E-3,7.696896046E-2
1.860062274E0,1.267544460E-2,-2.649625950E-2,6.658425927E-2
1.876728940E0,-5.696314201E-2,-2.649625950E-2,5.558869615E-2
1.893395606E0,-9.117157012E-2,7.101302966E-3,5.742128938E-2
1.910062272E0,-7.528908551E-2,3.031416424E-2,5.436696485E-2
1.926728938E0,-4.596757516E-2,3.886627033E-2,5.864302069E-2
1.943395604E0,-2.580903657E-2,3.336848691E-2,6.108647957E-2
1.960062270E0,-1.786779426E-2,3.825540841E-2,6.291907281E-2
1.976728936E0,-7.483093534E-3,4.130972922E-2,8.796452731E-2
1.993395602E0,-2.031125315E-2,4.436405376E-2,1.258381456E-1
2.010062268E0,-7.040216774E-2,8.162680268E-2,1.606574357E-1
2.026728934E0,-1.174387559E-1,1.274416596E-1,2.034179717E-1
2.043395600E0,-1.449276656E-1,9.262236953E-2,1.343902498E-1
2.060062266E0,-1.296560466E-1,6.207913160E-2,7.880155742E-2
2.076728932E0,-2.182314396E-1,1.072831303E-1,1.007926911E-1
2.093395598E0,-3.471239209E-1,2.642753720E-1,1.472184062E-1
2.110062264E0,-4.405862093E-1,4.609738290E-1,2.070831656E-1
2.126728930E0,-5.016726851E-1,6.882155538E-1,3.255909383E-1
2.143395596E0,-4.851793647E-1,9.185115695E-1,6.951641440E-1
2.160062262E0,-2.823722363E-1,9.576069117E-1,1.139873624E0
2.176728928E0,1.878409274E-2,6.814960241E-1,1.498451352E0
2.193395594E0,2.203694731E-1,4.053851366E-1,1.546709657E0
2.210062260E0,-1.650862098E-1,5.019017458E-1,1.363450170E0
2.226728926E0,-4.515817761E-1,6.246855855E-1,7.684679031E-1
2.243395592E0,-5.102248192E-1,6.918807030E-1,7.819069177E-2
2.260062258E0,-5.077813268E-1,5.293906927E-1,-1.160643063E-2
2.276728924E0,-3.733910918E-1,3.559050858E-1,8.246674389E-2
2.293395590E0,-3.746128380E-1,3.479638398E-1,1.313359290E-1
2.310062256E0,-5.346593857E-1,4.878518879E-1,2.645044625E-1
2.326728922E0,-6.097957492E-1,4.450913370E-1,3.066541255E-1
2.343395588E0,-5.859720111E-1,2.557232678E-1,2.913824916E-1
2.360062254E0,-5.407680273E-1,1.702021956E-1,3.353647590E-1
2.376728920E0,-5.590940118E-1,1.903607398E-1,4.312705398E-1
2.393395586E0,-5.975784659E-1,2.080758214E-1,5.241219997E-1
2.410062252E0,-7.252492309E-1,1.928042024E-1,4.893026948E-1
2.426728918E0,-8.174898028E-1,1.176678315E-1,4.245510101E-1
2.443395584E0,-7.423534393E-1,7.063124329E-2,4.056142271E-1
2.460062250E0,-5.554288030E-1,3.397935256E-2,3.958403766E-1
2.476728916E0,-4.118755758E-1,7.979421318E-2,4.190532267E-1
2.493395582E0,-3.233001828E-1,1.366046369E-1,4.667007029E-1
2.510062248E0,-3.202458620E-1,9.017891437E-2,4.697550237E-1
2.526728914E0,-3.049742281E-1,2.825249685E-3,3.842339516E-1
2.543395580E0,-2.182314396E-1,-6.620246917E-2,2.864955962E-1
2.560062246E0,-1.412624866E-1,-7.475458086E-2,2.370155305E-1
2.576728912E0,-9.666935354E-2,-4.726566374E-2,1.966984570E-1
2.593395578E0,-1.119409725E-1,-2.955058403E-2,1.930332631E-1
2.610062244E0,-1.137735620E-1,-1.101847365E-1,2.828303874E-1
2.626728910E0,-1.711948514E-1,-1.816559136E-1,2.895499170E-1
2.643395576E0,-2.952004075E-1,-1.132390574E-1,2.089157552E-1
2.660062242E0,-3.031416535E-1,-8.636100590E-2,1.643226296E-1
2.676728908E0,-2.383899838E-1,-1.224020272E-1,2.150243968E-1
2.693395574E0,-2.182314396E-1,-7.475458086E-2,3.029889166E-1
2.710062240E0,-2.365573794E-1,-5.520690605E-2,2.492328286E-1
2.726728906E0,-3.404043913E-1,1.259908639E-2,1.527161896E-1
2.743395572E0,-3.862192631E-1,8.529199660E-2,1.282816082E-1
2.760062238E0,-3.355174661E-1,9.323323518E-2,1.032361463E-1
2.776728904E0,-3.355174661E-1,1.152243689E-1,8.063415438E-2
2.793395570E0,-3.654498458E-1,1.176678315E-1,1.062904745E-1
2.810062236E0,-3.257436454E-1,4.314232618E-2,1.411097646E-1
2.826728902E0,-2.811505198E-1,5.108356848E-2,1.435532272E-1
2.843395568E0,-3.123046160E-1,1.494327933E-1,1.075121984E-1
2.860062234E0,-3.837758005E-1,2.172387838E-1,7.086031139E-2
2.876728900E0,-4.179842174E-1,1.995237023E-1,6.536252797E-2
2.893395566E0,-3.123046160E-1,8.407026529E-2,6.658425927E-2
2.910062232E0,-1.931859851E-1,-3.565923125E-2,5.619955808E-2
2.926728898E0,-2.225074917E-1,-1.611155830E-2,9.896009415E-2
2.943395564E0,-3.587303460E-1,4.619665071E-2,1.050687432E-1
2.960062230E0,-4.894554019E-1,5.658135191E-2,9.712749720E-2
2.976728896E0,-5.829176903E-1,3.459021822E-2,5.986474827E-2
2.993395562E0,-6.091849208E-1,2.664897591E-2,6.597339362E-2
3.010062228E0,-6.042979956E-1,2.420551702E-2,5.803215504E-2
3.026728894E0,-6.574432254E-1,7.246383280E-2,8.002328873E-2
3.043395560E0,-8.003855944E-1,5.474875495E-2,8.552107215E-2
3.060062226E0,-1.003192663E0,-4.054614902E-2,5.681042373E-2
3.076728892E0,-1.163239241E0,-8.819360286E-2,5.253437161E-2
3.093395558E0,-1.314733744E0,-3.199404106E-2,7.208204269E-2
3.110062224E0,-1.460119486E0,7.979421318E-2,9.896009415E-2
3.126728890E0,-1.562133908E0,7.735075057E-2,1.576031148E-1
3.143395556E0,-1.570686102E0,-3.688096255E-2,2.144135386E-1
3.160062222E0,-1.486997604E0,-1.315650046E-1,3.164279461E-1
3.176728888E0,-1.359937668E0,-2.170860767E-1,3.072649837E-1
3.193395554E0,-1.194393396E0,-2.494619042E-1,2.736674249E-1
3.210062220E0,-1.082605124E0,-1.688277572E-1,2.437350452E-1
3.226728886E0,-9.952514172E-1,-3.321577236E-2,1.582139730E-1
3.243395552E0,-8.339831233E-1,6.330086291E-2,1.802051067E-1
3.260062218E0,-6.855430007E-1,1.604283601E-1,1.753181964E-1
3.276728884E0,-5.322159529E-1,1.744782478E-1,1.527161896E-1
3.293395550E0,-4.167625010E-1,1.549305767E-1,1.545487940E-1
3.310062216E0,-4.198168218E-1,1.750891209E-1,1.209512278E-1
3.326728882E0,-5.132791400E-1,1.983019859E-1,5.803215504E-2
3.343395548E0,-5.658134818E-1,2.202931046E-1,7.941242307E-3
3.360062214E0,-5.933024287E-1,2.202931046E-1,-7.391463965E-2
3.376728880E0,-5.157225728E-1,1.842520833E-1,-3.909534588E-2
3.393395546E0,-3.318522871E-1,1.311068535E-1,-1.282816008E-2
3.410062212E0,-1.137735620E-1,1.017853469E-1,-2.382372692E-2
3.426728878E0,1.389717404E-2,9.689842910E-2,-5.436696485E-2
3.443395544E0,4.016435891E-2,1.164461002E-1,-7.330377400E-2
3.460062210E0,-1.053741761E-2,1.231656075E-1,-8.429934084E-2
3.476728876E0,-5.940660089E-2,1.262199283E-1,-8.246674389E-2
3.493395542E0,-5.696314201E-2,1.170569658E-1,-7.269290835E-2
3.510062208E0,9.010255337E-3,8.162680268E-2,-6.536252797E-2
3.526728874E0,7.925970852E-2,6.879864633E-2,-7.147117704E-2
3.543395540E0,1.079703495E-1,4.619665071E-2,-8.857539296E-2
3.560062206E0,9.147699922E-2,1.809686981E-2,-8.735366166E-2
3.576728872E0,9.636391699E-2,-3.894262947E-3,-8.979712427E-2
3.593395538E0,1.091920808E-1,-4.505127668E-3,-8.674279600E-2
3.610062204E0,1.366809905E-1,1.015562657E-2,-8.307760954E-2
3.626728870E0,2.014326602E-1,1.870773360E-2,-8.307760954E-2
3.643395536E0,2.533561587E-1,1.931859925E-2,-7.819069177E-2
3.660062202E0,2.918406427E-1,1.809686981E-2,-6.291907281E-2
3.676728868E0,3.627009690E-1,-6.337722298E-3,-4.276053607E-2
3.693395534E0,4.305069447E-1,3.397935256E-2,-4.092793912E-2
3.710062200E0,4.830413163E-1,1.504254527E-2,-1.288924664E-1
3.726728866E0,5.306887627E-1,6.696604937E-2,-1.539379209E-1
3.743395532E0,5.667297840E-1,1.610392332E-1,-2.486219704E-1
3.760062198E0,5.484038591E-1,3.614028692E-1,-3.384190798E-1
3.776728864E0,4.885390997E-1,3.467421234E-1,-4.434878230E-1
3.793395530E0,1.128572673E-1,-1.407279670E-1,-2.877173126E-1
3.810062196E0,-5.268708616E-2,-2.219729871E-1,-1.166751757E-1
3.826728862E0,-3.985892609E-2,-2.402989268E-1,-6.230820715E-2
3.843395528E0,4.708240330E-1,3.772853613E-1,-3.029889166E-1
3.860062194E0,1.004719853E0,5.782598853E-1,-5.864301920E-1
3.876728860E0,9.112575054E-1,4.835758209E-1,-5.442805290E-1
3.893395526E0,6.907353401E-1,5.354993343E-1,-4.544833899E-1
3.910062192E0,3.553705812E-1,2.428951114E-1,-3.237583339E-1
3.926728858E0,-6.307178736E-2,-2.060905099E-1,-1.814268380E-1
3.943395524E0,-3.959930837E-1,-4.748710096E-1,-8.185587823E-2
3.960062190E0,-4.326449931E-1,-6.275871992E-1,-8.674279600E-2
3.976728856E0,-2.762635946E-1,-6.581304669E-1,-1.661552191E-1
3.993395522E0,-7.284562290E-2,-5.671116114E-1,-2.339612097E-1
4.010062188E0,2.367101051E-2,-3.551415205E-1,-2.553414702E-1
4.026728854E0,1.328630932E-2,-1.187368408E-1,-2.351829410E-1
4.043395520E0,-4.718930274E-2,6.574432552E-2,-1.905898154E-1
4.060062186E0,-1.027780026E-1,1.317177117E-1,-1.111773923E-1
4.076728852E0,-1.308777779E-1,6.452259421E-2,-2.993237413E-2
4.093395518E0,-1.162170246E-1,-5.887209252E-2,1.466075517E-2
4.110062184E0,-9.056070447E-2,-1.614973694E-1,4.459312931E-2
4.126728850E0,-9.239330143E-2,-1.700494885E-1,8.002328873E-2
4.143395516E0,-9.850194305E-2,-1.425605714E-1,1.178968996E-1
4.160062182E0,-6.612611562E-2,-1.144607887E-1,1.588248461E-1
4.176728848E0,8.399390616E-3,-1.156825200E-1,1.893680841E-1
4.193395514E0,5.360338464E-2,-1.010217592E-1,1.905898154E-1
4.210062180E0,7.009673119E-2,-6.559160352E-2,1.667660922E-1
4.226728846E0,6.520981342E-2,-3.810269013E-2,1.301141977E-1
4.243395512E0,3.405570984E-2,-2.405280061E-2,1.038470119E-1
4.260062178E0,4.734201822E-3,-6.009382382E-2,1.215620935E-1
4.276728844E0,9.621120058E-3,-1.089630052E-1,1.685986817E-1
4.293395510E0,3.405570984E-2,-1.566104591E-1,2.009745091E-1
4.310062176E0,6.582067907E-2,-1.999818534E-1,1.844811589E-1
4.326728842E0,5.971203372E-2,-1.291215420E-1,1.514944583E-1
4.343395508E0,5.115992576E-2,9.926552884E-4,1.130099818E-1
4.360062174E0,7.803797722E-2,6.879864633E-2,8.735366166E-2
4.376728840E0,1.067486182E-1,5.474875495E-2,8.918625861E-2
4.393395506E0,1.036942974E-1,-2.771798894E-2,9.712749720E-2
4.410062172E0,6.154462695E-2,-1.077412739E-1,1.075121984E-1
4.426728838E0,4.123337101E-3,-1.370627880E-1,9.040798992E-2
4.443395504E0,-4.046979174E-2,-1.126281917E-1,5.619955808E-2
4.460062170E0,-4.474584386E-2,-5.581776798E-2,2.748891525E-2
4.476728836E0,-1.481347065E-2,-2.099847607E-2,-4.276053514E-3
4.493395502E0,7.177661173E-3,1.015562657E-2,-2.382372692E-2
4.510062168E0,2.000582218E-2,2.298378758E-2,-4.459312931E-2
4.526728834E0,2.000582218E-2,2.298378758E-2,-4.459312931E-2
4.543395500E0,2.000582218E-2,2.298378758E-2,-4.459312931E-2
4.560062166E0,2.000582218E-2,2.298378758E-2,-4.459312931E-2
4.576728832E0,2.000582218E-2,2.298378758E-2,-4.459312931E-2
4.593395498E0,-5.207622424E-2,7.490729541E-2,-4.092793912E-2
4.610062164E0,-5.207622424E-2,9.873101860E-2,-6.291907281E-2
4.626728830E0,-5.513054505E-2,6.207913160E-2,-7.086031139E-2
4.643395496E0,-5.451968312E-2,8.933897130E-3,-4.886918142E-2
4.660062162E0,-5.818486959E-2,-4.115701467E-2,-2.382372692E-2
4.676728828E0,-5.757400393E-2,-5.581776798E-2,4.276053514E-3
4.693395494E0,-7.162389904E-2,-1.488982886E-2,3.665188793E-3
4.710062160E0,-7.162389904E-2,2.603811212E-2,3.665188793E-3
4.726728826E0,-4.963276163E-2,4.069886729E-2,1.832594350E-2
4.743395492E0,-1.725693047E-2,1.076649129E-2,2.687804960E-2
4.760062158E0,2.901607659E-3,-2.832885459E-2,2.626718581E-2
4.776728824E0,-1.053741761E-2,-3.627009690E-2,2.565632015E-2
4.793395490E0,-2.153298259E-2,-3.871355578E-2,2.504545636E-2
4.810062156E0,-1.481347065E-2,-2.160934173E-2,2.443459071E-2
4.826728822E0,1.878409274E-2,2.214384731E-3,2.565632015E-2
4.843395488E0,5.787943676E-2,2.420551702E-2,2.565632015E-2
4.860062154E0,6.276635826E-2,4.008800164E-2,1.954767294E-2
4.876728820E0,4.077522457E-2,1.443168055E-2,1.771507785E-2
4.893395486E0,2.489273995E-2,-2.710712515E-2,3.481929377E-2
4.910062152E0,2.794706449E-2,-6.253728271E-2,4.398226365E-2
4.926728818E0,1.084284950E-2,-3.260490671E-2,6.047561392E-2
4.943395484E0,9.010255337E-3,4.680751264E-2,8.491020650E-2
4.960062150E0,3.955349326E-2,8.345939964E-2,1.026252806E-1
4.976728816E0,7.254019380E-2,8.223766834E-2,1.154534444E-1
4.993395482E0,7.070759684E-2,6.635518372E-2,1.172860414E-1
5.010062148E0,3.711003438E-2,4.741837829E-2,1.325576603E-1
5.026728814E0,2.733619884E-2,2.970330045E-2,1.594357044E-1
5.043395480E0,4.199695215E-2,-8.170315996E-3,1.905898154E-1
5.060062146E0,7.864884287E-2,-4.726566374E-2,2.247982323E-1
5.076728812E0,1.000291109E-1,-5.031998456E-2,2.345720828E-1
5.093395478E0,9.636391699E-2,-2.649625950E-2,2.174678594E-1
5.110062144E0,8.964440972E-2,-3.138317913E-2,1.710421443E-1
5.126728810E0,7.987056673E-2,-4.360047355E-2,1.191186309E-1
5.143395476E0,8.842267841E-2,-2.099847607E-2,1.007926911E-1
5.160062142E0,1.128572673E-1,-4.505127668E-3,1.319467872E-1
5.176728808E0,1.684459597E-1,5.879573524E-3,1.667660922E-1
5.193395474E0,2.289215773E-1,1.870773360E-2,1.685986817E-1
5.210062140E0,2.527453005E-1,6.574432552E-2,1.545487940E-1
5.226728806E0,2.368628234E-1,1.378263682E-1,1.521053314E-1
5.243395472E0,2.179260105E-1,2.099084109E-1,1.582139730E-1
5.260062138E0,2.026543915E-1,2.422842383E-1,1.527161896E-1
5.276728804E0,1.959348768E-1,2.349538654E-1,1.569922417E-1
5.293395470E0,1.941022873E-1,1.897498667E-1,1.661552191E-1
5.310062136E0,1.769980639E-1,1.127809063E-1,1.514944583E-1
5.326728802E0,5.360338464E-2,-8.391755074E-2,7.208204269E-2
5.343395468E0,-1.359174121E-2,-6.742420048E-2,6.719512492E-2
5.360062134E0,-3.130681813E-2,-7.903063297E-2,4.031707719E-2
5.376728800E0,-2.153298259E-2,-4.787652567E-2,4.153880477E-2
5.393395466E0,-5.574141070E-2,2.298378758E-2,9.590577334E-2
5.410062132E0,-9.789107740E-2,5.413788930E-2,9.346231073E-2
5.426728798E0,-8.078686893E-2,3.947713599E-2,5.742128938E-2
5.443395464E0,-5.940660089E-2,-9.392046370E-3,-4.276053514E-3
5.460062130E0,-7.895427197E-2,2.825249685E-3,-6.108647678E-3
5.476728796E0,-8.323032409E-2,1.565340906E-2,-1.221729559E-3
5.493395462E0,-4.841103405E-2,5.879573524E-3,-9.773836471E-3
5.510062128E0,-1.664606482E-2,5.879573524E-3,-3.054323979E-2
5.526728794E0,1.145371422E-2,2.825249685E-3,-2.138026804E-2
5.543395460E0,5.955931731E-3,4.046979360E-3,-1.404988952E-2
5.560062126E0,2.901607659E-3,6.490438245E-3,-4.092793912E-2
5.576728792E0,1.634063199E-2,-4.543306679E-2,-4.886918142E-2
5.593395458E0,4.444041103E-2,-1.236237586E-1,-1.368337125E-1
5.610062124E0,8.597921580E-2,-1.871536970E-1,-3.219257295E-1
5.626728790E0,2.209803313E-1,-2.115882933E-1,-6.560688019E-1
5.643395456E0,3.828594983E-1,-3.050506115E-1,-1.036637545E0
5.660062122E0,4.347830117E-1,-3.789652288E-1,-1.290757298E0
5.676728788E0,3.920224607E-1,-4.260018170E-1,-1.433699608E0
5.693395454E0,3.217730224E-1,-5.170207024E-1,-1.588248372E0
5.710062120E0,3.553705812E-1,-9.586759210E-1,-1.834426880E0
5.726728786E0,4.989238083E-1,-1.507843375E0,-2.230267286E0
5.743395452E0,6.088794470E-1,-1.821216941E0,-2.660927057E0
5.760062118E0,4.983129501E-1,-2.005087376E0,-3.042717457E0
5.776728784E0,1.122464016E-1,-2.386877775E0,-3.337154388E0
5.793395450E0,-1.711948514E-1,-2.857854605E0,-3.337154388E0
5.810062116E0,-2.854265571E-1,-3.006294727E0,-3.100749731E0
5.826728782E0,-9.117157012E-2,-2.354501963E0,-2.862512350E0
5.843395448E0,1.629481763E-1,-1.568929791E0,-2.520428181E0
5.860062114E0,3.327685893E-1,-7.320450544E-1,-2.036012411E0
5.876728780E0,4.097375572E-1,-6.009382382E-2,-1.613904715E0
5.893395446E0,4.396699369E-1,-2.470184416E-1,-1.535103202E0
5.910062112E0,6.980656981E-1,-9.611193538E-1,-1.633452415E0
5.926728778E0,1.122616768E0,-1.540830016E0,-1.821598768E0
5.943395444E0,1.432936072E0,-1.790062904E0,-1.947436929E0
5.960062110E0,1.593593478E0,-1.652618289E0,-1.668882608E0
5.976728776E0,1.603367329E0,-1.612301230E0,-1.140484571E0
5.993395442E0,1.363297462E0,-2.054567337E0,-1.138041139E0
6.010062108E0,9.839504361E-1,-2.342284679E0,-1.199738383E0
6.026728774E0,6.571378112E-1,-2.322126150E0,-1.098945737E0
6.043395440E0,-3.459021747E-1,-2.081445456E0,-9.456186891E-1
6.060062106E0,-1.256701589E0,-1.827325583E0,-8.002328873E-1
6.076728772E0,-1.943924427E0,-7.839685678E-1,-1.551596522E-1
6.093395438E0,-2.116188288E0,-4.681515098E-1,1.417206228E-1
6.110062104E0,-1.654985428E0,1.854738146E-1,5.662716627E-1
6.126728770E0,-1.019685984E0,8.146645427E-1,6.499601007E-1
6.143395436E0,-5.823068619E-1,5.464949012E-1,4.135554433E-1
6.160062102E0,-4.918988645E-1,-4.298960790E-2,1.227838174E-1
6.176728768E0,1.568395346E-1,2.514472008E-1,-7.764091492E-1
6.193395434E0,4.604393244E-1,-3.783543706E-1,-7.336485982E-1
6.210062100E0,4.604393244E-1,-3.783543706E-1,-7.336485982E-1
6.226728766E0,4.604393244E-1,-3.783543706E-1,-7.336485982E-1
6.243395432E0,4.604393244E-1,-3.783543706E-1,-7.336485982E-1
6.260062098E0,4.604393244E-1,-3.783543706E-1,-7.336485982E-1
6.276728764E0,6.375901103E-1,5.562687516E-1,2.901607752E-1
6.293395430E0,1.100014806E0,1.125594735E0,2.993237376E-1
6.310062096E0,1.032208800E0,1.473176718E0,-4.398226365E-2
6.326728762E0,9.155336022E-1,2.080376387E0,-3.488037884E-1
6.343395428E0,6.412553191E-1,2.465831995E0,-3.976729810E-1
6.360062094E0,2.515235841E-1,2.361374140E0,3.292561173E-1
6.376728760E0,-2.397644334E-2,1.821369648E0,9.217949510E-1
6.393395426E0,-4.069886506E-1,9.789871573E-1,1.340237379E0
6.410062092E0,-5.951350331E-1,4.707476795E-1,1.629787207E0
6.426728758E0,-4.839576185E-1,1.111544847E0,1.693317175E0
6.443395424E0,-3.654498458E-1,2.063272238E0,1.253494501E0
6.460062090E0,-2.292270064E-1,2.495153666E0,7.709113359E-1
6.476728756E0,-1.608101577E-1,2.385808706E0,7.214313149E-1
6.493395422E0,-4.998401105E-1,2.274020433E0,9.841031432E-1
6.510062088E0,-9.647082090E-1,2.569679022E0,1.144149780E0
6.526728754E0,-1.105207086E0,2.462166786E0,1.040913582E0
6.543395420E0,-8.449786901E-1,2.214155674E0,8.747583628E-1
6.560062086E0,-5.334376693E-1,2.012570381E0,8.087849617E-1
6.576728752E0,-7.956513762E-2,1.919108033E0,8.277217746E-1
6.593395418E0,2.741255760E-1,1.459126830E0,7.489202023E-1
6.610062084E0,4.867065251E-1,1.247767687E0,6.988292933E-1
6.626728750E0,3.883572817E-1,1.084666729E0,5.729911923E-1
6.643395416E0,1.440113783E-1,1.000978351E0,4.349357188E-1
6.660062082E0,1.085812151E-1,9.099594355E-1,2.840521336E-1
6.676728748E0,2.148716897E-1,8.843031526E-1,1.331685185E-1
6.693395414E0,2.448040545E-1,8.562033176E-1,4.764745384E-2
6.710062080E0,2.148716897E-1,8.665880561E-1,-1.466075517E-2
6.726728746E0,7.803797722E-2,8.445969224E-1,-1.472184062E-1
6.743395412E0,4.123337101E-3,7.114284039E-1,-2.828303874E-1
6.760062078E0,3.588830680E-2,6.393463612E-1,-3.023780584E-1
6.776728744E0,1.721111536E-1,5.159516931E-1,-2.419024557E-1
6.793395410E0,2.851211429E-1,3.320813775E-1,-2.119700760E-1
6.810062076E0,2.955058515E-1,2.196822464E-1,-2.596175373E-1
6.826728742E0,2.295324355E-1,2.343430072E-1,-3.530798554E-1
6.843395408E0,4.688387364E-2,2.471711636E-1,-3.744601011E-1
6.860062074E0,1.069013379E-3,6.635518372E-2,-2.889390290E-1
6.876728740E0,1.330158114E-1,-1.211803034E-1,-7.208204269E-2
6.893395406E0,1.837175786E-1,-1.822667718E-1,1.123991162E-1
6.910062072E0,1.861610413E-1,-2.531270981E-1,1.857028902E-1
6.926728738E0,1.660024971E-1,-3.545306325E-1,1.606574357E-1
6.943395404E0,1.572976820E-2,-3.374264240E-1,9.590577334E-2
6.960062070E0,-1.382081509E-1,-3.526980579E-1,1.130099818E-1
6.976728736E0,-1.620318890E-1,-4.797579348E-1,1.985310465E-1
6.993395402E0,-1.088866442E-1,-5.646681190E-1,2.657261789E-1
7.010062068E0,-1.925751269E-1,-5.548942685E-1,3.310887218E-1
7.026728734E0,-5.939132571E-1,-7.784708142E-1,5.094612241E-1
7.043395400E0,-1.058170557E0,-1.300149322E0,7.971785665E-1
7.060062066E0,-1.289688230E0,-1.535943151E0,1.078176379E0
7.076728732E0,-1.414304733E0,-1.450422049E0,1.305418015E0
7.093395398E0,-1.282357931E0,-1.158428669E0,1.332906961E0
7.110062064E0,-1.001971006E0,-7.577013969E-1,1.256548882E0
7.126728730E0,-7.600684762E-1,-5.982657075E-1,1.092837095E0
7.143395396E0,-6.385064125E-1,-8.352812529E-1,8.869756460E-1
7.160062062E0,-5.731438994E-1,-9.721149206E-1,8.106175661E-1
7.176728728E0,-5.364919901E-1,-1.041142702E0,6.536253095E-1
7.193395394E0,-5.004509687E-1,-9.232457280E-1,3.475820720E-1
7.210062060E0,-4.082103968E-1,-4.754818678E-1,3.139844835E-1
7.226728726E0,-3.422369957E-1,1.687514037E-2,4.159989059E-1
7.243395392E0,-3.935496211E-1,1.585957706E-1,4.911352694E-1
7.260062058E0,-7.735075355E-1,-1.456148922E-1,4.221075773E-1
7.276728724E0,-8.675807118E-1,-5.597811937E-1,4.318813980E-1
7.293395390E0,-6.586649418E-1,-7.296016216E-1,6.200277805E-1
7.310062056E0,-6.965385675E-1,-9.898300171E-1,8.515455127E-1
7.326728722E0,-9.622647166E-1,-1.173089504E0,8.961386085E-1
7.343395388E0,-1.300683856E0,-9.232457280E-1,7.318159938E-1
7.360062054E0,-1.890168309E0,-2.268599123E-1,5.064069033E-1
7.376728720E0,-2.614654064E0,5.568795800E-1,3.127627671E-1
7.393395386E0,-3.205360174E0,1.373605847E0,3.060432673E-1
7.410062052E0,-3.823555470E0,1.992411852E0,1.655443609E-1
7.426728718E0,-4.376998901E0,2.139630318E0,-5.681042373E-2
7.443395384E0,-4.659829140E0,1.136590242E0,-1.771507859E-1
7.460062050E0,-4.497950077E0,-4.431060255E-1,4.276053514E-3
7.476728716E0,-4.471072197E0,-2.190790176E0,6.267472506E-1
7.493395382E0,-4.703811646E0,-3.382587433E0,1.321911335E0
7.510062048E0,-4.355618477E0,-3.421682596E0,1.331685185E0
7.526728714E0,-3.236514330E0,-3.435732603E0,6.224712133E-1
7.543395380E0,-2.029445410E0,-3.436954260E0,8.491020650E-2
7.560062046E0,-1.003803492E0,-3.322722673E0,4.465421438E-1
7.576728712E0,-4.118755758E-1,-2.826089621E0,1.171638608E0
7.593395378E0,-1.516471803E-1,-3.287903309E0,1.346346021E0
7.610062044E0,-1.278234571E-1,-3.912207127E0,1.773340464E0
7.626728710E0,7.131846249E-2,-3.478493214E0,2.349996805E0
7.643395376E0,6.296488643E-1,-1.316642642E0,2.626107693E0
7.660062042E0,1.391397238E0,7.920625210E-1,2.266308308E0
7.676728708E0,2.096335173E0,1.768835306E0,1.922391415E0
7.693395374E0,2.384052515E0,2.190943003E0,1.943160892E0
7.710062040E0,2.253327370E0,2.233092546E0,1.821598768E0
7.726728706E0,1.492800832E0,2.251418591E0,1.677434683E0
7.743395372E0,1.330158114E-1,1.455461740E0,1.578474641E0
7.760062038E0,-9.188933372E-1,5.141190886E-1,1.700647593E0
7.776728704E0,-7.857248187E-1,-8.872047067E-1,1.640171885E0
7.793395370E0,1.452330947E-1,-2.351447582E0,1.051909208E0
7.810062036E0,5.490147471E-1,-3.077765942E0,5.253437161E-1
7.826728702E0,1.421787739E-1,-2.034408808E0,5.870410800E-1
7.843395368E0,-7.545707226E-1,-3.594175577E-1,3.048215210E-1
7.860062034E0,-1.554803610E0,6.442332864E-1,-4.856374860E-1
7.876728700E0,-2.075871229E0,1.433470607E0,-1.340848207E0
7.893395366E0,-2.742935658E0,1.135979414E0,-2.142913580E0
7.910062032E0,-3.454592943E0,3.216966689E-1,-2.375653028E0
7.926728698E0,-3.604865789E0,-2.891681194E-1,-2.427576542E0
7.943395364E0,-2.902982235E0,-1.096731305E0,-2.205221891E0
7.960062030E0,-1.330616236E0,-2.279365540E0,-1.976758480E0
7.976728696E0,1.091920808E-1,-2.928714752E0,-1.783114314E0
7.993395362E0,1.096960425E0,-2.756450891E0,-1.871078849E0
8.010062028E0,1.443931580E0,-2.490724802E0,-2.293186426E0
8.026728694E0,1.590539217E0,-4.253909588E-1,-2.607781649E0
8.043395360E0,1.965457499E-1,1.183626890E0,-1.896124244E0
8.060062026E0,-1.997069716E0,8.360447884E-1,-1.631619811E0
8.076728692E0,-2.047160625E0,-5.665007234E-1,-1.199127555E0
8.093395358E0,1.013882875E0,-1.499291301E0,5.277871490E-1
8.110062024E0,1.014493704E0,-1.371620536E0,9.169080257E-1
8.126728690E0,2.244928107E-2,-1.319697022E0,5.949822664E-1
8.143395356E0,2.244928107E-2,-1.319697022E0,5.949822664E-1
8.160062022E0,2.244928107E-2,-1.319697022E0,5.949822664E-1
8.176728688E0,2.244928107E-2,-1.319697022E0,5.949822664E-1
8.193395354E0,2.244928107E-2,-1.319697022E0,5.949822664E-1
8.210062020E0,-1.866344571E0,-2.372446060E-1,1.698204130E-1
8.226728686E0,-1.899942160E0,-5.750528574E-1,-4.483747482E-1
8.243395352E0,-1.692248106E0,-7.412080765E-1,-3.738492429E-1
8.260062018E0,-5.768090487E-1,-1.197524071E0,7.696896046E-2
8.276728684E0,-2.383899838E-1,-9.574542046E-1,2.577849329E-1
8.293395350E0,-5.731438994E-1,-4.406625926E-1,5.827649832E-1
8.310062016E0,-6.721040010E-1,6.338485479E-1,9.034690261E-1
8.326728682E0,-1.089935541E0,2.450560331E0,1.979201883E-1
8.343395348E0,-1.254868984E0,3.825006247E0,-4.123337269E-1
8.360062014E0,-1.503490925E0,4.892187119E0,-3.597993553E-1
8.376728680E0,-2.254854679E0,5.597735882E0,4.899135530E-1
8.393395346E0,-2.106414557E0,4.842706680E0,1.136819363E0
8.410062012E0,-4.595230222E-1,3.664959669E0,1.907119870E0
8.426728678E0,2.366337538E0,2.677191257E0,2.637714148E0
8.443395344E0,5.438987255E0,3.413894176E0,2.905883789E0
8.460062010E0,7.996677876E0,3.066922903E0,2.930929184E0
8.476728676E0,9.547663689E0,-1.634903193E0,2.270584345E0
8.493395342E0,1.042730904E1,-4.182820320E0,1.262046576E0
8.510062008E0,1.099358082E1,-4.267730236E0,9.077450633E-1
8.526728674E0,1.094349003E1,-3.681910992E0,7.916807532E-1
8.543395340E0,1.012309837E1,-2.573191643E0,1.110552192E0
8.560062006E0,8.741322517E0,-2.526765823E0,1.208290577E0
8.576728672E0,7.077937603E0,-2.763170481E0,8.552106619E-1
8.593395338E0,5.825053692E0,-2.622671604E0,6.236929297E-1
8.610062004E0,5.105454922E0,-2.119929790E0,4.257727563E-1
8.626728670E0,4.734049320E0,-1.352072835E0,1.490510106E-1
8.643395336E0,4.513526917E0,-6.000983119E-1,1.423314959E-1
8.660062002E0,3.853793144E0,-3.862956166E-1,2.889390290E-1
8.676728668E0,2.114050388E0,-6.770672202E-1,1.557705253E-1
8.693395334E0,5.380191803E-1,-6.349175572E-1,-1.612683088E-1
8.710062000E0,-2.163988501E-1,-7.283799052E-1,-3.555232882E-1
8.726728666E0,-6.806560755E-1,-7.399863005E-1,-4.972439408E-1
8.743395332E0,-1.286023021E0,-7.228820920E-1,-5.082395077E-1
8.760061998E0,-2.311665058E0,-6.648499370E-1,-1.832594275E-1
8.776728664E0,-3.549887896E0,-6.746237874E-1,1.380554438E-1
8.793395330E0,-4.202902317E0,-6.886736751E-1,1.252272725E-1
8.810061996E0,-4.286591053E0,-5.695550442E-1,6.108647794E-4
8.826728662E0,-3.944506645E0,2.923751473E-1,-6.291907430E-1
8.843395328E0,-3.353189468E0,1.197065949E0,-1.591913581E0
8.860061994E0,-2.428951025E0,1.410868526E0,-2.638935804E0
8.876728660E0,-1.446680546E0,1.248378515E0,-2.208887100E0
8.893395326E0,-1.449276656E-1,1.757839799E0,-1.012202978E0
8.910061992E0,7.567087412E-1,1.329012632E0,-5.510000587E-1
8.926728658E0,1.468366265E0,4.713585377E-1,-5.668824911E-1
8.943395324E0,1.909410596E0,-7.192169428E-1,3.665188793E-3
8.960061990E0,1.512348533E0,-1.439426541E0,8.717040420E-1
8.976728656E0,4.219548404E-1,-1.581147075E0,1.060461283E0
8.993395322E0,-5.761982203E-1,-7.876337767E-1,3.213148713E-1
9.010061988E0,-7.869465351E-1,3.669006526E-1,-9.865466356E-1
9.026728654E0,-2.823722363E-1,1.156137943E0,-2.238208532E0
9.043395320E0,7.498364896E-2,1.168966055E0,-3.684125423E0
9.060061986E0,8.019127250E-1,1.078558087E0,-3.189935923E0
9.076728652E0,1.183092356E0,3.339139521E-1,-1.931554437E0
9.093395318E0,1.453705430E0,-4.360047355E-2,-9.822705388E-1
9.110061984E0,1.990044713E0,-5.948295817E-2,-6.255255342E-1
9.126728650E0,2.820209980E0,4.741837829E-2,-2.113592178E-1
9.143395316E0,3.395033836E0,-2.115882933E-1,8.368847519E-2
9.160061982E0,3.182452679E0,-7.864120603E-1,8.918625861E-2
9.176728648E0,2.355341911E0,-5.310705900E-1,1.288924664E-1
9.193395314E0,1.481805205E0,-1.040760875E-1,-1.203403622E-1
9.210061980E0,1.113453746E0,-6.520217657E-1,-2.321286201E-1
9.226728646E0,7.964149714E-1,-1.088179231E0,2.217439115E-1
9.243395312E0,1.409570426E-1,-1.278158188E0,1.194240689E0
9.260061978E0,-7.026472092E-1,-1.166980863E0,1.946826100E0
9.276728644E0,-1.110704899E0,-1.177365541E0,2.020740747E0
9.293395310E0,-4.876227975E-1,-7.780890167E-2,-8.936951756E-1
9.310061976E0,-6.623301506E-1,-4.773144722E-1,-6.878337264E-1
9.326728642E0,-1.133917689E0,-4.351648092E-1,1.380554438E-1
9.343395308E0,-1.052061915E0,1.897498667E-1,-5.497782826E-1
9.360061974E0,-1.717293620E0,8.407026529E-2,4.715875983E-1
9.376728640E0,-1.613446593E0,2.092975378E-1,-2.461785078E-1
9.393395306E0,-4.485274553E-1,-2.396880686E-1,-3.463603258E-1
9.410061972E0,7.231112123E-1,-9.629519582E-1,4.276053514E-3
9.426728638E0,2.722929716E-1,-7.454841137E-1,1.203403622E-1
9.443395304E0,-1.027016401E0,-6.263654828E-1,1.631008983E-1
9.460061970E0,-1.296407819E0,-6.131555140E-2,-2.816086709E-1
9.476728636E0,-9.225585461E-1,3.491855860E-1,-7.299833894E-1
9.493395302E0,-9.384410381E-1,5.464949012E-1,-1.036026716E0
9.510061968E0,-1.209664941E0,7.505237460E-1,-1.076954603E0
9.526728634E0,-9.097303748E-1,2.691622972E-1,-7.489202023E-1
9.543395300E0,-7.698423266E-1,-4.669297636E-1,-3.219257295E-1
9.560061966E0,-7.032580972E-1,-8.065705895E-1,-5.619955808E-2
9.576728632E0,-3.904953003E-1,-8.120683432E-1,-3.420842886E-1
9.593395298E0,-3.214675784E-1,-4.449386299E-1,-3.805687428E-1
9.610061964E0,-6.696605086E-1,3.275762498E-2,-6.352993846E-1
9.626728630E0,-9.256128669E-1,1.030070707E-1,-2.974911332E-1
9.643395296E0,-5.865828991E-1,1.115591824E-1,5.864302069E-2
9.660061962E0,-3.697259128E-1,-4.115701467E-2,2.406807244E-1
9.676728628E0,-6.979130208E-2,-4.192823172E-1,4.886918366E-1
9.693395294E0,-5.329795182E-2,-1.700494885E-1,1.527161896E-1
9.710061960E0,-6.067414284E-1,4.542543292E-1,-4.043924809E-1
9.726728626E0,-5.248855352E-1,3.827831447E-1,-6.902772188E-1
9.743395292E0,2.881754637E-1,-3.514763117E-1,-5.051851869E-1
9.760061958E0,-4.535670951E-2,-9.208022952E-1,-2.321286201E-1
9.776728624E0,1.153007299E-1,-1.094287872E0,-7.055488229E-1
9.793395290E0,-4.815141559E-1,-7.686969638E-1,-2.180787325E-1
9.810061956E0,-8.017600328E-2,-6.984475255E-1,-3.640754223E-1
9.826728622E0,-1.992946416E-1,-4.528798759E-1,-3.072649837E-1
9.843395288E0,-2.383899838E-1,-1.376736462E-1,-3.976729810E-1
9.860061954E0,-7.162389904E-2,-7.414371520E-2,-5.033525825E-1
9.876728620E0,-6.795870513E-2,-2.635118067E-1,-5.424479246E-1
9.893395286E0,-7.635809598E-4,-4.852557182E-1,-2.565632015E-2
9.910061952E0,-2.848156989E-1,-3.972911835E-1,-1.514944583E-1
9.926728618E0,-5.542070866E-1,-4.327213466E-1,-1.832594275E-1
9.943395284E0,-8.859066367E-1,-5.096902847E-1,-4.141663313E-1
9.960061950E0,-7.735075355E-1,-7.106648088E-1,-3.946186602E-1
9.976728616E0,-6.837103963E-1,-7.686969638E-1,-5.913171172E-1
9.993395282E0,-7.509055138E-1,-8.120683432E-1,-5.180133581E-1
1.001006195E1,-6.922625303E-1,-1.430263519E0,-4.184423685E-1
1.002672861E1,-6.281217337E-1,-2.024634838E0,-4.838049114E-1
1.004339528E1,-9.103412628E-1,-2.188957691E0,-5.125155449E-1
1.006006195E1,-1.266475439E0,-2.305632830E0,-2.962694168E-1
1.007672861E1,-1.154076338E0,-2.134590626E0,-4.502073526E-1
1.009339528E1,-6.635518670E-1,-2.673373461E0,-1.207679629E0
1.011006194E1,-7.044798136E-1,-2.244546175E0,-1.294422507E0
1.012672861E1,-5.694786906E-1,-4.522690177E-1,-2.208276272E0
1.014339528E1,-1.207221508E0,-5.048033595E-1,-1.043357015E0
1.016006194E1,-1.631161690E0,6.289616227E-1,-5.644390583E-1
1.017672861E1,-4.631882310E-1,-1.902080178E-1,-7.269290686E-1
1.019339527E1,-2.090684772E-1,-8.468876481E-1,-5.222893953E-1
1.021006194E1,7.559451461E-2,-8.181769848E-1,-4.740310609E-1
1.022672861E1,1.220202371E-1,-2.091448307E-1,-2.828303874E-1
1.024339527E1,-1.339320987E-1,-2.659552395E-1,4.948004782E-1
1.026006194E1,-5.658134818E-1,-4.431060255E-1,1.372002244E0
1.027672860E1,-7.044798136E-1,-6.251437664E-1,2.032958031E0
1.029339527E1,-7.631227970E-1,-4.009563625E-1,2.130085468E0
1.031006194E1,-8.266527653E-1,-3.490328491E-1,2.035401344E0
1.032672860E1,-7.557924390E-1,-2.176969349E-1,1.727525592E0
1.034339527E1,-5.035052896E-1,4.499782622E-1,1.030528903E0
1.036006193E1,-2.597702444E-1,5.336667299E-1,2.247982323E-1
1.037672860E1,-3.741546720E-2,8.177188635E-1,-1.301141977E-1
1.039339527E1,3.523162603E-1,1.388877392E0,-2.309068888E-1
1.041006193E1,9.332486391E-1,1.830532670E0,-1.466075517E-2
1.042672860E1,1.381623387E0,1.989968419E0,4.111120105E-1
1.044339526E1,1.506239772E0,1.352836370E0,4.306596816E-1
1.046006193E1,1.608254194E0,8.714749813E-1,1.423314959E-1
1.047672860E1,1.725540280E0,4.127155244E-1,-1.631008983E-1
1.049339526E1,1.836717725E0,6.513345987E-2,-2.993237376E-1
1.051006193E1,1.935066938E0,-7.353284955E-2,-2.516762912E-1
1.052672859E1,2.084117889E0,3.336848691E-2,-1.343902480E-2
1.054339526E1,2.128100157E0,-6.070468575E-2,1.795942485E-1
1.056006193E1,1.833663344E0,-5.103011727E-1,3.323104382E-1
1.057672859E1,1.365740895E0,-9.397391081E-1,6.420188546E-1
1.059339526E1,1.090240955E0,-1.301371098E0,8.723149300E-1
1.061006192E1,1.316871762E0,-1.556712508E0,7.531962991E-1
1.062672859E1,1.875202179E0,-1.560377717E0,2.449567765E-1
1.064339526E1,2.375500441E0,-1.377729177E0,-3.121519089E-1
1.066006192E1,2.813490391E0,-1.334968567E0,-9.211840630E-1
1.067672859E1,2.884961605E0,-8.688787818E-1,-1.415373683E0
1.069339525E1,2.145815372E0,-3.759109080E-1,-1.642004490E0
1.071006192E1,1.109788537E0,-6.498073786E-2,-1.635895848E0
1.072672859E1,3.804160357E-1,3.333030939E-1,-1.458745122E0
1.074339525E1,6.154462695E-2,7.761800885E-1,-1.144149780E0
1.076006192E1,-6.872228812E-3,9.252310395E-1,-8.692606091E-1
1.077672858E1,4.566214234E-2,1.236772060E0,-5.320632458E-1
1.079339525E1,1.892153621E-1,1.701029301E0,-6.841685623E-2
1.081006192E1,2.441931963E-1,1.974696755E0,4.575377107E-1
1.082672858E1,2.832885385E-1,1.459737778E0,4.862483740E-1
1.084339525E1,5.288561583E-1,3.870591819E-1,1.789833754E-1
1.086006191E1,8.324559927E-1,-5.970439911E-1,1.527161989E-2
1.087672858E1,1.433546901E0,-5.701659322E-1,1.178968996E-1
1.089339525E1,2.192240953E0,-4.516581595E-1,5.705476999E-1
1.091006191E1,2.812879562E0,-5.329031348E-1,9.162971973E-1
1.092672858E1,3.225824118E0,-5.219075680E-1,5.809323788E-1
1.094339524E1,2.997971535E0,-8.939242363E-1,-1.966984570E-1
1.096006191E1,2.586859703E0,-2.017304659E0,-1.123991251E0
1.097672858E1,2.522107840E0,-1.929950953E0,-1.497229576E0
1.099339524E1,2.489121199E0,-1.801669359E0,-1.347567677E0
1.101006191E1,2.327852964E0,-1.906738043E0,-1.131932378E0
1.102672857E1,2.069457054E0,-1.714926481E0,-1.090393662E0
1.104339524E1,1.806174397E0,-1.639179230E0,-1.444084287E0
1.106006191E1,1.654680014E0,-1.716148257E0,-1.752571106E0
1.107672857E1,1.494633436E0,-1.529223561E0,-1.729969025E0
1.109339524E1,1.269835114E0,-1.338022947E0,-1.671936870E0
1.111006190E1,8.617774844E-1,-1.211573958E0,-1.494786143E0
1.112672857E1,1.886045039E-1,-1.273882151E0,-7.409789562E-1
1.114339524E1,-2.842048407E-1,-1.656894326E0,-1.692095399E-1
1.116006190E1,-2.322813272E-1,-2.002032995E0,-2.107483447E-1
1.117672857E1,-4.108065739E-2,-2.071671486E0,-3.329212964E-1
1.119339523E1,3.370446563E-1,-1.754632711E0,-4.642572403E-1
1.121006190E1,6.308705807E-1,-1.655672669E0,-6.603448391E-1
1.122672857E1,5.141954422E-1,-1.317864418E0,-8.973603845E-1
1.124339523E1,1.605047137E-1,-9.971603751E-1,-9.865466356E-1
1.126006190E1,-1.876882017E-1,-6.795107126E-1,-9.706641436E-1
1.127672856E1,-7.722858191E-1,-1.712712198E-1,-7.312051654E-1
1.129339523E1,-1.599396706E0,1.543197185E-1,-4.905244112E-1
1.131006190E1,-2.267682791E0,5.263363719E-1,-5.375609994E-1
1.132672856E1,-2.752709389E0,8.488729596E-1,-7.617483735E-1
1.134339523E1,-3.052033186E0,1.301523805E0,-9.908226728E-1
1.136006189E1,-3.617083073E0,1.928271055E0,-1.149036646E0
1.137672856E1,-3.995819330E0,2.368093729E0,-1.121547699E0
1.139339523E1,-3.711767197E0,2.149404049E0,-9.529490471E-1
1.141006189E1,-3.670839071E0,2.151236773E0,-5.968148708E-1
1.142672856E1,-4.070344925E0,2.137186766E0,-2.156352699E-1
1.144339522E1,-4.341568470E0,1.813428402E0,-6.719512492E-2
1.146006189E1,-3.424660683E0,1.314351916E0,-3.139844835E-1
1.147672856E1,-2.001956701E0,7.932842970E-1,-4.410443604E-1
1.149339522E1,-6.427824497E-1,3.442986608E-1,-3.200931549E-1
1.151006189E1,4.549415410E-1,2.542724647E-2,-1.795942485E-1
1.152672855E1,1.049923897E0,-1.969275326E-1,-5.400044918E-1
1.154339522E1,1.388953805E0,-4.003455043E-1,-7.336485982E-1
1.156006189E1,1.633299708E0,-1.981492639E-1,-6.658425927E-1
1.157672855E1,1.456759810E0,3.473529816E-1,-7.874047160E-1
1.159339522E1,1.006399691E-1,7.419716120E-1,-1.657276154E0
1.161006188E1,-1.475391150E0,9.649372697E-1,-2.809978008E0
1.162672855E1,-2.262185097E0,6.112465858E-1,-3.706727505E0
1.164339522E1,-1.330005288E0,2.013563067E-1,-3.974286318E0
1.166006188E1,1.638797522E0,-4.577668011E-1,-3.501477003E0
1.167672855E1,2.272264242E0,-3.655261993E-1,-3.266904831E0
1.169339521E1,1.922849655E0,-3.282634616E-1,-3.131903648E0
1.171006188E1,1.451872826E0,3.614028692E-1,-2.786765099E0
1.172672855E1,6.046034098E-1,8.012255430E-1,-2.772715330E0
1.174339521E1,-1.718057245E-1,7.511346340E-1,-2.954752922E0
1.176006188E1,-7.087558508E-1,8.219949007E-1,-2.914435863E0
1.177672854E1,-1.767995358E0,1.220889568E0,-2.293186426E0
1.179339521E1,-3.103956699E0,1.425529361E0,-1.544877052E0
1.181006188E1,-3.656178474E0,1.708359718E0,-1.375667453E0
1.182672854E1,-3.150382280E0,1.486615777E0,-1.715308309E0
1.184339521E1,-2.654360294E0,8.794162273E-1,-2.280358315E0
1.186006187E1,-2.120464325E0,1.750891209E-1,-2.543030024E0
1.187672854E1,-2.153450966E0,-2.280816436E-1,-2.287688494E0
1.189339521E1,-2.830289125E0,2.703840137E-1,-1.756236196E0
1.191006187E1,-3.884641886E0,8.207731843E-1,-1.315191865E0
1.192672854E1,-4.548040867E0,1.112766504E0,-1.260214090E0
1.194339520E1,-4.338514328E0,1.141477227E0,-1.839313865E0
1.196006187E1,-3.648848057E0,8.482621312E-1,-2.099542141E0
1.197672854E1,-2.148564100E0,2.176205814E-2,-1.605963469E0
1.199339520E1,1.000291109E-1,-6.098721027E-1,-8.313869834E-1
1.201006187E1,1.097571254E0,-1.198134899E0,7.086031139E-2
1.202672853E1,6.968439817E-1,-1.204243541E0,1.089171886E0
1.204339520E1,-4.108065739E-2,-1.804341823E-1,1.386663079E0
1.206006187E1,-8.761327863E-1,4.432587624E-1,1.523496747E0
1.207672853E1,-1.451567411E0,2.685514390E-1,1.910174131E0
1.209339520E1,-1.212719321E0,-1.733328775E-2,2.282801628E0
1.211006186E1,-9.494366050E-1,-9.079741240E-1,2.455676317E0
1.212672853E1,-1.337335706E0,-1.620242476E0,2.108705282E0
1.214339520E1,-1.683696032E0,-2.366719246E0,1.284648657E0
1.216006186E1,-2.075260401E0,-2.257374525E0,6.096430421E-1
1.217672853E1,-2.452163935E0,-3.112585068E0,2.846629918E-1
1.219339519E1,-2.581056356E0,-5.078958988E0,8.888082504E-1
1.221006186E1,-2.576780319E0,-6.383155346E0,1.674991250E0
1.222672853E1,-2.306778193E0,-6.998907089E0,2.612057686E0
1.224339519E1,-1.691637278E0,-6.618338108E0,3.112967014E0
1.226006186E1,-8.480330110E-1,-4.360581875E0,3.078147650E0
1.227672852E1,-7.162389904E-2,-2.319071770E0,2.486830473E0
1.229339519E1,7.365502119E-1,-1.296484113E0,1.806938052E0
1.231006186E1,5.887209177E-1,-1.515173674E0,3.591884971E-1
1.232672852E1,1.287397593E-1,4.768563211E-1,-1.417206228E-1
1.234339519E1,5.177079141E-2,2.371148109E0,-9.773836471E-3
1.236006185E1,6.520981342E-2,2.582507133E0,2.040288299E-1
1.237672852E1,5.787943676E-2,1.876347542E0,5.681042671E-1
1.239339519E1,3.364337683E-1,1.012584686E0,7.012727857E-1
1.241006185E1,5.288561583E-1,1.000978351E0,6.737838387E-1
1.242672852E1,7.925970852E-2,1.118264318E0,6.126973629E-1
1.244339518E1,-6.934842467E-1,1.636277676E0,4.630354941E-1
1.246006185E1,-1.010523081E0,2.040670156E0,3.799578846E-1
1.247672852E1,-8.712459207E-1,1.726074815E0,3.414734006E-1
1.249339518E1,-6.385064125E-1,9.020181894E-1,2.565632164E-1
1.251006185E1,-3.556760252E-1,2.380081862E-1,1.863137633E-1
1.252672851E1,-1.052214578E-1,1.592066288E-1,-6.352993846E-2
1.254339518E1,9.575305134E-2,2.758817971E-1,-2.797760665E-1
1.256006185E1,2.826776803E-1,6.222421527E-1,-2.797760665E-1
1.257672851E1,3.321577311E-1,8.586468101E-1,-2.321286201E-1
1.259339518E1,1.206457894E-2,6.772199869E-1,-2.284634262E-1
1.261006184E1,-2.805396616E-1,6.491202116E-1,-5.925388262E-2
1.262672851E1,-4.625773430E-1,6.259073019E-1,1.637117565E-1
1.264339518E1,-5.065596104E-1,4.035525322E-1,4.434878230E-1
1.266006184E1,-6.421716213E-1,7.975603342E-1,4.599811733E-1
1.267672851E1,-1.499825716E0,6.265181899E-1,-5.681042671E-1
1.269339517E1,-1.708130598E0,8.641445637E-1,-7.452550530E-1
1.271006184E1,-1.457065225E0,4.680751264E-2,-5.772672296E-1
1.272672851E1,-9.628756046E-1,-1.215849996E0,-3.940077722E-1
1.274339517E1,-4.204276800E-1,-1.397887707E0,-2.284634262E-1
1.276006184E1,-3.281871080E-1,-1.132772326E0,-4.324922562E-1
1.277672850E1,-8.663589954E-1,-1.743255407E-1,-7.495310903E-1
1.279339517E1,-1.388037443E0,1.680259943E0,-9.126319885E-1
1.281006184E1,-1.730121732E0,1.840306520E0,-7.574723363E-1
1.282672850E1,-1.425911069E0,8.311578631E-1,-5.186241865E-1
1.284339517E1,-1.076496482E0,-1.388953775E-1,-2.669478953E-1
1.286006183E1,-7.399099469E-1,-1.002658129E0,8.918625861E-2
1.287672850E1,-1.785252392E-1,-1.464471936E0,2.345720828E-1
1.289339517E1,2.289215773E-1,-1.757076144E0,2.107483447E-1
1.291006183E1,2.490801066E-1,-1.399720311E0,1.038470119E-2
1.292672850E1,4.932733253E-2,-1.008155942E0,-5.131264031E-2
1.294339516E1,2.124282271E-1,-1.257388830E0,6.719512399E-3
1.296006183E1,2.582430840E-1,-1.737528563E0,-1.893680729E-2
1.297672850E1,3.657552898E-1,-1.569540739E0,5.497783050E-2
1.299339516E1,8.159626126E-1,-1.816559136E-1,-2.993237376E-1
1.301006183E1,1.027932763E0,1.040684462E0,-4.190532267E-1
1.302672849E1,6.559160352E-1,7.639627457E-1,-9.773836285E-2
1.304339516E1,1.005330682E0,-1.321758628E-1,2.632827163E-1
1.306006183E1,6.382009983E-1,-7.454841137E-1,4.715875983E-1
1.307672849E1,-3.130681813E-2,-1.058246851E0,3.982838392E-1
1.309339516E1,-7.838922143E-1,-1.157207012E0,6.853902936E-1
1.311006182E1,-1.053894520E0,-1.171256900E0,9.700532556E-1
1.312672849E1,-1.028238177E0,-1.312977433E0,8.906408548E-1
1.314339516E1,-9.127846956E-1,-1.347796798E0,8.057306409E-1
1.316006182E1,-7.594576478E-1,-1.446146011E0,8.643736839E-1
1.317672849E1,-7.759509683E-1,-1.319697022E0,9.352339506E-1
1.319339515E1,-7.680097222E-1,-1.017929792E0,9.303470850E-1
1.321006182E1,-5.145008564E-1,-9.189696908E-1,1.013424635E0
1.322672849E1,-2.519817278E-2,-8.022945523E-1,1.166140914E0
1.324339515E1,4.567741454E-1,-8.285617232E-1,1.166751742E0
1.326006182E1,7.102830410E-1,-7.149408460E-1,9.425643682E-1
1.327672848E1,9.167553186E-1,-3.478111327E-1,6.829468012E-1
1.329339515E1,1.134223223E0,-7.964149863E-2,6.994401813E-1
1.331006182E1,1.188590169E0,-1.034652218E-1,8.301652074E-1
1.332672848E1,1.031597853E0,-1.553887278E-1,1.026252866E0
1.334339515E1,8.410080671E-1,-4.033998251E-1,1.032361507E0
1.336006181E1,5.997164845E-1,-6.984475255E-1,8.197805285E-1
1.337672848E1,3.736965358E-1,-5.090794563E-1,4.538725317E-1
1.339339515E1,3.046688139E-1,-5.765036494E-2,1.887572110E-1
1.341006181E1,3.840812445E-1,3.516290486E-1,-1.038470119E-2
1.342672848E1,5.178605914E-1,8.006146550E-1,-2.748891525E-2
1.344339514E1,5.270236135E-1,8.146645427E-1,1.099556591E-2
1.346006181E1,2.912297845E-1,5.776489973E-1,7.391463965E-2
1.347672848E1,1.069013379E-3,2.593884468E-1,1.362228394E-1
1.349339514E1,-1.742491722E-1,1.818086356E-1,1.325576603E-1
1.351006181E1,-2.237292230E-1,3.766745031E-1,1.710421406E-2
1.352672847E1,-1.229365394E-1,6.399571896E-1,-9.285144508E-2
1.354339514E1,7.498364896E-2,5.587121844E-1,-1.246164143E-1
1.356006181E1,2.325867712E-1,4.212676287E-1,-1.044578776E-1
1.357672847E1,1.904370934E-1,2.807687223E-1,-8.918625861E-2
1.359339514E1,-4.596757516E-2,3.642281145E-2,3.054323839E-3
1.361006180E1,-3.538434207E-1,-1.938732117E-1,1.240055487E-1
1.362672847E1,-5.419898033E-1,-2.054796368E-1,1.527161896E-1
1.364339514E1,-5.254964232E-1,-5.398517475E-2,1.282816082E-1
1.366006180E1,-3.611738086E-1,2.092975378E-1,1.160643063E-2
1.367672847E1,-1.907425225E-1,3.565159440E-1,-1.111773923E-1
1.369339513E1,-1.736383140E-1,3.760636151E-1,-1.936441362E-1
1.371006180E1,-3.281871080E-1,2.856556475E-1,-1.588248461E-1
1.372672847E1,-3.813323379E-1,1.909715980E-1,-7.941242307E-2
1.374339513E1,-3.074176908E-1,4.986183718E-2,-7.941242307E-3
1.376006180E1,-2.579376400E-1,-6.253728271E-2,5.192350596E-2
1.377672846E1,-2.396117151E-1,-5.398517475E-2,8.063415438E-2
1.379339513E1,-2.218966335E-1,9.544761851E-3,2.015853859E-2
1.381006180E1,-1.901316643E-1,1.137735695E-2,-8.307760954E-2
1.382672846E1,-1.400407553E-1,4.192059487E-2,-1.588248461E-1
1.384339513E1,-8.933897316E-2,1.158352345E-1,-1.759290546E-1
1.386006179E1,-8.445205539E-2,6.635518372E-2,-1.453858167E-1
1.387672846E1,-1.149952933E-1,-1.000291109E-2,-1.136208475E-1
1.389339513E1,-1.094975099E-1,3.092502989E-2,-1.172860414E-1
1.391006179E1,-5.635227636E-2,7.368556410E-2,-1.197294965E-1
1.392672846E1,5.054906011E-2,7.101302966E-3,-2.993237413E-2
1.394339512E1,8.170316368E-2,-8.269581944E-2,3.726275265E-2
1.396006179E1,3.711003438E-2,-4.176788032E-2,8.613193035E-2
1.397672846E1,-2.947422490E-2,-6.337722298E-3,9.407317638E-2
1.399339512E1,-4.657844082E-2,2.298378758E-2,8.124501258E-2
1.401006179E1,-3.863719851E-2,6.452259421E-2,3.298669681E-2
1.402672845E1,-5.268708616E-2,7.246383280E-2,-1.160643063E-2
1.404339512E1,-8.261945844E-2,3.703367710E-2,-4.092793912E-2
1.406006179E1,-9.605848789E-2,-2.405280061E-2,-2.748891525E-2
1.407672845E1,-8.750637621E-2,-4.970912263E-2,6.108647678E-3
1.409339512E1,-4.046979174E-2,-9.735657275E-2,3.359756246E-2
1.411006178E1,-2.519817278E-2,-1.425605714E-1,2.687804960E-2
1.412672845E1,-7.284562290E-2,-1.156825200E-1,-2.321286127E-2
1.414339512E1,-1.003345400E-1,-5.276344717E-2,-5.986474827E-2
1.416006178E1,-4.230238497E-2,-2.955058403E-2,-4.581485689E-2
1.417672845E1,7.788525894E-3,-7.536543906E-2,-4.337139800E-2
1.419339511E1,-1.664606482E-2,-9.980003536E-2,-6.108647678E-3
1.421006178E1,-7.712167501E-2,-5.581776798E-2,2.687804960E-2
1.422672845E1,-7.406735420E-2,-4.604393244E-2,7.635809481E-2
1.424339511E1,-2.458730713E-2,-3.810269013E-2,8.002328873E-2
1.426006178E1,-5.650499370E-3,-3.993528336E-2,4.092793912E-2
1.427672844E1,-3.436114267E-2,-1.611155830E-2,1.649334840E-2
1.429339511E1,-4.169152305E-2,-3.382663801E-2,6.108647794E-4
1.431006178E1,-2.214384824E-2,-3.993528336E-2,-6.108647678E-3
1.432672844E1,-4.169152305E-2,-2.290742996E-4,-1.649334840E-2
1.434339511E1,-7.834340632E-2,1.198822167E-2,-7.330377586E-3
1.436006177E1,-9.361502528E-2,-2.710712515E-2,1.160643063E-2
1.437672844E1,-9.422589093E-2,-3.382663801E-2,1.588248461E-2
1.439339511E1,-9.422589093E-2,3.459021822E-2,2.687804960E-2
1.441006177E1,-8.506292105E-2,2.298378758E-2,3.848448023E-2
1.442672844E1,-6.185005978E-2,-2.038761228E-2,5.864302069E-2
1.444339510E1,-3.619373962E-2,-2.672533505E-3,6.169734150E-2
1.446006177E1,-5.039634649E-3,9.544761851E-3,4.276053607E-2
1.447672844E1,1.145371422E-2,1.259908639E-2,-3.665188793E-3
1.449339510E1,5.421425030E-2,8.933897130E-3,-2.443459071E-2
1.451006177E1,1.232419685E-1,3.703367710E-2,-1.832594397E-3
1.452672843E1,1.684459597E-1,3.336848691E-2,1.893680729E-2
1.454339510E1,1.678351015E-1,-2.710712515E-2,2.443459071E-2
1.456006177E1,1.006399691E-1,-2.588539571E-2,-2.443459118E-3
1.457672843E1,1.572976820E-2,1.320995111E-2,-5.497782957E-3
1.459339510E1,7.177661173E-3,-3.321577236E-2,2.321286127E-2
1.461006176E1,5.115992576E-2,-1.022434905E-1,5.864302069E-2
1.462672843E1,5.054906011E-2,-6.436987966E-2,6.230820715E-2
1.464339510E1,2.855792828E-2,2.825249685E-3,3.420842811E-2
1.466006176E1,5.787943676E-2,2.787070535E-2,2.382372692E-2
1.467672843E1,8.781181276E-2,-2.344193682E-2,2.687804960E-2
1.469339509E1,8.903354406E-2,-2.405280061E-2,1.954767294E-2
1.471006176E1,1.177441850E-1,-3.199404106E-2,3.298669681E-2
1.472672843E1,1.214093715E-1,-7.231111825E-2,3.909534588E-2
1.474339509E1,1.550069451E-1,-4.298960790E-2,2.260199748E-2
1.476006176E1,2.680169344E-1,6.818778068E-2,-3.176496923E-2
1.477672842E1,4.042397738E-1,1.579848975E-1,-8.857539296E-2
1.479339509E1,5.416843295E-1,2.477820218E-1,-2.223547846E-1
1.481006176E1,7.133373618E-1,6.039161682E-1,-5.448913574E-1
1.482672842E1,1.013882875E0,1.019304276E0,-8.759800792E-1
1.484339509E1,1.314428329E0,1.223333120E0,-9.718858600E-1
1.486006175E1,1.494022489E0,1.107268810E0,-8.112284541E-1
1.487672842E1,1.440266490E0,8.641445637E-1,-5.986474752E-1
1.489339509E1,1.283885002E0,9.258419275E-1,-5.442805290E-1
1.491006175E1,1.183703184E0,1.652770996E0,-5.821541548E-1
1.492672842E1,1.172096848E0,2.548909664E0,-8.820887208E-1
1.494339508E1,1.549000382E0,3.479867458E0,-1.322522283E0
1.496006175E1,2.230114698E0,4.841485023E0,-1.855196357E0
1.497672842E1,2.700480461E0,5.292914391E0,-1.885739565E0
1.499339508E1,2.660163403E0,4.591030598E0,-1.667660832E0
1.501006175E1,2.384663343E0,3.460319996E0,-1.320078731E0
1.502672841E1,1.858097911E0,2.096258879E0,-6.322450638E-1
1.504339508E1,9.106466770E-1,1.382768750E0,-3.787361458E-2
1.506006175E1,9.697478265E-2,1.393153429E0,2.333503515E-1
1.507672841E1,1.818849891E-1,2.523253441E0,-3.090975881E-1
1.509339508E1,5.606211424E-1,3.409618139E0,-9.224058390E-1
1.511006174E1,9.204205275E-1,3.773693562E0,-1.341459036E0
1.512672841E1,9.668462276E-1,3.784689188E0,-1.992030025E0
1.514339508E1,7.469348907E-1,3.016221285E0,-2.561966896E0
1.516006174E1,1.049160287E-1,1.859854221E0,-2.392757416E0
1.517672841E1,-9.158390164E-1,1.149418473E0,-1.431867003E0
1.519339507E1,-1.165682673E0,1.127427340E0,-1.047633052E0
1.521006174E1,-4.027126133E-1,8.488729596E-1,-1.152701855E0
1.522672841E1,5.294670463E-1,7.480802536E-1,-1.224783897E0
1.524339507E1,7.029526234E-1,1.976911128E-1,-1.073900223E0
1.526006174E1,1.133001447E0,-4.418843091E-1,-1.257770538E0
1.527672840E1,1.917962670E0,8.468113095E-2,-2.427576542E0
1.529339507E1,1.784183264E0,-7.515927553E-1,-3.415344954E0
1.531006174E1,1.410334110E0,-1.653229117E0,-3.493535757E0
1.532672840E1,1.120173335E0,-1.529834509E0,-3.288896084E0
1.534339507E1,1.040150046E0,-1.091233611E0,-2.864344835E0
1.536006173E1,1.377347350E0,-1.240895391E0,-1.856418014E0
1.537672840E1,2.140928268E0,-5.610029697E-1,-1.508225083E0
1.539339507E1,2.571588039E0,-3.838521540E-1,-1.798996806E0
1.541006173E1,2.924057007E0,-7.919098139E-1,-1.598633170E0
1.542672840E1,2.760956049E0,-7.564796805E-1,-1.524718523E0
1.544339506E1,2.222784281E0,-4.604393244E-2,-9.217949510E-1
1.546006173E1,1.738368392E0,6.588940024E-1,1.215620935E-1
1.547672840E1,1.678503752E0,7.279217243E-1,6.914989352E-1
1.549339506E1,1.822056890E0,-5.536725521E-1,4.886918366E-1
1.551006173E1,1.019991517E0,-1.435150385E0,5.192350596E-2
1.552672839E1,-2.151771188E-1,-8.456659317E-1,3.811796308E-1
1.554339506E1,-5.908589363E-1,-5.426769853E-1,8.881973624E-1
1.556006173E1,5.936078429E-1,2.893208265E-1,1.601687431E0
1.557672839E1,1.294269800E0,7.340303659E-1,1.205847025E0
1.559339506E1,2.175136805E0,4.719693959E-1,5.552760959E-1
1.561006172E1,3.030347347E0,4.130972922E-2,-4.306596816E-1
1.562672839E1,3.799426317E0,-8.084031940E-1,-1.276707411E0
1.564339506E1,3.916712284E0,-9.782235622E-1,-1.510057688E0
1.566006172E1,4.337597847E0,-4.009563625E-1,-1.186299443E0
1.567672839E1,5.053531647E0,3.638463318E-1,-6.395754218E-1
1.569339505E1,5.756637096E0,7.938951254E-1,-1.893680729E-2
1.571006172E1,5.917905331E0,4.536434710E-1,1.093447953E-1
1.572672839E1,5.763967514E0,-3.429242074E-1,-2.553414702E-1
1.574339505E1,5.649735451E0,-9.824996591E-1,-5.992583632E-1
1.576006172E1,5.863538265E0,-1.365511894E0,-5.100721121E-1
1.577672838E1,5.984489441E0,-1.336801171E0,-1.588248461E-1
1.579339505E1,5.812836647E0,-1.254334450E0,5.131264031E-2
1.581006172E1,5.489688873E0,-1.421711445E0,2.211330533E-1
1.582672838E1,4.925860882E0,-1.570151567E0,4.355465770E-1
1.584339505E1,4.108523846E0,-1.389946461E0,7.110465765E-1
1.586006171E1,3.101818562E0,-1.137659311E0,9.743293524E-1
1.587672838E1,1.914297462E0,-9.049198031E-1,8.032872081E-1
1.589339505E1,1.080467105E0,-9.543998837E-1,2.089157552E-1
1.591006171E1,7.408262491E-1,-1.476078391E0,-1.185077652E-1
1.592672838E1,5.288561583E-1,-1.802280188E0,-2.095266134E-1
1.594339504E1,5.392408967E-1,-1.738750219E0,-1.484401375E-1
1.596006171E1,2.160934210E-1,-1.181641579E0,-2.156352699E-1
1.597672838E1,-2.092211880E-2,-1.038699150E0,-4.477638900E-1
1.599339504E1,-1.504254490E-1,-7.943533063E-1,-9.608902931E-1
1.601006171E1,-4.228711426E-1,-5.426769853E-1,-9.779945016E-1
1.602672837E1,-5.664243698E-1,-2.977202237E-1,-7.183769941E-1
1.604339504E1,-3.202458620E-1,-1.529452652E-1,-6.762273312E-1
1.606006171E1,2.991710305E-1,-2.527453005E-2,-7.660244107E-1
1.607672837E1,-4.295906425E-1,5.782598853E-1,-1.612683058E0
1.609339504E1,-1.950185746E-1,5.654317141E-1,-1.817322731E0
1.611006170E1,2.197586000E-1,1.045571446E0,-1.188132048E0
1.612672837E1,3.376555145E-1,8.659771681E-1,-1.169195175E0
1.614339504E1,-1.052214578E-1,1.604283601E-1,-1.651778340E0
1.616006170E1,-6.177369952E-1,-4.003455043E-1,-1.734856009E0
1.617672837E1,-7.985529900E-1,-2.231947184E-1,-1.815490127E0
1.619339503E1,-6.409498453E-1,-1.388953775E-1,-1.671326041E0
1.621006170E1,-4.167625010E-1,-1.358410567E-1,-1.144760609E0
1.622672837E1,-4.754055142E-1,6.301833987E-1,-1.362228394E-1
1.624339503E1,1.849393100E-1,1.873064190E-1,-8.295543790E-1
1.626006170E1,-2.005163580E-1,-4.974730015E-1,-1.215010047E0
1.627672836E1,-3.605629504E-1,-4.088976085E-1,-7.666352987E-1
1.629339503E1,-3.422369957E-1,1.176678315E-1,-3.457494676E-1
1.631006170E1,-5.114465356E-1,3.168097436E-1,-7.513637096E-2
1.632672836E1,-3.752236962E-1,5.941423774E-1,2.199113183E-2
1.634339503E1,-1.504254490E-1,1.456072569E0,2.822195292E-1
1.636006169E1,7.987056673E-2,1.509217739E0,2.455676347E-1
1.637672836E1,5.984947681E-1,9.960913658E-1,-3.207040131E-1
1.639339503E1,-5.914698243E-1,1.194011569E0,-1.216231823E0
1.641006169E1,-1.968511790E-1,1.176296473E0,-1.076954603E0
1.642672836E1,-4.046979174E-2,8.629228473E-1,-1.064126492E0
1.644339502E1,8.903354406E-2,8.513164520E-1,-9.016364217E-1
1.646006169E1,4.854847789E-1,6.827177405E-1,-1.698204130E-1
1.647672836E1,2.032652497E-1,5.379427671E-1,-2.382372618E-1
1.649339502E1,-2.304487377E-1,-7.964149863E-2,1.282816008E-2
1.651006169E1,-6.519454122E-1,-3.294851780E-1,5.375609994E-1
1.652672835E1,1.366809905E-1,8.834631741E-2,1.541822672E0
1.654339502E1,7.334958911E-1,-3.932442144E-2,9.816597104E-1
1.656006169E1,1.745546162E-1,-2.333732605E0,1.643226266E0
1.657672835E1,-3.776671588E-1,-3.592724800E0,2.621831656E0
1.659339502E1,-1.670256972E0,-3.479714870E0,3.678627729E0
1.661006168E1,-1.904218197E0,-3.621435404E0,4.726260662E0
1.662672835E1,-1.309235930E0,-3.173060656E0,5.306582451E0
1.664339502E1,-4.668534100E-1,-2.468122721E0,4.659676552E0
1.666006168E1,-1.308777779E-1,-2.428416491E0,3.310887098E0
1.667672835E1,-3.770562708E-1,-2.399095058E0,2.571129799E0
1.669339501E1,-2.153298259E-2,-2.268599123E-1,1.889404774E0
1.671006168E1,4.321868345E-2,9.820414782E-1,1.954767346E0
1.672672835E1,-3.281871080E-1,2.073045969E0,2.434296131E0
1.674339501E1,-2.860374451E-1,2.106032610E0,2.258977890E0
1.676006168E1,-8.704823442E-3,8.305470347E-1,1.716530085E0
1.677672834E1,1.965457499E-1,-5.371792316E-1,1.011592031E0
1.679339501E1,3.894263133E-2,-1.533499718E0,7.226530313E-1
1.681006168E1,-1.064431891E-1,-1.993480802E0,8.210022449E-1
1.682672834E1,6.215549260E-2,-2.064341068E0,1.266933560E0
1.684339501E1,2.020435184E-1,-7.900772095E-1,5.351175666E-1
1.686006167E1,-5.071704984E-1,7.963386178E-1,-3.115410507E-1
1.687672834E1,-5.615374446E-1,1.278310895E0,-4.801397026E-1
1.689339501E1,-4.411970973E-1,1.285030365E0,-2.260199636E-1
1.691006167E1,-2.689332068E-1,1.205618024E0,-1.007926911E-1
1.692672834E1,-1.058323234E-1,9.166789651E-1,-4.703658819E-2
1.694339500E1,-1.970038936E-2,7.401390672E-1,2.138026804E-2
1.696006167E1,-1.985310577E-3,8.201622963E-1,1.288924664E-1
1.697672834E1,-1.786779426E-2,8.934661150E-1,2.186895907E-1
1.699339500E1,-1.247691289E-1,6.051379442E-1,3.182605505E-1
1.701006167E1,-2.994764447E-1,1.799760312E-1,3.762927055E-1
1.702672833E1,-3.184132576E-1,1.259908639E-2,1.453858167E-1
1.704339500E1,-2.561050653E-1,-1.566104591E-1,-4.703658819E-2
1.706006167E1,-1.412624866E-1,-1.877645552E-1,-8.246674389E-2
1.707672833E1,-6.307178736E-2,1.158352345E-1,-2.944368124E-1
1.709339500E1,2.435823381E-1,2.215148360E-1,-3.591884971E-1
1.711006166E1,5.239692926E-1,2.227365673E-1,-1.667660922E-1
1.712672833E1,4.781544209E-1,-1.731038094E-1,-5.864302069E-2
1.714339500E1,8.414662629E-2,-2.396880686E-1,-1.160643101E-1
1.716006166E1,-6.123919412E-2,1.992946304E-2,-1.551596522E-1
1.717672833E1,-5.268708616E-2,-2.832885459E-2,-2.742782831E-1
1.719339499E1,-3.306305707E-1,-1.468366235E-1,-3.524689674E-1
1.721006166E1,-7.283035517E-1,-2.439641207E-1,-3.909534514E-1
1.722672833E1,-8.303179741E-1,-1.633299738E-1,-2.382372618E-1
1.724339499E1,-6.586649418E-1,-2.751182318E-1,2.504545450E-1
1.726006166E1,-6.366738081E-1,-6.080395579E-1,5.619956255E-1
1.727672832E1,-3.978256881E-1,-3.655261993E-1,6.780598760E-1
1.729339499E1,-4.021017551E-1,-3.129918277E-1,6.609556675E-1
1.731006166E1,-5.566505194E-1,-3.557523787E-1,7.043271065E-1
1.732672832E1,-5.658134818E-1,-9.513455629E-1,7.550288439E-1
1.734339499E1,-5.896372199E-1,-1.418046236E0,8.894191384E-1
1.736006165E1,4.932733253E-2,-1.095509648E0,3.463603258E-1
1.737672832E1,5.691732764E-1,-1.202410936E0,8.979712427E-2
1.739339499E1,4.567741454E-1,-1.812054038E0,2.474002391E-1
1.741006165E1,5.991056561E-1,-1.645287871E0,-4.031707719E-2
1.742672832E1,8.953750730E-1,-1.741193652E0,-1.771507859E-1
1.744339498E1,1.113453746E0,-2.007530689E0,-1.918115467E-1
1.746006165E1,1.242957115E0,-1.916511893E0,-2.419024557E-1
1.747672832E1,1.153159976E0,-1.391779065E0,-2.382372618E-1
1.749339498E1,8.080213666E-1,-8.218421936E-1,-4.581485689E-2
1.751006165E1,5.123628378E-1,-2.036470473E-1,2.828303874E-1
1.752672831E1,5.123628378E-1,-2.036470473E-1,2.828303874E-1
1.754339498E1,4.024071693E-1,7.639627457E-1,5.155698657E-1
1.756006165E1,4.201222658E-1,4.713585377E-1,4.300487936E-1
1.757672831E1,4.500546157E-1,1.036179364E-1,2.840521336E-1
1.759339498E1,5.624537468E-1,7.185296714E-2,3.060432673E-1
1.761006164E1,5.508472919E-1,7.101302966E-3,5.320632458E-1
1.762672831E1,5.508472919E-1,7.101302966E-3,5.320632458E-1
1.764339498E1,5.508472919E-1,7.101302966E-3,5.320632458E-1
1.766006164E1,5.508472919E-1,7.101302966E-3,5.320632458E-1
1.767672831E1,5.508472919E-1,7.101302966E-3,5.320632458E-1
1.769339497E1,5.508472919E-1,7.101302966E-3,5.320632458E-1
1.771006164E1,5.508472919E-1,7.101302966E-3,5.320632458E-1
1.772672831E1,4.260781780E-2,-1.486692131E-1,4.703658819E-2
1.774339497E1,2.733619884E-2,-7.414371520E-2,5.009091273E-2
1.776006164E1,-7.467821985E-2,4.558578506E-2,4.459312931E-2
1.777672830E1,-2.109010667E-1,3.797288239E-1,-4.642572254E-2
1.779339497E1,-2.267835438E-1,4.847975671E-1,-3.726275265E-2
1.781006164E1,2.122755162E-2,3.528507650E-1,2.345720828E-1
1.782672830E1,1.928805560E-1,2.337321341E-1,4.776962698E-1
1.784339497E1,2.173151523E-1,3.052033186E-1,4.807505906E-1
1.786006163E1,6.337722391E-2,2.190713882E-1,3.170388341E-1
1.787672830E1,7.559451461E-2,6.818778068E-2,7.024945319E-2
1.789339497E1,1.543960720E-1,-6.559160352E-2,-2.052505612E-1
1.791006163E1,-3.619373962E-2,-1.187368408E-1,7.391463965E-2
1.792672830E1,-2.060141414E-1,2.239582986E-1,4.379900396E-1
1.794339496E1,-1.705839932E-1,4.756345749E-1,4.850266278E-1
1.796006163E1,-2.092211880E-2,3.192532063E-1,6.108647678E-3
1.797672830E1,1.867718995E-1,3.155880272E-1,-3.909534588E-2
1.799339496E1,1.079703495E-1,6.283507943E-1,2.950477004E-1
1.801006163E1,-3.252854943E-2,8.042798638E-1,3.543015718E-1
1.802672829E1,1.953240186E-1,8.500946760E-1,4.141663313E-1
1.804339496E1,3.388772309E-1,8.000037670E-1,5.699368119E-1
1.806006163E1,3.162752390E-1,9.172898531E-1,8.967494965E-1
1.807672829E1,2.551887631E-1,7.474694252E-1,1.122158647E0
1.809339496E1,3.840812445E-1,4.499782622E-1,1.109330416E0
1.811006162E1,3.657552898E-1,-1.614973694E-1,1.364671946E0
1.812672829E1,2.130390853E-1,-6.685151458E-1,1.662773967E0
1.814339496E1,2.252563834E-1,-4.486038089E-1,2.094655275E0
1.816006162E1,5.911644101E-1,-4.266127050E-1,2.768439293E0
1.817672829E1,5.386300087E-1,-8.291725516E-1,2.051283836E0
1.819339495E1,9.472985864E-1,-8.933134079E-1,1.301752806E0
1.821006162E1,1.605810761E0,-1.062522888E0,1.191797137E0
1.822672829E1,2.249662161E0,-1.909792423E0,1.302363753E0
1.824339495E1,1.694386125E0,-2.055788994E0,1.656665325E0
1.826006162E1,6.620246768E-1,-1.143767953E0,1.488066554E0
1.827672828E1,-2.703076601E-2,-8.933134079E-1,1.073289394E0
1.829339495E1,-4.772381186E-1,-7.332668304E-1,9.150754213E-1
1.831006162E1,-3.355174661E-1,-8.316160440E-1,6.316341758E-1
1.832672828E1,-1.638644785E-1,-6.575195789E-1,1.116050005E0
1.834339495E1,-4.711294472E-1,-1.148654819E0,1.733634233E0
1.836006161E1,-9.482148290E-1,-2.008752584E0,2.040899277E0
1.837672828E1,-1.098487616E0,-1.768682599E0,1.915671945E0
1.839339495E1,-8.376483321E-1,-1.451032877E0,2.351829290E0
1.841006161E1,-7.344121933E-1,-2.487059593E0,3.962069035E0
1.842672828E1,-5.572614074E-1,-2.748509645E0,4.752528191E0
1.844339494E1,-4.424188137E-1,-2.730183840E0,4.004218578E0
1.846006161E1,-7.411317229E-1,-2.951927662E0,2.212552309E0
1.847672828E1,-8.150463104E-1,-2.274478674E0,1.147814870E0
1.849339494E1,-6.391173005E-1,-1.306257963E0,6.120865345E-1
1.851006161E1,-5.022835732E-1,-1.185917616E0,-1.661552191E-1
1.852672827E1,3.914116025E-1,-2.457967103E-1,3.665188551E-1
1.854339494E1,1.030834317E-1,2.459494323E-1,5.607738495E-1
1.856006161E1,-3.886627257E-1,1.366046369E-1,-1.759290546E-1
1.857672827E1,-6.873756051E-1,8.604794145E-1,-7.709113359E-1
1.859339494E1,-7.771727443E-1,1.389488339E0,-1.210734010E0
1.861006160E1,5.911644101E-1,-9.385173917E-1,1.441640854E-1
1.862672827E1,4.231765866E-1,-8.652135730E-1,5.424479246E-1
1.864339494E1,1.611155868E-1,-1.622685909E0,3.646862805E-1
1.866006160E1,-9.926552884E-3,-1.476689219E0,6.389645338E-1
1.867672827E1,-1.504254490E-1,-1.021595001E0,1.316413641E0
1.869339493E1,8.781181276E-2,-1.108337760E0,6.633991599E-1
1.871006160E1,3.100138716E-2,-9.409608245E-1,2.681696415E-1
1.872672827E1,-8.078686893E-2,-8.365029693E-1,1.466075517E-2
1.874339493E1,-4.045451880E-1,-6.190351248E-1,1.050687432E-1
1.876006160E1,-5.731438994E-1,-5.768854022E-1,4.630354941E-1
1.877672826E1,-4.234820008E-1,1.317177117E-1,-4.007273018E-1
1.879339493E1,-1.874896765E0,2.355876446E0,-1.762344837E0
1.881006160E1,-8.602503538E-1,1.805487156E0,-1.973704100E0
1.882672826E1,-2.390008420E-1,1.347338676E0,-1.693928003E0
1.884339493E1,4.384481907E-1,1.492113590E0,-1.477071047E0
1.886006159E1,1.118340731E0,9.802088737E-1,-1.114828229E0
1.887672826E1,1.256396174E0,9.997565746E-1,-6.126973629E-1
1.889339493E1,9.900590777E-1,2.930089235E0,-1.881463528E-1
1.891006159E1,1.002276421E0,2.823798895E0,-3.323104382E-1
1.892672826E1,2.246608019E0,2.540357590E0,-8.106175661E-1
1.894339492E1,2.392604589E0,4.154262066E0,-6.798924804E-1
1.896006159E1,1.614973783E0,2.925202370E0,-4.111120105E-1
1.897672826E1,1.079856157E0,1.881234407E0,-3.176496923E-1
1.899339492E1,4.360047281E-1,1.868406296E0,-6.126973629E-1
1.901006159E1,-4.607447684E-1,1.698585868E0,-3.640754223E-1
1.902672825E1,-1.061224818E0,1.453018188E0,2.596175373E-1
1.904339492E1,-1.655596256E0,1.262428403E0,1.325576544E0
1.906006159E1,-9.262236953E-1,1.923384070E0,1.753792763E0
1.907672825E1,3.150535226E-1,9.313397408E-1,1.640171885E0
1.909339492E1,6.064360142E-1,-1.256167054E0,1.456912518E0
1.911006158E1,6.693550944E-1,-1.415602803E0,1.293811560E0
1.912672825E1,1.181259751E0,-1.130939722E0,6.224712133E-1
1.914339492E1,1.249065757E0,-3.172678947E-1,-4.642572254E-2
1.916006158E1,1.495855093E0,6.283507943E-1,-7.330377586E-3
1.917672825E1,1.679114580E0,1.515937328E0,3.396408260E-1
1.919339491E1,1.827554703E0,1.964922905E0,5.400044918E-1
1.921006158E1,2.205679893E0,1.514104724E0,1.238833785E0
1.922672825E1,1.624136686E0,6.130791903E-1,6.218603253E-1
1.924339491E1,6.815723777E-1,2.664897591E-2,4.642572403E-1
1.926006158E1,2.142608166E-1,1.262199283E-1,7.990111113E-1
1.927672824E1,-2.561050653E-1,2.037997693E-1,9.828814268E-1
1.929339491E1,-8.400917649E-1,1.964693815E-1,1.924224049E-1
1.931006158E1,-9.995275140E-1,3.797288239E-1,-3.817904890E-1
1.932672824E1,-8.474221826E-1,-1.061377581E-2,-6.249146461E-1
1.934339491E1,-2.933678031E-1,-5.603920817E-1,-2.999345958E-1
1.936006157E1,-1.504254490E-1,-4.119519293E-1,2.290742993E-1
1.937672824E1,-2.475529462E-1,1.931859925E-2,5.192350596E-2
1.939339491E1,-1.931859851E-1,8.345939964E-2,-2.675587833E-1
1.941006157E1,-1.828012913E-1,-2.115882933E-1,-4.105011225E-1
1.942672824E1,-4.442514181E-1,2.453385741E-1,-5.998691916E-1
1.944339490E1,-7.582359314E-1,1.239215612E0,-6.884446144E-1
1.946006157E1,1.556178033E-1,9.136246443E-1,1.378721833E0
1.947672824E1,-1.143844277E-1,-9.079741240E-1,4.434878230E-1
1.949339490E1,-1.424842030E-1,-2.017915487E0,-6.108647794E-4
1.951006157E1,1.672242284E-1,-2.532874346E0,-1.239444613E0
1.952672823E1,-5.207622424E-2,-3.123809695E-1,-1.186910272E0
1.954339490E1,-7.148644924E-1,-2.525162399E-1,-4.129445851E-1
1.956006157E1,-6.207913160E-1,-3.472002745E-1,2.315177470E-1
1.957672823E1,-4.912880063E-1,-5.157989264E-1,3.200931549E-1
1.959339490E1,-5.890263915E-1,-1.908188909E-1,2.015853859E-2
1.961006156E1,-1.006857872E0,8.879683018E-1,-1.221729536E-2
1.962672823E1,-9.854776263E-1,1.122540355E0,-3.677406013E-1
1.964339490E1,-6.849321127E-1,1.233717799E0,-8.631519079E-1
1.966006156E1,-7.528908551E-2,5.672643185E-1,-5.198459029E-1
1.967672823E1,-1.908952370E-2,5.959749222E-1,4.948004782E-1
1.969339489E1,-3.966039717E-1,4.817432463E-1,5.424479246E-1
1.971006156E1,-5.413789153E-1,-1.004109010E-1,5.742128938E-2
1.972672823E1,-2.939786613E-1,8.834631741E-2,-4.123337269E-1
1.974339489E1,2.183841541E-2,3.846157491E-1,-5.204567909E-1
1.976006156E1,-5.039634649E-3,1.030070707E-1,-5.540543795E-1
1.977672822E1,-1.259908676E-1,-2.061668551E-3,-5.283980370E-1
1.979339489E1,-1.143844277E-1,7.059305906E-1,-5.790998340E-1
1.981006156E1,-2.774853408E-1,1.277700067E0,-7.183769941E-1
1.982672822E1,-3.581194878E-1,1.875125766E0,-9.364557266E-1
1.984339489E1,-3.459021747E-1,2.144517183E0,-1.125823736E0
1.986006155E1,-9.757037759E-1,2.429790974E0,-1.093447924E0
1.987672822E1,-1.840077400E0,3.241630316E0,-7.660244107E-1
1.989339489E1,-2.457050800E0,3.144502878E0,-3.976729810E-1
1.991006155E1,-1.601840138E0,1.500665665E0,-1.832594397E-3
1.992672822E1,3.669770062E-1,-5.524508357E-1,4.105011225E-1
1.994339488E1,9.265291691E-1,-6.117047071E-1,4.990765154E-1
1.996006155E1,8.025236130E-1,-2.311359644E-1,9.651663154E-2
1.997672822E1,5.581777096E-1,-1.176143765E0,-2.657261789E-1
1.999339488E1,-1.200502038E0,-2.769279003E0,3.445277214E-1
2.001006155E1,-1.507766962E0,-3.019733667E0,4.031707644E-1
2.002672821E1,-6.617192626E-1,-2.316628218E0,1.649334878E-1
2.004339488E1,-1.595884264E-1,-1.490128279E0,2.932150960E-1
2.006006155E1,-2.548833191E-1,-1.278158188E0,3.842339516E-1
2.007672821E1,-1.699731201E-1,-1.104672551E0,3.555232882E-1
2.009339488E1,1.366809905E-1,-5.420661569E-1,3.958403766E-1
2.011006154E1,2.906189263E-1,-8.391755074E-2,2.693913579E-1
2.012672821E1,3.303251266E-1,-1.144607887E-1,1.429423541E-1
2.014339488E1,3.077231348E-1,-8.697187155E-2,6.291907281E-2
2.016006154E1,4.189005196E-1,8.468113095E-2,-2.993237413E-2
2.017672821E1,8.666644096E-1,3.546833694E-1,-1.404989064E-1
2.019339487E1,1.119562387E0,6.656135321E-1,6.719512399E-3
2.021006154E1,1.158657789E0,3.107011020E-1,-2.504545636E-2
2.022672821E1,1.092684388E0,-2.311359644E-1,-5.314523578E-1
2.024339487E1,-5.645917654E-1,-1.629405499E0,-9.382883310E-1
2.026006154E1,-1.323896646E0,-1.798004150E0,-8.900299668E-1
2.027672820E1,-1.020907760E0,-1.476078391E0,-9.034690261E-1
2.029339487E1,-2.426660359E-1,-1.487073898E0,-6.194168925E-1
2.031006154E1,4.561632872E-1,-1.430874348E0,-3.420842886E-1
2.032672820E1,7.145590782E-1,-1.320307851E0,-7.757982612E-2
2.034339487E1,4.659371078E-1,-7.631992102E-1,-2.260199748E-2
2.036006153E1,1.574503928E-1,-5.459604040E-2,1.325576603E-1
2.037672820E1,1.983783394E-1,-2.635118067E-1,6.597339362E-2
2.039339487E1,4.030180275E-1,-5.530617237E-1,-1.966984570E-1
2.041006153E1,5.062541962E-1,-4.876991808E-1,-3.439168632E-1
2.042672820E1,4.805978537E-1,-5.597811937E-1,-3.188714087E-1
2.044339486E1,1.024725661E-1,-9.696714878E-1,-1.307250559E-1
2.046006153E1,-3.568977416E-1,-1.097342253E0,2.809977904E-2
2.047672820E1,-3.471239209E-1,-1.061301231E0,-1.404989064E-1
2.049339486E1,-8.445205539E-2,-1.152930856E0,-2.816086709E-1
2.051006153E1,1.348484010E-1,-9.708932042E-1,-1.441640854E-1
2.052672819E1,3.193295598E-1,-7.045561671E-1,-8.124501258E-2
2.054339486E1,2.185368687E-1,-7.900772095E-1,3.604102135E-2
2.056006153E1,1.036942974E-1,-7.717512846E-1,2.241873741E-1
2.057672819E1,1.389717404E-2,-7.448732257E-1,2.083048970E-1
2.059339486E1,-6.001746282E-2,-6.727911830E-1,7.757982612E-2
2.061006152E1,-3.207040019E-3,-6.214785576E-1,5.864302069E-2
2.062672819E1,9.392046183E-2,-4.669297636E-1,1.215620935E-1
2.064339486E1,1.684459597E-1,-3.307069242E-1,1.398880333E-1
2.066006152E1,2.417497337E-1,-3.203222156E-1,1.679878086E-1
2.067672819E1,2.777907550E-1,-4.052324295E-1,1.551596522E-1
2.069339485E1,2.460257858E-1,-4.980838597E-1,1.979201883E-1
2.071006152E1,1.336266696E-1,-4.718166888E-1,2.345720828E-1
2.072672819E1,6.566796452E-3,-3.936260045E-1,2.211330533E-1
2.074339485E1,-3.191768378E-2,-3.081049323E-1,1.960875988E-1
2.076006152E1,-2.275471389E-2,-1.926514804E-1,1.496618688E-1
2.077672818E1,5.955931731E-3,-7.780890167E-2,3.604102135E-2
2.079339485E1,1.262962967E-1,-9.246965498E-2,-4.764745384E-2
2.081006152E1,2.093739063E-1,-2.060905099E-1,-5.497782957E-3
2.082672818E1,2.063195854E-1,-2.616792023E-1,1.044578776E-1
2.084339485E1,1.391244531E-1,-2.653443813E-1,1.777616441E-1
2.086006151E1,1.128572673E-1,-4.382191300E-1,1.661552191E-1
2.087672818E1,1.696676910E-1,-6.281980872E-1,1.423314959E-1
2.089339485E1,1.446222365E-1,-6.361393332E-1,1.631008983E-1
2.091006151E1,3.405570984E-2,-4.883100390E-1,1.441640854E-1
2.092672818E1,3.405570984E-2,-4.235583544E-1,9.529490769E-2
2.094339484E1,9.697478265E-2,-2.757290900E-1,1.105665267E-1
2.096006151E1,2.350302190E-1,-2.653443813E-1,6.475166976E-2
2.097672818E1,4.317286909E-1,-4.266127050E-1,-3.298669681E-2
2.099339484E1,5.050324798E-1,-4.351648092E-1,4.520399496E-2
2.101006151E1,3.333794475E-1,-3.667479455E-1,2.076940238E-1
2.102672817E1,3.588830680E-2,-2.238055766E-1,3.469711840E-1
2.104339484E1,-1.919642538E-1,-5.093085021E-2,3.976729810E-1
2.106006151E1,-2.237292230E-1,5.352702737E-2,2.950477004E-1
2.107672817E1,-8.750637621E-2,-5.276344717E-2,7.574722916E-2
2.109339484E1,1.928805560E-1,-3.746891916E-1,-2.461785078E-1
2.111006150E1,5.135845542E-1,-6.049851775E-1,-3.671297431E-1
2.112672817E1,7.371610999E-1,-7.509818673E-1,-2.816086709E-1
2.114339484E1,4.433351159E-1,-8.035162687E-1,9.285144508E-2
2.116006150E1,1.679878100E-3,-3.380373120E-1,4.031707644E-1
2.117672817E1,1.018617004E-1,-3.081049323E-1,3.842339516E-1
2.119339483E1,3.755291104E-1,-2.836703360E-1,3.365865052E-1
2.121006150E1,4.091266990E-1,-1.584430486E-1,3.274235129E-1
2.122672817E1,1.818849891E-1,-1.834885031E-1,3.359756172E-1
2.124339483E1,-4.230238497E-2,-9.918916970E-2,3.005454838E-1
2.126006150E1,-5.513054505E-2,8.162680268E-2,2.773326039E-1
2.127672816E1,4.627300799E-2,2.447277009E-1,2.596175373E-1
2.129339483E1,1.146898642E-1,1.628718227E-1,1.502727419E-1
2.131006150E1,1.989891976E-1,-1.138499230E-1,1.001818255E-1
2.132672816E1,2.741255760E-1,-6.520217657E-1,2.419024557E-1
2.134339483E1,2.759581506E-1,-9.201914072E-1,3.536907136E-1
2.136006149E1,2.331976295E-1,-6.911171675E-1,3.903425932E-1
2.137672816E1,2.228129357E-1,-2.775616944E-1,3.732383847E-1
2.139339483E1,2.881754637E-1,-7.536543906E-2,3.744601011E-1
2.141006149E1,3.724747896E-1,-9.735657275E-2,3.976729810E-1
2.142672816E1,4.292852283E-1,-1.969275326E-1,3.915643096E-1
2.144339482E1,4.152353406E-1,-3.545306325E-1,2.950477004E-1
2.146006149E1,3.437641561E-1,-3.850739002E-1,2.583957911E-1
2.147672816E1,1.482874304E-1,-3.643044829E-1,2.803869247E-1
2.149339482E1,9.147699922E-2,-4.137845337E-1,3.750709891E-1
2.151006149E1,2.386954129E-1,-2.561814189E-1,4.502073526E-1
2.152672815E1,3.413206935E-1,5.963567272E-2,4.092794061E-1
2.154339482E1,1.867718995E-1,4.310414493E-1,2.535088956E-1
2.156006149E1,8.399390616E-3,6.961567998E-1,1.069013327E-1
2.157672815E1,-1.626427472E-1,1.037019372E0,9.224057943E-2
2.159339482E1,-2.109010667E-1,1.339397430E0,2.846629918E-1
2.161006148E1,-7.895427197E-2,1.062675595E0,5.076286197E-1
2.162672815E1,1.519526094E-1,4.090503156E-1,6.120865345E-1
2.164339482E1,2.515235841E-1,4.512000084E-1,6.579013467E-1
2.166006148E1,5.726857483E-2,6.509527564E-1,5.778780580E-1
2.167672815E1,-1.443168074E-1,4.334849119E-1,4.563159943E-1
2.169339481E1,-2.414443046E-1,-1.419496983E-1,3.677406013E-1
2.171006148E1,-4.802924395E-1,-4.760927260E-1,2.052505612E-1
2.172672815E1,-7.539598346E-1,-3.026071489E-1,-1.203403622E-1
2.174339481E1,-8.254310489E-1,-8.819360286E-2,-5.558869243E-1
2.176006148E1,-7.796161771E-1,1.121700481E-1,-8.216131330E-1
2.177672814E1,-7.264709473E-1,4.652498960E-1,-8.539889455E-1
2.179339481E1,-7.814487815E-1,9.148463607E-1,-7.984002829E-1
2.181006148E1,-9.024000168E-1,1.035797596E0,-6.762273312E-1
2.182672814E1,-1.147356749E0,7.108175159E-1,-4.587594569E-1
2.184339481E1,-1.469893336E0,1.702021956E-1,-1.423314959E-1
2.186006147E1,-1.715461016E0,-1.321758628E-1,5.925388262E-2
2.187672814E1,-1.814421058E0,3.947713599E-2,-1.404988952E-2
2.189339481E1,-1.581070781E0,1.316184521E0,-2.632827163E-1
2.191006147E1,-1.009301305E0,2.600833178E0,-3.769035637E-1
2.192672814E1,-7.912226319E-1,2.534248829E0,-3.793470263E-1
2.194339480E1,-9.787580967E-1,1.920940638E0,-4.001164436E-1
2.196006147E1,-1.312901139E0,1.283808708E0,-3.817904890E-1
2.197672814E1,-1.535255909E0,8.690314889E-1,-3.512472510E-1
2.199339480E1,-1.518151641E0,3.858374655E-1,-4.667007029E-1
2.201006147E1,-1.636048555E0,2.007454336E-1,-6.334667802E-1
2.202672813E1,-1.873674989E0,6.637809277E-1,-9.150754213E-1
2.204339480E1,-2.165057421E0,1.202563643E0,-1.227838159E0
2.206006147E1,-2.250578642E0,1.137201190E0,-1.207679629E0
2.207672813E1,-2.110079765E0,7.554106712E-1,-1.040913582E0
2.209339480E1,-2.058156252E0,7.572432756E-1,-1.142317176E0
2.211006146E1,-2.205985546E0,1.097494960E0,-1.342069864E0
2.212672813E1,-2.242637396E0,1.073060393E0,-1.502116442E0
2.214339480E1,-2.254854679E0,8.855248690E-1,-1.385441303E0
2.216006146E1,-2.292728186E0,8.824705482E-1,-1.311526656E0
2.217672813E1,-2.296393394E0,7.450259328E-1,-1.251051068E0
2.219339479E1,-2.255465508E0,7.468585372E-1,-1.305418015E0
2.221006146E1,-1.988517523E0,6.295725107E-1,-1.215010047E0
2.222672813E1,-1.942091823E0,5.709294677E-1,-1.318857074E0
2.224339479E1,-2.001956701E0,1.763108522E-1,-1.167362571E0
2.226006146E1,-1.855959892E0,-2.195295244E-1,-7.385355234E-1
2.227672812E1,-1.870620728E0,-3.178787529E-1,-5.662716627E-1
2.229339479E1,-1.607948780E0,6.268999726E-2,-5.516108871E-1
2.231006146E1,-1.294575214E0,3.088684976E-1,-5.681042671E-1
2.232672812E1,-1.158963203E0,1.286633909E-1,-5.858193040E-1
2.234339479E1,-9.689842463E-1,1.078939885E-1,-3.634645343E-1
2.236006145E1,-6.464476585E-1,1.720348001E-1,-1.747073233E-1
2.237672812E1,-3.672824502E-1,3.620137274E-1,-3.848448023E-2
2.239339479E1,-2.176205814E-1,5.519927144E-1,5.497782957E-3
2.241006145E1,-2.237292230E-1,3.229183853E-1,-2.504545636E-2
2.242672812E1,-1.382081509E-1,1.414915472E-1,2.015853859E-2
2.244339478E1,-4.657844082E-2,2.508363426E-1,5.803215504E-2
2.246006145E1,-4.230238497E-2,1.763108522E-1,2.021962404E-1
2.247672812E1,1.904370934E-1,-1.061377581E-2,4.123337269E-1
2.249339478E1,4.470002949E-1,-9.674570709E-2,5.400044918E-1
2.251006145E1,4.915934205E-1,1.146135032E-1,5.436696410E-1
2.252672811E1,9.575305134E-2,1.054505333E-1,5.112938285E-1
2.254339478E1,-4.657844082E-2,-3.716348708E-1,6.469057798E-1
2.256006145E1,3.382663727E-1,-6.935606003E-1,7.782417536E-1
2.257672811E1,7.188351154E-1,1.023962051E-1,9.456186891E-1
2.259339478E1,6.217076182E-1,7.828995585E-1,1.055574298E0
2.261006144E1,1.061377525E-1,4.676933587E-1,1.237001181E0
2.262672811E1,-3.019199073E-1,-8.269581944E-2,1.323133111E0
2.264339478E1,-6.261364091E-3,-9.592867494E-1,1.471573234E0
2.266006144E1,8.536835015E-2,-3.807978332E-1,1.491731763E0
2.267672811E1,3.688096106E-1,5.483275056E-1,1.209512234E0
2.269339477E1,3.694204688E-1,2.581667304E-1,1.001207352E0
2.271006144E1,9.269873053E-2,-3.526980579E-1,1.166751742E0
2.272672811E1,-2.890917659E-1,-5.090794563E-1,1.345124245E0
2.274339477E1,-1.852447391E-1,-3.484219909E-1,1.398269534E0
2.276006144E1,-6.551524997E-2,-8.330668509E-2,1.283426881E0
2.277672810E1,-6.123919412E-2,1.799760312E-1,1.092837095E0
2.279339477E1,-3.226893246E-1,-2.036470473E-1,9.468404055E-1
2.281006144E1,-6.519454122E-1,-4.327213466E-1,7.831286192E-1
2.282672810E1,-8.309288025E-1,-7.601448894E-1,8.295543790E-1
2.284339477E1,-9.359975457E-1,-8.523854613E-1,5.876519084E-1
2.286006143E1,-9.286671877E-1,-6.905062795E-1,5.265654325E-1
2.287672810E1,-7.319687009E-1,-3.869064748E-1,3.677406013E-1
2.289339477E1,-5.132791400E-1,-1.004109010E-1,2.565632164E-1
2.291006143E1,-2.695440948E-1,8.407026529E-2,1.710421406E-2
2.292672810E1,-2.542724609E-1,3.825540841E-2,-1.887572110E-1
2.294339476E1,-2.903134823E-1,-1.621082425E-1,-4.221075773E-1
2.296006143E1,-3.208567202E-1,-2.079230994E-1,-5.613847375E-1
2.297672810E1,-2.072358727E-1,-7.559451740E-3,-7.580831647E-1
2.299339476E1,-8.261945844E-2,1.036179364E-1,-9.963204265E-1
2.301006143E1,-6.185005978E-2,1.909715980E-1,-1.147814870E0
2.302672809E1,-1.847865991E-2,1.439350098E-1,-1.207679629E0
2.304339476E1,6.566796452E-3,5.902481079E-2,-1.279761672E0
2.306006143E1,7.681624591E-2,-7.353284955E-2,-1.299309373E0
2.307672809E1,1.788306683E-1,-1.248454899E-1,-1.287092090E0
2.309339476E1,3.400989771E-1,-5.276344717E-2,-1.289535522E0
2.311006142E1,4.836521745E-1,5.352702737E-2,-1.373834848E0
2.312672809E1,5.606211424E-1,1.897498667E-1,-1.420260668E0
2.314339476E1,4.958694875E-1,1.836412251E-1,-1.372002244E0
2.316006142E1,2.991710305E-1,1.687514037E-2,-1.172860384E0
2.317672809E1,2.637408674E-1,-4.543306679E-2,-1.036637545E0
2.319339475E1,2.741255760E-1,1.137735695E-2,-1.023198485E0
2.321006142E1,3.174969554E-1,8.895718306E-2,-9.688315392E-1
2.322672809E1,4.213439822E-1,7.124210149E-2,-9.266818762E-1
2.324339475E1,4.152353406E-1,1.616500914E-1,-8.674280047E-1
2.326006142E1,4.127918780E-1,2.233474404E-1,-8.576541543E-1
2.327672808E1,4.329504073E-1,2.911534309E-1,-9.034690261E-1
2.329339475E1,4.799869955E-1,4.689150751E-1,-9.236275554E-1
2.331006142E1,4.427242577E-1,6.020836234E-1,-9.046907425E-1
2.332672808E1,3.889681399E-1,7.034871578E-1,-7.214313149E-1
2.334339475E1,3.382663727E-1,6.081922650E-1,-4.465421438E-1
2.336006141E1,3.596466482E-1,4.689150751E-1,-2.431241870E-1
2.337672808E1,4.494437575E-1,5.794816017E-1,-1.423314959E-1
2.339339475E1,4.964803457E-1,6.521745324E-1,-1.527161896E-1
2.341006141E1,3.651444316E-1,6.839394569E-1,-1.991419196E-1
2.342672808E1,1.598938555E-1,5.654317141E-1,-9.896009415E-2
2.344339474E1,-2.703076601E-2,4.579195082E-1,-4.520399496E-2
2.346006141E1,-1.009454057E-1,3.235292733E-1,-1.710421406E-2
2.347672808E1,-8.704823442E-3,2.777144015E-1,5.986474827E-2
2.349339474E1,7.620538026E-2,2.679405510E-1,1.337793916E-1
2.351006141E1,6.459894776E-2,2.233474404E-1,1.514944583E-1
2.352672807E1,5.345067009E-3,2.056323588E-1,7.147117704E-2
2.354339474E1,-3.436114267E-2,2.214384731E-3,2.809977904E-2
2.356006141E1,-3.802633286E-2,-3.016144782E-2,2.871064469E-2
2.357672807E1,-6.429351866E-2,-1.480583549E-1,-1.832594397E-3
2.359339474E1,-4.291325063E-2,-1.614973694E-1,-4.948004708E-2
2.361006140E1,-6.872228812E-3,-1.535561383E-1,-7.452550530E-2
2.362672807E1,1.389717404E-2,-7.964149863E-2,-2.871064469E-2
2.364339474E1,3.772090003E-2,2.237292193E-2,-7.147117704E-2
2.366006140E1,-1.664606482E-2,1.335503161E-1,-1.123991162E-1
2.367672807E1,-1.149952933E-1,-6.803506613E-2,-6.291907281E-2
2.369339473E1,-2.145662606E-1,-1.902080178E-1,2.809977904E-2
2.371006140E1,-2.371682525E-1,-1.059086844E-1,1.081230640E-1
2.372672807E1,-1.681405306E-1,4.130972922E-2,1.557705253E-1
2.374339473E1,-8.689551800E-2,2.270126194E-1,1.893680841E-1
2.376006140E1,-9.926552884E-3,3.394117355E-1,2.150243968E-1
2.377672806E1,1.878409274E-2,4.249328077E-1,2.284634262E-1
2.379339473E1,-9.315688163E-3,4.591412544E-1,3.005454838E-1
2.381006140E1,-6.795870513E-2,3.723984361E-1,3.982838392E-1
2.382672806E1,-1.272125840E-1,4.011090994E-1,5.540543795E-1
2.384339473E1,-1.889099330E-1,4.597521126E-1,6.346884966E-1
2.386006139E1,-2.194531709E-1,5.257254839E-1,5.955931544E-1
2.387672806E1,-1.632536054E-1,6.100248694E-1,5.229002237E-1
2.389339473E1,-1.339320987E-1,4.609738290E-1,5.528326035E-1
2.391006139E1,-2.701549530E-1,1.769217104E-1,6.212494969E-1
2.392672806E1,-4.418079555E-1,8.468113095E-2,6.579013467E-1
2.394339472E1,-5.242747068E-1,-1.095738709E-1,6.133082509E-1
2.396006139E1,-3.752236962E-1,1.665370166E-1,5.363392830E-1
2.397672806E1,-2.945895493E-1,3.229183853E-1,4.190532267E-1
2.399339472E1,-2.744309902E-1,2.691622972E-1,3.506363928E-1
2.401006139E1,-2.273944169E-1,3.931678534E-1,4.013381600E-1
2.402672805E1,-1.834121495E-1,2.868773639E-1,4.575377107E-1
2.404339472E1,-2.286161482E-1,2.514472008E-1,4.227184355E-1
2.406006139E1,-2.170097083E-1,1.781434417E-1,2.919933498E-1
2.407672805E1,-1.705839932E-1,2.031888962E-1,2.193004489E-1
2.409339472E1,-1.895207912E-1,1.359937787E-1,2.241873741E-1
2.411006138E1,-2.249509543E-1,7.124210149E-2,2.400698513E-1
2.412672805E1,-1.608101577E-1,1.732565165E-1,2.834412456E-1
2.414339472E1,-3.008509055E-2,2.526689470E-1,2.871064544E-1
2.416006138E1,5.299251899E-2,2.752709389E-1,2.480110973E-1
2.417672805E1,1.678351015E-1,3.137554228E-1,2.486219704E-1
2.419339471E1,2.319758981E-1,2.196822464E-1,2.559523284E-1
2.421006138E1,2.130390853E-1,1.439350098E-1,2.608392537E-1
2.422672805E1,1.678351015E-1,9.689842910E-2,2.846629918E-1
2.424339471E1,1.543960720E-1,1.592066288E-1,2.522871494E-1
2.426006138E1,1.794415265E-1,2.422842383E-1,1.905898154E-1
2.427672804E1,2.038761228E-1,3.015381396E-1,1.893680841E-1
2.429339471E1,1.311832070E-1,1.756999791E-1,1.814268380E-1
2.431006138E1,9.208786488E-2,1.237764731E-1,1.673769504E-1
2.432672804E1,1.389717404E-2,3.214675933E-2,1.007926911E-1
2.434339471E1,-7.223475724E-2,-3.138317913E-2,6.536252797E-2
2.436006137E1,-7.773254067E-2,-1.672242396E-2,8.002328873E-2
2.437672804E1,-3.375028074E-2,2.970330045E-2,5.558869615E-2
2.439339471E1,2.244928107E-2,1.121700481E-1,1.221729559E-3
2.441006137E1,9.025526792E-2,2.612210512E-1,2.443459118E-3
2.442672804E1,6.032289565E-2,8.651372790E-2,2.199113183E-2
2.444339470E1,5.054906011E-2,7.124210149E-2,1.105665267E-1
2.446006137E1,8.475748450E-2,6.268999726E-2,1.698204130E-1
2.447672804E1,1.256854236E-1,-2.160934173E-2,2.089157552E-1
2.449339470E1,2.209803313E-1,-6.620246917E-2,2.107483447E-1
2.451006137E1,2.796233594E-1,-1.786015928E-1,1.227838174E-1
2.452672803E1,2.533561587E-1,-2.500727773E-1,1.295033395E-1
2.454339470E1,2.496909797E-1,-4.308887422E-1,9.285144508E-2
2.456006137E1,4.317286909E-1,-1.926514804E-1,1.710421406E-2
2.457672803E1,3.944659233E-1,-3.612501621E-1,-1.026252806E-1
2.459339470E1,3.914116025E-1,-1.993709952E-1,-1.123991162E-1
2.461006136E1,4.665479660E-1,-1.840993762E-1,-2.266308367E-1
2.462672803E1,5.190823674E-1,-2.348011434E-1,-2.528980076E-1
2.464339470E1,5.496255755E-1,-3.810269013E-2,-3.628536761E-1
2.466006136E1,5.960513353E-1,-1.672242396E-2,-5.070177913E-1
2.467672803E1,5.429060459E-1,-3.252091408E-1,-5.125155449E-1
2.469339469E1,3.346011937E-1,-1.737146676E-1,-4.343248606E-1
2.471006136E1,3.046688139E-1,-2.079230994E-1,-2.419024557E-1
2.472672803E1,3.779725730E-1,-1.089630052E-1,-1.753181964E-1
2.474339469E1,3.908007443E-1,8.834631741E-2,-2.260199636E-1
2.476006136E1,3.181078434E-1,1.897498667E-1,-2.034179717E-1
2.477672802E1,2.203694731E-1,2.667188346E-1,-2.492328286E-1
2.479339469E1,7.192932814E-2,2.777144015E-1,-2.364046723E-1
2.481006136E1,-5.207622424E-2,2.184605151E-1,-1.221729591E-1
2.482672802E1,-1.481347065E-2,3.119228184E-1,4.886918236E-3
2.484339469E1,1.488982886E-1,6.717221737E-1,2.083048970E-1
2.486006135E1,2.276998460E-1,8.610902429E-1,2.370155305E-1
2.487672802E1,1.275180280E-1,9.716567993E-1,1.484401375E-1
2.489339469E1,-8.704823442E-3,8.806379437E-1,1.362228394E-1
2.491006135E1,-1.956294477E-1,6.766090989E-1,2.302960157E-1
2.492672802E1,-2.713766694E-1,6.222421527E-1,3.732383847E-1
2.494339468E1,-1.882990748E-1,5.843685269E-1,3.872882724E-1
2.496006135E1,3.649916872E-2,7.645736337E-1,3.897317350E-1
2.497672802E1,1.941022873E-1,7.303652167E-1,4.172206521E-1
2.499339468E1,2.503018379E-1,7.493020296E-1,3.909534514E-1
2.501006135E1,1.434005052E-1,6.167443395E-1,3.750709891E-1
2.502672801E1,2.672533318E-2,5.416079760E-1,3.769035637E-1
2.504339468E1,2.916879393E-2,4.524217248E-1,3.756818473E-1
2.506006135E1,6.154462695E-2,4.383718371E-1,4.495964646E-1
2.507672801E1,1.372918636E-1,5.104538798E-1,4.612029195E-1
2.509339468E1,2.063195854E-1,5.196168423E-1,4.715875983E-1
2.511006134E1,1.922696829E-1,4.670824707E-1,4.948004782E-1
2.512672801E1,2.367101051E-2,5.281689763E-1,5.528326035E-1
2.514339468E1,-1.027780026E-1,4.884627461E-1,6.188060045E-1
2.516006134E1,-2.096793354E-1,4.701367915E-1,7.629700899E-1
2.517672801E1,-2.634354234E-1,4.884627461E-1,9.181297421E-1
2.519339467E1,-2.280052751E-1,5.562687516E-1,9.450078011E-1
2.521006134E1,-2.005163580E-1,5.868119597E-1,9.926552773E-1
2.522672801E1,-2.689332068E-1,5.507709384E-1,1.048243999E0
2.524339467E1,-3.721693754E-1,4.469239414E-1,1.081230640E0
2.526006134E1,-4.937314689E-1,2.722166181E-1,1.045800447E0
2.527672800E1,-5.896372199E-1,8.223766834E-2,9.162971973E-1
2.529339467E1,-6.073523164E-1,1.793651730E-1,6.939423680E-1
2.531006134E1,-5.609265566E-1,1.744782478E-1,5.613847375E-1
2.532672800E1,-4.674642682E-1,2.746600807E-1,5.668824911E-1
2.534339467E1,-4.021017551E-1,3.247509897E-1,5.968148708E-1
2.536006133E1,-3.025307953E-1,4.206567705E-1,6.029235125E-1
2.537672800E1,-1.992946416E-1,5.391645432E-1,5.577195287E-1
2.539339467E1,-8.323032409E-2,6.631700993E-1,4.508182108E-1
2.541006133E1,1.091920808E-1,6.918807030E-1,3.640754223E-1
2.542672800E1,9.636391699E-2,5.794816017E-1,3.530798554E-1
2.544339466E1,3.527744114E-2,4.420370162E-1,2.712239623E-1
2.546006133E1,-1.237001177E-2,3.577376902E-1,6.352993846E-2
2.547672800E1,-2.703076601E-2,2.844339013E-1,3.054323839E-3
2.549339466E1,-8.093958721E-3,4.182133079E-1,3.054323979E-2
2.551006133E1,1.501200199E-1,4.322631955E-1,-7.330377400E-2
2.552672799E1,3.578140438E-1,6.143009067E-1,-1.960875988E-1
2.554339466E1,3.181078434E-1,6.179660559E-1,-1.130099818E-1
2.556006133E1,1.501200199E-1,6.167443395E-1,-7.574722916E-2
2.557672799E1,1.110246703E-1,3.901135325E-1,-7.941242307E-2
2.559339466E1,2.380845547E-1,5.330559015E-1,1.282816008E-2
2.561006132E1,3.168860972E-1,4.585303664E-1,1.148425788E-1
2.562672799E1,1.806632578E-1,3.253618479E-1,1.185077652E-1
2.564339466E1,-2.825249545E-2,1.909715980E-1,6.475166976E-2
2.566006132E1,-1.650862098E-1,-4.604393244E-2,1.527161896E-1
2.567672799E1,-1.540906429E-1,-1.706603467E-1,2.663370371E-1
2.569339465E1,-1.644753367E-1,-4.665479809E-2,2.260199636E-1
2.571006132E1,-2.121227980E-1,-2.677878439E-1,1.123991162E-1
2.572672799E1,-2.603811026E-1,-1.847102344E-1,6.475166976E-2
2.574339465E1,-2.402225733E-1,-1.034652218E-1,8.307760954E-2
2.576006132E1,-1.015562713E-1,-6.253728271E-2,1.319467872E-1
2.577672798E1,7.376192510E-2,1.842520833E-1,5.253437161E-2
2.579339465E1,9.941824526E-2,2.526689470E-1,-4.276053607E-2
2.581006132E1,5.787943676E-2,3.339139521E-1,-1.563813835E-1
2.582672798E1,4.123337101E-3,6.818778068E-2,-2.956585586E-1
2.584339465E1,-2.829830945E-1,-1.975383908E-1,-2.266308367E-1
2.586006131E1,-4.998401105E-1,-4.412734509E-1,-1.661552191E-1
2.587672798E1,-4.002691507E-1,-3.325395286E-1,-1.081230640E-1
2.589339465E1,3.039052337E-2,-2.189186662E-1,-1.514944583E-1
2.591006131E1,6.058251262E-1,7.918334752E-2,-1.166751757E-1
2.592672798E1,8.171843290E-1,4.493674040E-1,-2.156352699E-1
2.594339464E1,7.127264738E-1,6.155226231E-1,-3.451386094E-1
2.596006131E1,6.339249015E-1,1.708130687E-1,-4.599811733E-1
2.597672798E1,3.223838806E-1,-9.980003536E-2,-3.811796308E-1
2.599339464E1,3.236056268E-1,-3.810269013E-2,-2.797760665E-1
2.601006131E1,7.487674952E-1,1.317177117E-1,-3.133736253E-1
2.602672797E1,1.086575747E0,4.273762703E-1,-3.860665262E-1
2.604339464E1,1.007774115E0,5.727620721E-1,-4.477638900E-1
2.606006131E1,9.283617735E-1,4.792997837E-1,-5.937605500E-1
2.607672797E1,7.854194045E-1,1.408806890E-1,-5.363392830E-1
2.609339464E1,3.908007443E-1,-3.685805500E-1,-3.726275265E-1
2.611006130E1,2.771798968E-1,-3.704131246E-1,-2.425133139E-1
2.612672797E1,2.997818887E-1,-4.974730015E-1,-6.230820715E-2
2.614339464E1,2.698495090E-1,-3.508654535E-1,-1.154534444E-1
2.616006130E1,2.722929716E-1,-1.902080178E-1,-4.092793912E-2
2.617672797E1,3.975202441E-1,-5.154171586E-2,-8.429934084E-2
2.619339463E1,3.242164850E-1,9.384410083E-2,-1.075121984E-1
2.621006130E1,2.081521749E-1,-2.818377316E-1,5.864302069E-2
2.622672797E1,2.405280024E-1,-2.134208828E-1,2.131918073E-1
2.624339463E1,1.989891976E-1,-4.388299882E-1,2.278525680E-1
2.626006130E1,8.353576064E-2,-9.073632956E-1,-1.301141977E-1
2.627672796E1,-1.278234571E-1,-7.216603756E-1,-3.249800503E-1
2.629339463E1,-2.982547283E-1,-1.277547359E0,-2.816086709E-1
2.631006130E1,-4.918988645E-1,-9.317978621E-1,-1.093447953E-1
2.632672796E1,-2.390008420E-1,-2.164752036E-1,9.040798992E-2
2.634339463E1,3.065013885E-1,2.428951114E-1,1.386663020E-1
2.636006129E1,9.424116611E-1,4.029416740E-1,6.108647678E-3
2.637672796E1,1.118340731E0,8.604794145E-1,-3.200931549E-1
2.639339463E1,6.626355648E-1,6.967676282E-1,-6.896663308E-1
2.641006129E1,-3.985892609E-2,1.304959953E-1,-6.139190793E-1
2.642672796E1,-6.250674129E-1,-5.665007234E-1,-1.044578776E-1
2.644339462E1,-8.303179741E-1,-7.131083012E-1,-6.169734150E-2
2.646006129E1,-4.387536347E-1,-4.174497128E-1,-1.142317131E-1
2.647672796E1,6.459894776E-2,-3.313177824E-1,-2.883281708E-1
2.649339462E1,1.482874304E-1,-4.828122556E-1,-3.988946974E-1
2.651006129E1,-7.223475724E-2,-6.349175572E-1,-3.976729810E-1
2.652672795E1,-1.553123742E-1,-8.157335520E-1,-1.716530025E-1
2.654339462E1,5.604684353E-2,-6.911171675E-1,-1.282816008E-2
2.656006129E1,3.058905303E-1,-5.933787823E-1,-3.115410358E-2
2.657672795E1,4.634936452E-1,-6.428588033E-1,-2.113592178E-1
2.659339462E1,3.969093859E-1,-8.029053807E-1,-3.536907136E-1
2.661006128E1,6.887500733E-2,-1.089401007E0,-2.510654330E-1
2.662672795E1,-7.956513762E-2,-1.110170364E0,-2.199113220E-1
2.664339462E1,2.000582218E-2,-1.152320027E0,-2.620609999E-1
2.666006128E1,8.292489499E-2,-1.164537311E0,-2.687804997E-1
2.667672795E1,1.140789986E-1,-1.185306787E0,-3.524689674E-1
2.669339461E1,6.215549260E-2,-1.245782375E0,-3.848448098E-1
2.671006128E1,7.498364896E-2,-1.128496289E0,-2.748891413E-1
2.672672795E1,1.281288862E-1,-9.293544292E-1,-2.559523284E-1
2.674339461E1,1.965457499E-1,-9.434043169E-1,-4.996874034E-1
2.676006128E1,1.873827726E-1,-7.986293435E-1,-4.440986812E-1
2.677672794E1,-1.786779426E-2,-8.456659317E-1,-3.714057803E-1
2.679339461E1,-2.066250145E-1,-1.053359985E0,-4.514290690E-1
2.681006128E1,-3.678933084E-1,-1.137048483E0,-4.239401519E-1
2.682672794E1,-4.418079555E-1,-1.123609424E0,-3.652971387E-1
2.684339461E1,-4.515817761E-1,-1.117500782E0,-4.361574650E-1
2.686006127E1,-2.554942071E-1,-8.609375358E-1,-5.674933791E-1
2.687672794E1,-6.429351866E-2,-6.697368622E-1,-6.004800797E-1
2.689339461E1,-2.854265571E-1,-8.041270971E-1,-7.214313149E-1
2.691006127E1,-5.853611827E-1,-1.140713573E0,-6.383537054E-1
2.692672794E1,-5.798633695E-1,-1.146822214E0,-3.659079969E-1
2.694339460E1,-5.529853702E-1,-1.287321210E0,-2.730565667E-1
2.696006127E1,-3.581194878E-1,-9.055306911E-1,-4.294379354E-1
2.697672794E1,2.000582218E-2,-7.308233380E-1,-6.560688019E-1
2.699339460E1,1.324049383E-1,-5.640572906E-1,-7.800742984E-1
2.701006127E1,2.105956376E-1,-4.809796512E-1,-6.725621223E-1
2.702672793E1,3.969093859E-1,-4.339430630E-1,-5.235111117E-1
2.704339460E1,4.696022868E-1,-4.742601514E-1,-5.253437161E-1
2.706006127E1,3.962985277E-1,-4.767036140E-1,-5.534434915E-1
2.707672793E1,3.981311321E-1,-4.974730015E-1,-5.760455132E-1
2.709339460E1,3.199404180E-1,-5.109120011E-1,-5.803215504E-1
2.711006126E1,1.879936308E-1,-4.027889669E-1,-5.296197534E-1
2.712672793E1,2.264781147E-1,-3.154352903E-1,-4.214966893E-1
2.714339460E1,2.533561587E-1,-3.624718785E-1,-3.805687428E-1
2.716006126E1,1.091920808E-1,-3.887390792E-1,-4.013381600E-1
2.717672793E1,4.932733253E-2,-3.606393039E-1,-3.512472510E-1
2.719339459E1,1.580612659E-1,-2.451858521E-1,-2.425133139E-1
2.721006126E1,-1.527161949E-4,-3.203222156E-1,-1.948658675E-1
2.722672793E1,-1.858556122E-1,-2.457967103E-1,-1.007926911E-1
2.724339459E1,-7.712167501E-2,-2.775616944E-1,-7.024945319E-2
2.726006126E1,-5.696314201E-2,-2.696204484E-1,-1.307250559E-1
2.727672792E1,-1.400407553E-1,-8.697187155E-2,-1.368337125E-1
2.729339459E1,-1.375972927E-1,-1.364519149E-1,-1.478292793E-1
2.731006126E1,-1.589775532E-1,-5.031998456E-2,-1.466075480E-1
2.732672792E1,1.084284950E-2,4.864010960E-2,-2.260199748E-2
2.734339459E1,1.336266696E-1,-8.399390499E-4,1.282816008E-2
2.736006125E1,6.215549260E-2,-9.613484144E-2,-9.224057943E-2
2.737672792E1,-5.329795182E-2,-2.402989268E-1,-1.612683088E-1
2.739339459E1,-4.841103405E-2,-2.207512558E-1,-9.834922850E-2
2.741006125E1,2.551887631E-1,5.535962060E-2,1.832594350E-2
2.742672792E1,3.981311321E-1,1.683696061E-1,-4.153880477E-2
2.744339458E1,4.256200492E-1,3.510181606E-1,-2.809977904E-2
2.746006125E1,4.732674956E-1,3.442986608E-1,1.832594397E-3
2.747672792E1,3.382663727E-1,2.990946770E-1,-7.635809481E-2
2.749339458E1,2.264781147E-1,3.687332571E-1,-6.108647957E-2
2.751006125E1,1.171333194E-1,2.062432170E-1,-7.880155742E-2
2.752672791E1,6.948586553E-2,1.793651730E-1,-5.864302069E-2
2.754339458E1,8.414662629E-2,2.264017612E-1,9.773836471E-3
2.756006125E1,1.317940801E-1,2.471711636E-1,-1.832594397E-3
2.757672791E1,2.319758981E-1,3.100902438E-1,-8.735366166E-2
2.759339458E1,5.038107038E-1,3.388008773E-1,-1.441640854E-1
2.761006124E1,2.490801066E-1,1.567631811E-1,-3.365865052E-1
2.762672791E1,-2.408334464E-1,-1.122464053E-2,-3.842339516E-1
2.764339458E1,-3.226893246E-1,-3.111592531E-1,-2.425133139E-1
2.766006124E1,-2.994764447E-1,-2.922224402E-1,-2.467893660E-1
2.767672791E1,-2.163988501E-1,-2.891681194E-1,-3.255909383E-1
2.769339457E1,-6.185005978E-2,-6.253728271E-2,-2.974911332E-1
2.771006124E1,7.620538026E-2,-5.215258151E-2,-3.634645343E-1
2.772672791E1,2.564104795E-1,2.490037531E-1,-2.968802750E-1
2.774339457E1,2.588539422E-1,1.909715980E-1,-1.313359290E-1
2.776006124E1,-7.635809598E-4,1.830303669E-1,-9.224057943E-2
2.777672790E1,-2.109010667E-1,1.311068535E-1,2.443459118E-3
2.779339457E1,-4.912880063E-1,-3.203222156E-1,-4.581485689E-2
2.781006124E1,-6.953168511E-1,-3.612501621E-1,4.886918142E-2
2.782672790E1,-6.397281289E-1,-4.699840844E-1,3.365865052E-1
2.784339457E1,-3.214675784E-1,2.545015514E-1,6.670643687E-1
2.786006123E1,9.147699922E-2,-1.340084672E-1,4.776962698E-1
2.787672790E1,2.655734718E-1,1.512653977E-1,4.764745235E-1
2.789339457E1,4.567741454E-1,4.762454629E-1,9.798271060E-1
2.791006123E1,5.881100893E-1,6.582831740E-1,1.431867003E0
2.792672790E1,4.231765866E-1,-1.450040340E-1,9.926552773E-1
2.794339456E1,-9.315688163E-3,-8.432224989E-1,4.563159943E-1
2.796006123E1,-7.406735420E-2,-1.165148258E0,4.056142271E-1
2.797672790E1,3.833176568E-2,-1.018540621E0,4.312705398E-1
2.799339456E1,1.837175786E-1,-1.091233611E0,4.007273018E-1
2.801006123E1,2.930623889E-1,-1.104061723E0,2.981020212E-1
2.802672789E1,5.025889874E-1,-7.344885468E-1,3.139844835E-1
2.804339456E1,9.369138479E-1,-5.561160445E-1,3.695732057E-1
2.806006123E1,1.269224286E0,7.712167688E-3,4.239401519E-1
2.807672789E1,1.384066820E0,4.970148504E-1,4.856374860E-1
2.809339456E1,1.334586859E0,1.720348001E-1,2.535088956E-1
2.811006122E1,9.088140726E-1,4.046979360E-3,-1.954767257E-1
2.812672789E1,4.054614902E-1,-3.954585791E-1,-7.159335017E-1
2.814339456E1,-2.249509543E-1,-7.015018463E-1,-7.696896195E-1
2.816006122E1,-7.429642677E-1,-8.481093645E-1,-3.176496923E-2
2.817672789E1,-9.042325616E-1,-1.335579515E0,1.423314959E-1
2.819339455E1,-7.490729094E-1,-4.986947477E-1,0.000000000E0
2.821006122E1,-3.715584874E-1,2.099084109E-1,-1.985310465E-1
2.822672789E1,2.594648004E-1,3.791179657E-1,-1.869246215E-1
2.824339455E1,2.515235841E-1,1.099327564E0,-2.797760665E-1
2.826006122E1,-5.650499370E-3,1.308854103E0,-6.267472506E-1
2.827672788E1,-1.473711282E-1,1.236161232E0,-7.330377102E-1
2.829339455E1,-2.634354234E-1,5.428296924E-1,-5.962040424E-1
2.831006122E1,-2.060141414E-1,-6.948587019E-3,-4.135554433E-1
2.832672788E1,-2.438877672E-1,4.835758209E-1,-4.618137777E-1
2.834339455E1,-9.243911505E-1,-3.936260045E-1,-7.415898442E-1
2.836006121E1,-7.948877811E-1,-5.713876486E-1,-6.676751971E-1
2.837672788E1,-5.542070866E-1,-5.310705900E-1,-5.436696410E-1
2.839339455E1,3.474293351E-1,2.135736048E-1,-3.445277214E-1
2.841006121E1,-7.834340632E-2,-4.253909588E-1,-8.301652074E-1
2.842672788E1,-5.151117444E-1,-1.033201456E0,-8.399390578E-1
2.844339454E1,-9.946405888E-1,-1.144989729E0,-5.155698657E-1
2.846006121E1,-1.259755850E0,-1.680718064E0,-5.943714380E-1
2.847672788E1,-1.094822407E0,-1.319697022E0,-7.195987105E-1
2.849339454E1,-4.155407548E-1,-9.342412949E-1,-6.487383842E-1
2.851006121E1,6.215549260E-2,-1.112613797E0,-8.032872081E-1
2.852672787E1,-1.962403059E-1,-3.624718785E-1,-1.130710721E0
2.854339454E1,-1.333212405E-1,7.368556410E-2,-7.739656568E-1
2.856006121E1,-2.622137070E-1,-2.928332984E-1,-8.558215499E-1
2.857672787E1,-2.585485280E-1,-1.077412739E-1,-9.590576887E-1
2.859339454E1,-2.780961990E-1,-1.902080178E-1,-1.137430191E0
2.861006120E1,-2.109010667E-1,8.409317136E-1,-9.150754213E-1
2.862672787E1,1.574503928E-1,-1.149876595E0,-1.147814870E0
2.864339454E1,-5.804742575E-1,3.125337064E-1,-9.498947263E-1
2.866006120E1,-7.228057384E-1,1.323285848E-1,-2.284634262E-1
2.867672787E1,-4.540252388E-1,-3.062723279E-1,-9.059124589E-1
2.869339453E1,-8.730784655E-1,-1.300760150E0,-1.573587656E0
2.871006120E1,-1.116813540E0,-1.428430915E0,-1.433088779E0
2.872672787E1,-1.184619546E0,-1.330081701E0,-1.385441303E0
2.874339453E1,-1.515097380E0,-1.245782375E0,-1.456301689E0
2.876006120E1,-1.628718257E0,-1.264108300E0,-1.591913581E0
2.877672786E1,-1.585957646E0,-8.597158194E-1,-1.943771720E0
2.879339453E1,-1.595731497E0,-5.665007234E-1,-2.235154152E0
2.881006120E1,-1.092378974E0,-5.041925311E-1,-1.935219646E0
2.882672786E1,-4.014908671E-1,2.917642891E-1,-1.367115378E0
2.884339453E1,5.117519498E-1,1.056566954E0,-7.373138070E-1
2.886006119E1,1.249676585E0,9.295071363E-1,-2.541197538E-1
2.887672786E1,1.043815136E0,5.416079760E-1,-1.044578776E-1
2.889339453E1,7.615956664E-1,6.146826968E-2,1.802051067E-1
2.891006119E1,8.257364631E-1,7.002037764E-2,2.272416949E-1
2.892672786E1,7.524327040E-1,-9.308052063E-2,-7.635809481E-2
2.894339452E1,1.605047137E-1,-4.449386299E-1,-2.724456787E-1
2.896006119E1,-2.347247899E-1,-9.873865843E-1,1.576031148E-1
2.897672786E1,-4.534143806E-1,-1.062522888E0,5.039634705E-1
2.899339452E1,-4.589121640E-1,-8.670461774E-1,6.383537054E-1
2.901006119E1,-5.390881747E-2,-6.770672202E-1,7.061597109E-1
2.902672785E1,4.787652791E-1,-5.548942685E-1,7.959567904E-1
2.904339452E1,9.185879230E-1,-4.473820925E-1,1.012202978E0
2.906006119E1,1.371849537E0,-2.445749789E-1,1.246775031E0
2.907672785E1,2.103054762E0,2.420551702E-2,1.175303817E0
2.909339452E1,2.530049086E0,-4.665479809E-2,9.022472501E-1
2.911006118E1,2.644280910E0,-2.751182318E-1,5.962040424E-1
2.912672785E1,2.354120255E0,-6.624065042E-1,4.013381600E-1
2.914339452E1,1.520900607E0,-1.414991856E0,5.613847375E-1
2.916006118E1,7.732021213E-1,-1.735085011E0,8.442151546E-1
2.917672785E1,6.186532974E-1,-1.891466379E0,1.098945737E0
2.919339451E1,8.428406715E-1,-1.756465316E0,1.273042202E0
2.921006118E1,1.030987024E0,-1.563432097E0,1.219896913E0
2.922672785E1,1.198974848E0,-1.375285745E0,1.145371437E0
2.924339451E1,1.027321815E0,-1.436372161E0,1.241277218E0
2.926006118E1,5.465712547E-1,-1.470580578E0,1.568700790E0
2.927672784E1,1.672242284E-1,-1.331303477E0,1.868635416E0
2.929339451E1,1.574503928E-1,-9.574542046E-1,1.840535522E0
2.931006118E1,6.669116020E-1,-6.434696913E-1,1.456912518E0
2.932672784E1,9.949460030E-1,-6.275871992E-1,9.211840630E-1
2.934339451E1,8.904881477E-1,-9.592867494E-1,4.697550237E-1
2.936006117E1,7.108938694E-1,-8.621592522E-1,4.410443604E-1
2.937672784E1,6.681333780E-1,-8.175661564E-1,5.595521331E-1
2.939339451E1,5.227475166E-1,-6.880627871E-1,4.929678738E-1
2.941006117E1,1.562286615E-1,-4.614319801E-1,1.716530025E-1
2.942672784E1,-2.603811026E-1,-4.217257798E-1,-2.357937992E-1
2.944339450E1,-3.593412042E-1,-5.459604040E-2,-6.957749724E-1
2.946006117E1,-3.349066079E-1,-2.885572612E-1,-9.040798545E-1
2.947672784E1,-3.544542789E-1,-1.932623386E-1,-9.431751966E-1
2.949339450E1,-5.309942365E-1,-5.420661569E-1,-1.084895849E0
2.951006117E1,-6.776017547E-1,-2.745073736E-1,-1.233335972E0
2.952672783E1,-9.897536635E-1,-8.147408813E-2,-1.324354887E0
2.954339450E1,-1.249371171E0,1.476002038E-1,-1.603520036E0
2.956006117E1,-1.398422241E0,-3.074940443E-1,-2.022573233E0
2.957672783E1,-1.154687166E0,1.830303669E-1,-2.466671944E0
2.959339450E1,-6.953168511E-1,-1.122464053E-2,-2.467893600E0
2.961006116E1,-2.848156989E-1,3.406334817E-1,-2.180787325E0
2.962672783E1,2.916879393E-2,1.197065949E0,-1.894291639E0
2.964339450E1,-1.527161949E-4,1.523878574E0,-1.971260667E0
2.966006116E1,-2.707658112E-1,8.500946760E-1,-2.176511288E0
2.967672783E1,-4.033234715E-1,-3.429242074E-1,-2.042731762E0
2.969339449E1,9.330959618E-2,-1.261664867E0,-1.601076603E0
2.971006116E1,9.961677194E-1,-1.837710381E0,-1.124602079E0
2.972672783E1,1.183703184E0,-8.707113862E-1,-1.006094337E0
2.974339449E1,3.895790279E-1,-1.358410567E-1,-1.320689678E0
2.976006116E1,-3.740019500E-1,-1.981492639E-1,-1.472795010E0
2.977672782E1,-3.863719851E-2,1.237764731E-1,-1.523496747E0
2.979339449E1,5.667297840E-1,2.481638081E-2,-1.530216217E0
2.981006116E1,7.286089659E-1,2.481638081E-2,-1.436143041E0
2.982672782E1,2.551887631E-1,1.280525327E-1,-1.180801630E0
2.984339449E1,-1.962403059E-1,-1.559995860E-1,-1.087950230E0
2.986006115E1,-4.949531853E-1,-3.991237879E-1,-1.068402529E0
2.987672782E1,-8.455895782E-1,-5.365683436E-1,-9.737184644E-1
2.989339449E1,-1.085659385E0,-3.881282210E-1,-7.880155444E-1
2.991006115E1,-1.389870048E0,-2.916115820E-1,-6.279689670E-1
2.992672782E1,-1.735008717E0,-2.561814189E-1,-3.585776389E-1
2.994339448E1,-1.766162753E0,-6.984475255E-1,-2.645044625E-1
2.996006115E1,-1.476612926E0,-5.970439911E-1,-4.544833899E-1
2.997672782E1,-1.537699342E0,-6.819541454E-1,-4.062250853E-1
2.999339448E1,-1.221882224E0,-3.258199990E-1,-2.834412456E-1
3.001006115E1,-6.934842467E-1,4.872410297E-1,-4.917461574E-1
3.002672781E1,-3.813323379E-1,8.708640933E-1,-8.368847370E-1
3.004339448E1,-1.015562713E-1,2.245691717E-1,-1.016479015E0
3.006006115E1,4.286743701E-1,5.153408051E-1,-6.426297426E-1
3.007672781E1,2.405280024E-1,4.200458825E-1,-3.426951468E-1
3.009339448E1,8.306233883E-1,3.803396821E-1,-1.716530025E-1
3.011006114E1,1.473253131E0,7.370846868E-1,-3.848448023E-2
3.012672781E1,1.583819628E0,6.931024790E-1,1.026252806E-1
3.014339448E1,1.845880628E0,6.821069121E-1,2.938259542E-1
3.016006114E1,2.295477152E0,6.307942271E-1,5.064069033E-1
3.017672781E1,2.614959478E0,4.206567705E-1,6.805033684E-1
3.019339447E1,2.471406221E0,-7.536543906E-2,9.657772183E-1
3.021006114E1,2.195906162E0,-2.256381810E-1,1.010981202E0
3.022672781E1,1.981492639E0,-9.796743840E-2,9.480621219E-1
3.024339447E1,1.752418280E0,-3.905716538E-1,9.517273307E-1
3.026006114E1,1.471420527E0,-3.264308572E-1,1.130099893E0
3.027672780E1,1.393840671E0,2.215148360E-1,1.430645347E0
3.029339447E1,1.407279730E0,4.432587624E-1,1.748905897E0
3.031006114E1,1.375514746E0,5.544361472E-1,2.019518852E0
3.032672780E1,9.375247359E-1,4.701367915E-1,2.120922565E0
3.034339447E1,3.553705812E-1,-1.731038094E-1,2.163682938E0
3.036006113E1,-1.821904182E-1,-8.316160440E-1,2.198502302E0
3.037672780E1,-5.688678026E-1,-1.397887707E0,2.073275089E0
3.039339447E1,-6.598866582E-1,-1.526169300E0,1.897956848E0
3.041006113E1,-7.490729094E-1,-1.615355492E0,1.804494500E0
3.042672780E1,-4.986183643E-1,-1.347796798E0,1.448971272E0
3.044339446E1,5.787943676E-2,-9.910517335E-1,1.106276155E0
3.046006113E1,6.766854525E-1,-4.082867503E-1,1.053130865E0
3.047672780E1,1.004109025E0,-4.931969643E-1,9.254601598E-1
3.049339446E1,8.446732759E-1,-2.402989268E-1,7.849612236E-1
3.051006113E1,4.433351159E-1,1.579848975E-1,8.484911919E-1
3.052672779E1,1.641699076E-1,2.483928949E-1,8.717040420E-1
3.054339446E1,1.220202371E-1,2.990946770E-1,8.894191384E-1
3.056006113E1,9.621120058E-3,-1.095738709E-1,8.332195878E-1
3.057672779E1,-6.612611562E-2,-4.235583544E-1,7.110465765E-1
3.059339446E1,-8.445205539E-2,-4.852557182E-1,3.255909383E-1
3.061006112E1,-3.924806044E-2,-5.078576803E-1,-1.093447953E-1
3.062672779E1,-4.474584386E-2,-5.689441562E-1,-5.271763206E-1
3.064339446E1,-1.204930767E-1,-3.722457290E-1,-8.051197529E-1
3.066006112E1,-3.300196826E-1,-9.392046370E-3,-7.855721116E-1
3.067672779E1,-5.652026534E-1,3.901135325E-1,-8.393282294E-1
3.069339445E1,-6.733257174E-1,6.320159435E-1,-9.199623466E-1
3.071006112E1,-5.505418777E-1,6.375137568E-1,-1.123380303E0
3.072672779E1,-5.126682520E-1,5.635991096E-1,-1.200960159E0
3.074339445E1,-4.918988645E-1,8.006146550E-1,-1.109941363E0
3.076006112E1,-4.778489769E-1,1.196455002E0,-9.926552773E-1
3.077672778E1,-4.247037470E-1,1.443855286E0,-9.663881063E-1
3.079339445E1,5.345067009E-3,1.002810836E0,-1.005483389E0
3.081006112E1,7.738129497E-1,5.031235218E-1,-1.231503367E0
3.082672778E1,1.298545837E0,4.866301417E-1,-1.461188555E0
3.084339445E1,1.358410597E0,4.493674040E-1,-1.544877052E0
3.086006111E1,1.032819629E0,1.237764731E-1,-1.393993378E0
3.087672778E1,-1.131627038E-1,-2.085339576E-1,-1.335350394E0
3.089339445E1,-1.385594010E0,-3.777435124E-1,-1.410486817E0
3.091006111E1,-1.725845695E0,-5.530617237E-1,-1.335961223E0
3.092672778E1,-1.030681610E0,-1.010217592E-1,-1.215620875E0
3.094339444E1,-3.630063832E-1,3.620137274E-1,-1.237001181E0
3.096006111E1,2.244928107E-2,7.364738584E-1,-1.189353704E0
3.097672778E1,-3.924806044E-2,6.039161682E-1,-9.553925395E-1
3.099339444E1,-3.568977416E-1,5.409971476E-1,-8.118392825E-1
3.101006111E1,-4.454731345E-1,4.127155244E-1,-6.169734001E-1
3.102672777E1,-3.544542789E-1,2.923751473E-1,-6.181951761E-1
3.104339444E1,-6.360629797E-1,3.552942276E-1,-7.922916412E-1
3.106006111E1,-1.085048556E0,6.940951198E-2,-6.994401813E-1
3.107672777E1,-1.187062979E0,-3.734674454E-1,-1.108108759E0
3.109339444E1,-1.175456524E0,-3.948477209E-1,-1.172860384E0
3.111006110E1,-1.261588454E0,-3.105483949E-1,-9.059124589E-1
3.112672777E1,-9.152281284E-1,1.879172772E-1,-7.794634700E-1
3.114339444E1,-1.388190240E-1,1.396589577E-1,-7.263182402E-1
3.116006110E1,2.173151523E-1,2.874882221E-1,-3.451386094E-1
3.117672777E1,-3.207040019E-3,5.507709384E-1,-1.789833754E-1
3.119339443E1,5.160280466E-1,2.874882221E-1,-9.162971750E-3
3.121006110E1,5.893318057E-1,4.237110913E-1,1.093447953E-1
3.122672777E1,4.146244824E-1,4.059959948E-1,3.549124300E-1
3.124339443E1,5.630646348E-1,3.082576394E-1,5.131264329E-1
3.126006110E1,7.060069442E-1,3.375791609E-1,5.839866996E-1
3.127672776E1,6.473639607E-1,2.233474404E-1,6.579013467E-1
3.129339443E1,5.960513353E-1,1.286633909E-1,8.423825502E-1
3.131006110E1,5.807796717E-1,1.390480995E-1,9.871574640E-1
3.132672776E1,4.983129501E-1,-1.364519149E-1,1.138651967E0
3.134339443E1,3.834703565E-1,-3.386481702E-1,1.241277218E0
3.136006109E1,2.967275679E-1,-4.376082420E-1,1.325576544E0
3.137672776E1,4.024071693E-1,-4.541015923E-1,1.430645347E0
3.139339443E1,5.978838801E-1,-5.286270976E-1,1.572365999E0
3.141006109E1,9.137009978E-1,-3.533089161E-1,1.822209597E0
3.142672776E1,1.044426084E0,-4.101193547E-1,2.018908024E0
3.144339442E1,9.863939285E-1,-5.341249108E-1,2.032958031E0
3.146006109E1,6.870701313E-1,-5.212967396E-1,1.693928003E0
3.147672776E1,2.252563834E-1,-6.624065042E-1,1.357952356E0
3.149339442E1,-7.040216774E-2,-8.200095892E-1,1.231503367E0
3.151006109E1,-3.680460155E-2,-8.639918566E-1,1.303585410E0
3.152672775E1,9.010255337E-3,-7.815251350E-1,1.755014539E0
3.154339442E1,1.756236330E-2,-1.086346626E0,2.152076721E0
3.156006109E1,2.032652497E-1,-1.181030750E0,2.166737318E0
3.157672775E1,2.063195854E-1,-1.136437535E0,1.911395907E0
3.159339442E1,1.922696829E-1,-7.980184555E-1,1.519220710E0
3.161006108E1,3.620901108E-1,-4.669297636E-1,1.280372620E0
3.162672775E1,3.602575064E-1,-4.589885175E-1,1.402545571E0
3.164339442E1,1.965457499E-1,-1.871536970E-1,1.441640854E0
3.166006108E1,-1.791360974E-1,-1.224020272E-1,1.079398036E0
3.167672775E1,-3.446804583E-1,-4.604393244E-2,6.145299673E-1
3.169339441E1,-2.017380893E-1,5.658135191E-2,1.612683088E-1
3.171006108E1,-1.510363221E-1,1.748600416E-2,-2.119700760E-1
3.172672775E1,-2.909243405E-1,2.997055352E-1,-4.031707644E-1
3.174339441E1,-4.442514181E-1,5.061778426E-1,-6.450732350E-1
3.176006108E1,-4.387536347E-1,8.134428263E-1,-7.287616730E-1
3.177672774E1,-5.578722358E-1,5.434405804E-1,-6.945532560E-1
3.179339441E1,-5.639809370E-1,6.314051151E-1,-8.136718869E-1
3.181006108E1,-4.839576185E-1,7.425825000E-1,-1.040302753E0
3.182672774E1,-3.025307953E-1,6.912698746E-1,-1.225394726E0
3.184339441E1,-7.635809598E-4,6.637809277E-1,-1.313359261E0
3.186006107E1,1.715002805E-1,5.874228477E-1,-1.308472395E0
3.187672774E1,2.295324355E-1,2.856556475E-1,-1.211955667E0
3.189339441E1,2.735147178E-1,3.009272516E-1,-1.145371437E0
3.191006107E1,2.020435184E-1,1.781434417E-1,-1.145371437E0
3.192672774E1,1.330158114E-1,1.408806890E-1,-1.262657523E0
3.194339440E1,-5.039634649E-3,4.481456876E-1,-1.542433619E0
3.196006107E1,-1.882990748E-1,6.662244201E-1,-1.736077666E0
3.197672774E1,-2.218966335E-1,6.527853608E-1,-1.747684121E0
3.199339440E1,-2.115119249E-1,5.147299170E-1,-1.569922447E0
3.201006107E1,-2.182314396E-1,5.581013560E-1,-1.364060998E0
3.202672773E1,-4.479165971E-1,2.966512144E-1,-1.222951293E0
3.204339440E1,-7.166970968E-1,2.135736048E-1,-1.196073294E0
3.206006107E1,-8.455895782E-1,1.188895553E-1,-1.232114315E0
3.207672773E1,-8.504765034E-1,9.926552884E-4,-1.309694052E0
3.209339440E1,-9.830341339E-1,-6.925679743E-2,-1.360395908E0
3.211006106E1,-9.824233055E-1,-3.565923125E-2,-1.353065491E0
3.212672773E1,-9.634864926E-1,-3.386481702E-1,-1.309083223E0
3.214339440E1,-1.000749230E0,-3.056614697E-1,-1.199127555E0
3.216006106E1,-9.390518665E-1,1.076649129E-2,-1.176525593E0
3.217672773E1,-3.648389876E-1,-2.140317410E-1,-1.147204041E0
3.219339439E1,2.069304436E-1,-5.603920817E-1,-9.798271060E-1
3.221006106E1,2.344193608E-1,2.233474404E-1,-6.841685772E-1
3.222672773E1,1.934914142E-1,1.836412251E-1,-4.612029195E-1
3.224339439E1,3.755291104E-1,3.581194952E-2,-3.127627671E-1
3.226006106E1,4.708240330E-1,-9.430225194E-2,-2.565632015E-2
3.227672772E1,4.775435328E-1,-1.672242396E-2,3.072649837E-1
3.229339439E1,5.874992013E-1,2.325104028E-1,5.125155449E-1
3.231006106E1,7.835868001E-1,2.306778133E-1,7.305942774E-1
3.232672772E1,9.442442060E-1,4.304305911E-1,8.991929293E-1
3.234339439E1,1.080467105E0,3.082576394E-1,1.089782715E0
3.236006105E1,1.197142243E0,3.314704895E-1,1.213788271E0
3.237672772E1,1.096960425E0,3.180314898E-1,1.311526656E0
3.239339439E1,9.405790567E-1,3.375791609E-1,1.313359261E0
3.241006105E1,8.122974634E-1,4.805215001E-1,1.425758362E0
3.242672772E1,5.905535221E-1,2.245691717E-1,1.577863693E0
3.244339438E1,3.859138191E-1,-8.697187155E-2,1.681710720E0
3.246006105E1,3.547597229E-1,-1.370627880E-1,1.840535522E0
3.247672772E1,2.478583902E-1,-2.103665620E-1,2.121533394E0
3.249339438E1,2.032652497E-1,-5.005273223E-1,2.278525591E0
3.251006105E1,2.472475171E-1,-8.621592522E-1,2.337168694E0
3.252672771E1,1.238528341E-1,-1.210963011E0,2.384816170E0
3.254339438E1,-1.559232324E-1,-1.684383273E0,2.379929066E0
3.256006105E1,-3.263545036E-1,-1.810832262E0,2.313955784E0
3.257672771E1,-3.471239209E-1,-1.540830016E0,2.281579971E0
3.259339438E1,-6.246092543E-2,-1.150487423E0,2.087935925E0
3.261006104E1,3.529271185E-1,-8.090140224E-1,1.682932496E0
3.262672771E1,6.094903350E-1,-4.510472715E-1,1.224783897E0
3.264339438E1,4.769326746E-1,-3.551415205E-1,9.627228975E-1
3.266006104E1,1.238528341E-1,-1.639408320E-1,1.001818180E0
3.267672771E1,-1.125518382E-1,-2.421315312E-1,7.464767694E-1
3.269339437E1,-1.785252392E-1,-3.239873946E-1,2.028071135E-1
3.271006104E1,-2.109010667E-1,-5.115992390E-3,-3.029889166E-1
3.272672771E1,-1.559232324E-1,2.942077518E-1,-6.658425927E-1
3.274339437E1,-4.430296719E-1,6.085740402E-2,-8.124501705E-1
3.276006104E1,-4.973966479E-1,5.819250345E-1,-7.623592615E-1
3.277672770E1,-4.650208056E-1,4.463130832E-1,-8.374956250E-1
3.279339437E1,-3.813323379E-1,3.461312652E-1,-1.066569924E0
3.281006104E1,-1.956294477E-1,8.079450130E-1,-1.251661897E0
3.282672770E1,4.505127668E-2,1.031521559E0,-1.342680812E0
3.284339437E1,1.018617004E-1,9.808197618E-1,-1.130099893E0
3.286006103E1,1.756236330E-2,9.429461360E-1,-9.022472501E-1
3.287672770E1,-7.101303339E-2,7.749583125E-1,-8.545998335E-1
3.289339437E1,-1.601992846E-1,4.792997837E-1,-9.413426518E-1
3.291006103E1,-1.559232324E-1,6.766090989E-1,-1.156977892E0
3.292672770E1,3.512472380E-3,8.403208852E-1,-1.445306063E0
3.294339436E1,2.753472924E-1,9.600503445E-1,-1.656054378E0
3.296006103E1,4.427242577E-1,8.952987194E-1,-1.545487881E0
3.297672770E1,4.897608459E-1,7.181479335E-1,-1.461188555E0
3.299339436E1,2.209803313E-1,8.445969224E-1,-1.513112068E0
3.301006103E1,-4.442514181E-1,7.157044411E-1,-1.578474641E0
3.302672769E1,-8.626937866E-1,6.155226231E-1,-1.683543324E0
3.304339436E1,-9.769254923E-1,4.066068828E-1,-1.721416950E0
3.306006103E1,-9.585995674E-1,2.581667304E-1,-1.517998934E0
3.307672769E1,-9.158390164E-1,9.445496649E-2,-1.382387042E0
3.309339436E1,-8.144354820E-1,-1.855501719E-2,-1.235168576E0
3.311006102E1,-8.046616316E-1,1.860846877E-1,-1.194240689E0
3.312672769E1,-7.643445730E-1,1.689804643E-1,-1.336572170E0
3.314339436E1,-3.648389876E-1,-1.902080178E-1,-1.290146470E0
3.316006102E1,-3.581194878E-1,-3.667479455E-1,-1.018311620E0
3.317672769E1,-7.081450224E-1,-5.826122686E-2,-6.469057798E-1
3.319339435E1,-7.026472092E-1,-1.462257504E-1,-3.035998046E-1
3.321006102E1,-2.921460867E-1,-1.266780794E-1,-1.123991162E-1
3.322672769E1,6.032289565E-2,-2.283107117E-2,5.253437161E-2
3.324339435E1,1.898262352E-1,-1.450803829E-3,1.429423541E-1
3.326006102E1,3.859138191E-1,1.225547493E-1,3.616319597E-1
3.327672768E1,4.879282415E-1,1.292742640E-1,5.100721121E-1
3.329339435E1,6.333140731E-1,1.543197185E-1,6.768381596E-1
3.331006102E1,7.072287202E-1,6.146826968E-2,8.857539296E-1
3.332672768E1,6.339249015E-1,7.712167688E-3,1.028696299E0
3.334339435E1,5.154171586E-1,7.712167688E-3,1.097723961E0
3.336006101E1,5.765036345E-1,-7.414371520E-2,1.181412458E0
3.337672768E1,4.946477413E-1,-1.126281917E-1,1.267544389E0
3.339339435E1,4.072940946E-1,-1.553887278E-1,1.399491191E0
