"Time (s)","Acceleration x (m/s^2)","Acceleration y (m/s^2)","Acceleration z (m/s^2)"
1.426756700E-2,1.923829436E0,3.608376503E0,9.057730675E0
2.860944200E-2,2.004287958E0,3.518346548E0,9.185149193E0
4.527610800E-2,1.915753603E0,3.614059448E0,8.953044891E0
6.194277400E-2,1.781157374E0,3.657130241E0,8.337491035E0
7.860944000E-2,1.781157374E0,3.657130241E0,8.337491035E0
9.527610600E-2,1.781157374E0,3.657130241E0,8.337491035E0
1.119427720E-1,1.781157374E0,3.657130241E0,8.337491035E0
1.286094380E-1,1.568196177E0,3.925126553E0,8.148458481E0
1.452761040E-1,1.568196177E0,3.925126553E0,8.148458481E0
1.619427700E-1,1.568196177E0,3.925126553E0,8.148458481E0
1.786094360E-1,1.568196177E0,3.925126553E0,8.148458481E0
1.952761020E-1,1.951645970E0,3.060420275E0,9.457930565E0
2.119427680E-1,1.741077542E0,3.416053534E0,9.172586441E0
2.286094340E-1,1.501795292E0,3.755834341E0,8.564809799E0
2.452761000E-1,1.501795292E0,3.755834341E0,8.564809799E0
2.619427660E-1,1.501795292E0,3.755834341E0,8.564809799E0
2.786094320E-1,8.039883971E-1,2.553141832E0,9.764211655E0
2.952760980E-1,8.039883971E-1,2.553141832E0,9.764211655E0
3.119427640E-1,-1.627119333E-1,2.453540564E0,8.715557098E0
3.286094300E-1,-4.130610228E-1,2.360818624E0,7.901100159E0
3.452760960E-1,-4.130610228E-1,2.360818624E0,7.901100159E0
3.619427620E-1,-4.130610228E-1,2.360818624E0,7.901100159E0
3.786094280E-1,-4.130610228E-1,2.360818624E0,7.901100159E0
3.952760940E-1,1.506580949E0,3.305983543E0,9.226723671E0
4.119427600E-1,1.257129192E0,2.817847729E0,9.749855042E0
4.286094260E-1,1.185942769E0,2.589034081E0,9.740283966E0
4.452760920E-1,1.185942769E0,2.589034081E0,9.740283966E0
4.619427580E-1,1.185942769E0,2.589034081E0,9.740283966E0
4.786094240E-1,1.185942769E0,2.589034081E0,9.740283966E0
4.952760900E-1,1.185942769E0,2.589034081E0,9.740283966E0
5.119427560E-1,9.245268703E-1,2.502892494E0,1.012792110E1
5.286094220E-1,4.603192508E-1,2.233400822E0,9.556035995E0
5.452760880E-1,4.603192508E-1,2.233400822E0,9.556035995E0
5.619427540E-1,1.334297776E0,1.627119422E0,1.138594723E1
5.786094200E-1,1.334297776E0,1.627119422E0,1.138594723E1
5.952760860E-1,3.595515013E0,2.148754835E0,6.320940018E0
6.119427520E-1,3.595515013E0,2.148754835E0,6.320940018E0
6.286094180E-1,8.086843491E0,4.410869598E0,8.135597229E0
6.452760840E-1,2.530709028E0,1.793719649E0,8.382058144E0
6.619427500E-1,2.530709028E0,1.793719649E0,8.382058144E0
6.786094160E-1,2.530709028E0,1.793719649E0,8.382058144E0
6.952760820E-1,2.530709028E0,1.793719649E0,8.382058144E0
7.119427480E-1,2.530709028E0,1.793719649E0,8.382058144E0
7.286094140E-1,3.716053486E0,1.331904888E0,1.079162979E1
7.452760800E-1,2.605783939E0,1.557727575E0,9.914361954E0
7.619427460E-1,2.605783939E0,1.557727575E0,9.914361954E0
7.786094120E-1,2.605783939E0,1.557727575E0,9.914361954E0
7.952760780E-1,2.605783939E0,1.557727575E0,9.914361954E0
8.119427440E-1,2.605783939E0,1.557727575E0,9.914361954E0
8.286094100E-1,2.605783939E0,1.557727575E0,9.914361954E0
8.452760760E-1,3.669692516E0,5.958128572E-1,9.623932838E0
8.619427420E-1,3.669692516E0,5.958128572E-1,9.623932838E0
8.786094080E-1,3.344268799E0,-7.959126234E-1,9.611071587E0
8.952760740E-1,3.344268799E0,-7.959126234E-1,9.611071587E0
9.119427400E-1,3.001496792E0,-3.092424154E0,1.140090275E1
9.286094060E-1,2.732603550E0,-3.800699711E0,1.180140114E1
9.452760720E-1,3.651447296E0,-4.216153622E0,1.175833035E1
9.619427380E-1,3.651447296E0,-4.216153622E0,1.175833035E1
9.786094040E-1,3.651447296E0,-4.216153622E0,1.175833035E1
9.952760700E-1,3.229413271E0,-4.419543266E0,9.841679573E0
1.011942736E0,3.229413271E0,-4.419543266E0,9.841679573E0
1.028609402E0,1.890329838E0,-5.288137913E0,8.306385040E0
1.045276068E0,2.115255117E0,-6.059524059E0,7.679465294E0
1.061942734E0,2.115255117E0,-6.059524059E0,7.679465294E0
1.078609400E0,2.115255117E0,-6.059524059E0,7.679465294E0
1.095276066E0,2.115255117E0,-6.059524059E0,7.679465294E0
1.111942732E0,2.115255117E0,-6.059524059E0,7.679465294E0
1.128609398E0,2.115255117E0,-6.059524059E0,7.679465294E0
1.145276064E0,-8.431708813E-1,-8.443373680E0,3.149851799E0
1.161942730E0,-1.147059321E0,-8.945268631E0,2.474178553E0
1.178609396E0,-1.897508383E0,-9.987641335E0,2.577069998E0
1.195276062E0,-1.849651933E0,-9.695717812E0,1.947757602E0
1.211942728E0,-1.849651933E0,-9.695717812E0,1.947757602E0
1.228609394E0,-1.818545222E0,-9.353543282E0,1.986042738E0
1.245276060E0,-1.067198873E0,-9.040083885E0,2.426322222E0
1.261942726E0,-3.247060299E0,-8.492127419E0,4.206582069E0
1.278609392E0,-4.565505505E0,-9.064012527E0,3.833301783E0
1.295276058E0,-2.117648125E0,-9.521040916E0,3.220739365E0
1.311942724E0,2.105683982E-1,-7.257431030E0,4.108476639E0
1.328609390E0,1.718046665E0,-7.511070251E0,5.745167255E0
1.345276056E0,1.718046665E0,-7.511070251E0,5.745167255E0
1.361942722E0,2.727817893E-1,-7.975277901E0,6.336194515E0
1.378609388E0,-2.608176768E-1,-8.300702095E0,5.876772404E0
1.395276054E0,7.609176040E-1,-7.850851059E0,4.125226021E0
1.411942720E0,8.638089895E-1,-7.726424217E0,5.553741455E0
1.428609386E0,1.256231904E0,-7.692924976E0,7.211967468E0
1.445276052E0,4.761717021E-1,-7.738388538E0,6.247660160E0
1.461942718E0,2.017149448E0,-6.893722057E0,4.098905087E0
1.478609384E0,6.029912829E-1,-6.132804394E0,3.672982693E0
1.495276050E0,1.555334777E-1,-6.075376511E0,3.421736479E0
1.511942716E0,3.110669553E-1,-7.728816986E0,6.180660725E0
1.528609382E0,6.005984545E-1,-8.264809608E0,5.486742496E0
1.545276048E0,3.278166950E-1,-8.030312538E0,5.379065514E0
1.561942714E0,2.009970993E-1,-7.518248558E0,5.649454117E0
1.578609380E0,-1.651047617E-1,-7.685746193E0,6.455835342E0
1.595276046E0,-2.679961324E-1,-6.965506554E0,6.845865726E0
1.611942712E0,-2.057827413E-1,-6.628118515E0,7.001399040E0
1.628609378E0,-5.312066078E-1,-5.783452511E0,5.587240696E0
1.645276044E0,9.571290761E-2,-5.668596745E0,6.041877270E0
1.661942710E0,1.531406492E-1,-4.823930264E0,5.757131100E0
1.678609376E0,-1.328016520E0,-4.687539577E0,5.414957523E0
1.695276042E0,-1.591227055E0,-4.070191383E0,5.505885124E0
1.711942708E0,-2.529213428E0,-4.110869408E0,6.685546398E0
1.728609374E0,-2.529213428E0,-4.110869408E0,6.685546398E0
1.745276040E0,-3.474378586E0,-3.601198196E0,4.649254322E0
1.761942706E0,-3.936193228E0,-3.596412420E0,5.517848969E0
1.778609372E0,-5.206781864E0,-3.220739365E0,4.649254322E0
1.795276038E0,-5.206781864E0,-3.220739365E0,4.649254322E0
1.811942704E0,-6.218945980E0,-2.354537487E0,3.081955671E0
1.828609370E0,-6.439085960E0,-1.265803218E0,1.512263894E0
1.845276036E0,-6.575476646E0,-9.355936646E-1,1.270588875E0
1.861942702E0,-6.575476646E0,-9.355936646E-1,1.270588875E0
1.878609368E0,-8.494520187E0,-1.954936147E0,2.414358139E0
1.895276034E0,-1.079880905E1,-2.373680115E0,1.560120344E0
1.911942700E0,-1.144008541E1,-2.359323025E0,-1.674975827E-2
1.928609366E0,-1.112183952E1,-1.414158225E0,-1.818545163E-1
1.945276032E0,-1.162911797E1,-9.643075466E-1,5.431707501E-1
1.961942698E0,-1.363191032E1,-1.993221283E0,2.931207657E0
1.978609364E0,-1.385444355E1,-3.017349243E0,3.701696634E0
1.995276030E0,-1.384965706E1,-2.907279491E0,4.340580463E0
2.011942696E0,-1.335912895E1,-2.859423161E0,4.046263218E0
2.028609362E0,-1.349551964E1,-3.519842148E0,6.053841114E-1
2.045276028E0,-1.349551964E1,-3.519842148E0,6.053841114E-1
2.061942694E0,-1.349551964E1,-3.519842148E0,6.053841114E-1
2.078609360E0,-1.846062660E1,-6.269195080E-1,1.378265858E0
2.095276026E0,-1.929332924E1,9.978070259E-1,1.986042738E0
2.111942692E0,-1.929332924E1,9.978070259E-1,1.986042738E0
2.128609358E0,-1.734317780E1,6.867401004E-1,8.757730722E-1
2.145276024E0,-1.560120392E1,-3.397808075E-1,6.125625968E-1
2.161942690E0,-1.346919823E1,2.632105052E-1,1.548156261E0
2.178609356E0,-1.346919823E1,2.632105052E-1,1.548156261E0
2.195276022E0,-9.238688469E0,1.256231904E0,3.282952785E0
2.211942688E0,-1.013599682E1,9.954141974E-1,4.402793884E0
2.228609354E0,-8.300702095E0,9.379864931E-1,2.007578135E0
2.245276020E0,-1.199761295E1,-3.373879790E-1,-4.235295951E-1
2.261942686E0,-1.105005455E1,1.787438512E0,-1.284945726E0
2.278609352E0,-7.082755089E0,1.500299811E0,-1.581655741E0
2.295276018E0,-4.776073933E0,1.672582984E0,-2.500499725E0
2.311942684E0,-4.543970108E0,1.473978758E0,-3.127419233E0
2.328609350E0,-4.826323509E0,1.476371527E0,-2.888136864E0
2.345276016E0,-4.527220249E0,1.179661512E0,-4.024727821E0
2.361942682E0,-2.931207657E0,1.261017561E0,-1.454836130E0
2.378609348E0,-4.173082829E0,2.057827473E0,-2.557927370E0
2.395276014E0,-4.543970108E0,2.289931297E0,-2.981456995E0
2.411942680E0,-6.128018856E0,2.538784742E0,-2.275574446E0
2.428609346E0,-7.668996811E0,1.995614052E0,-1.220339537E0
2.445276012E0,-8.717052460E0,1.411765337E0,-2.974278450E0
2.461942678E0,-8.157132149E0,-3.613162339E-1,-2.986242771E0
2.478609344E0,-8.595019341E0,-1.698904037E-1,-9.355936646E-1
2.495276010E0,-1.015513897E1,1.062413216E0,9.738788009E-1
2.511942676E0,-1.015513897E1,1.062413216E0,9.738788009E-1
2.528609342E0,-1.703928947E1,1.229910851E0,3.656233072E0
2.545276008E0,-1.505085468E1,7.130611539E-1,4.046263218E0
2.561942674E0,-1.373719501E1,2.086541414E0,7.226324677E-1
2.578609340E0,-1.104287624E1,1.366301775E0,-6.412764788E-1
2.595276006E0,-1.000917721E1,1.428515077E0,3.589234054E-1
2.611942672E0,-8.350951195E0,2.273181438E0,2.354537487E0
2.628609338E0,-7.147361279E0,9.667003751E-1,3.187239647E0
2.645276004E0,-8.788837433E0,1.720439434E0,4.479363918E0
2.661942670E0,-9.918250084E0,9.355936646E-1,4.132404804E0
2.678609336E0,-1.030588722E1,2.782852650E0,1.797009826E0
2.695276002E0,-8.731410027E0,1.667797327E0,7.776673436E-1
2.711942668E0,-8.731410027E0,1.667797327E0,7.776673436E-1
2.728609334E0,-1.062652493E1,4.323830605E0,6.939185858E-1
2.745276000E0,-1.032742214E1,3.108276606E0,3.981656790E0
2.761942666E0,-9.789037704E0,6.132804394E0,2.696711063E0
2.778609332E0,-9.597611427E0,5.453242779E0,2.687139750E0
2.795275998E0,-1.113141060E1,4.656432629E0,4.728217602E0
2.811942664E0,-1.131565857E1,4.086941242E0,4.180261135E0
2.828609330E0,-1.295952702E1,5.871986866E0,2.280359983E0
2.845275996E0,-1.297149181E1,5.869594097E0,2.143969059E0
2.861942662E0,-1.286620712E1,4.529613495E0,3.763910055E0
2.878609328E0,-1.032263660E1,4.594219685E0,2.383251429E0
2.895275994E0,-1.056670475E1,3.476771355E0,-4.582255363E0
2.911942660E0,-1.014796066E1,2.368894339E0,-4.646861553E0
2.928609326E0,-1.126540947E1,7.561319470E-1,-3.436093330E0
2.945275992E0,-1.126540947E1,7.561319470E-1,-3.436093330E0
2.961942658E0,-5.192425251E0,-3.445664644E-1,2.100898266E0
2.978609324E0,-5.087141037E0,-1.794617027E-1,5.264210105E-1
2.995275990E0,-4.342973232E0,-8.374879360E-1,1.899901152E0
3.011942656E0,-4.342973232E0,-8.374879360E-1,1.899901152E0
3.028609322E0,-4.905286312E0,-1.770688742E-1,-1.574477315E0
3.045275988E0,-4.989035130E0,4.785645287E-3,-1.256231904E0
3.061942654E0,-4.285545349E0,4.402793646E-1,-2.029113531E0
3.078609320E0,-4.285545349E0,4.402793646E-1,-2.029113531E0
3.095275986E0,-7.860422611E0,3.483949661E0,3.457628727E0
3.111942652E0,-9.267401695E0,5.484349728E0,5.599205017E0
3.128609318E0,-5.960521221E0,1.294756317E1,1.866401732E-1
3.145275984E0,-5.960521221E0,1.294756317E1,1.866401732E-1
3.161942650E0,-6.745367050E0,1.071266651E1,5.718846321E0
3.178609316E0,-9.934999466E0,9.504291534E0,5.560919762E0
3.195275982E0,-1.469432354E1,5.467599869E0,4.962714195E0
3.211942648E0,-1.626401520E1,3.634697676E0,7.819744587E0
3.228609314E0,-1.407936859E1,5.761917114E0,4.297509670E0
3.245275980E0,-1.298824120E1,5.989234924E0,2.136790514E0
3.261942646E0,-7.611568928E0,6.699903488E0,4.249652863E0
3.278609312E0,-7.611568928E0,6.699903488E0,4.249652863E0
3.295275978E0,1.177268744E0,5.702096462E0,4.496113777E0
3.311942644E0,1.356730461E0,5.187639713E0,3.491128206E0
3.328609310E0,-5.096712112E-1,3.768695593E0,3.213560820E0
3.345275976E0,-5.295316696E0,2.751745939E0,4.127619267E0
3.361942642E0,-4.627718925E0,2.569891453E0,3.476771355E0
3.378609308E0,-1.576870084E0,1.004985452E0,6.843472719E-1
3.395275974E0,1.507478207E-1,8.997012973E-1,-9.762716293E-1
3.411942640E0,9.308080077E-1,9.571290612E-1,-1.942971945E0
3.428609306E0,1.746760488E0,1.904686809E0,-2.756531715E0
3.445275972E0,3.603590965E0,6.101697922E0,-5.271388054E0
3.461942638E0,2.031745720E1,2.778784943E1,-2.168136597E1
3.478609304E0,2.031745720E1,2.778784943E1,-2.168136597E1
3.495275970E0,8.271987915E0,2.945564651E1,3.253520966E1
3.511942636E0,-5.359922647E-1,1.042552853E1,1.856830359E0
3.528609302E0,-5.359922647E-1,1.042552853E1,1.856830359E0
3.545275968E0,3.816552162E0,5.871986866E0,-4.144368649E0
3.561942634E0,6.104090691E0,1.017906761E1,-2.029113531E0
3.578609300E0,5.587240696E0,1.113380337E1,5.998806477E0
3.595275966E0,3.184846878E0,8.738588333E0,2.945564747E0
3.611942632E0,2.184647083E0,8.568697929E0,-3.158525825E-1
3.628609298E0,1.741974831E0,8.860622406E0,-6.819544435E-1
3.645275964E0,1.201196909E0,9.588040352E0,7.896314859E-1
3.661942630E0,8.566305041E-1,9.934999466E0,2.124826431E0
3.678609296E0,1.402194023E0,9.836894035E0,1.146162033E0
3.695275962E0,1.490728498E0,9.710074425E0,9.355936646E-1
3.711942628E0,1.490728498E0,9.710074425E0,9.355936646E-1
3.728609294E0,1.552941918E0,9.619147301E0,9.475577474E-1
3.745275960E0,1.552941918E0,9.619147301E0,9.475577474E-1
3.761942626E0,2.438286304E0,9.090332985E0,6.604190469E-1
3.778609292E0,2.084148407E0,8.963513374E0,8.757730722E-1
3.795275958E0,2.143969059E0,9.444471359E0,9.595218897E-1
3.811942624E0,2.143969059E0,9.444471359E0,9.595218897E-1
3.828609290E0,1.923829436E0,9.662218094E0,6.269195080E-1
3.845275956E0,1.569691658E0,9.408578873E0,6.269195080E-1
3.861942622E0,1.502692580E0,9.815358162E0,3.302095234E-1
3.878609288E0,1.502692580E0,9.815358162E0,3.302095234E-1
3.895275954E0,9.212366939E-1,9.614361763E0,8.135596663E-2
3.911942620E0,6.149554253E-1,9.008976936E0,-1.316052526E-1
3.928609286E0,4.307080805E-1,8.922835350E0,-3.900300860E-1
3.945275952E0,1.148554832E-1,9.322437286E0,-8.853443712E-2
3.961942618E0,4.785645381E-2,9.492327690E0,-2.632104978E-2
3.978609284E0,1.076770201E-1,9.609575272E0,-6.269195080E-1
3.995275950E0,-1.387837082E-1,9.504291534E0,-1.021735311E0
4.011942616E0,-3.661018610E-1,9.375079155E0,-9.403793216E-1
4.028609282E0,-8.709874153E-1,9.142974854E0,4.019941986E-1
4.045275948E0,-7.441678643E-1,9.789037704E0,3.613162339E-1
4.061942614E0,-6.915257573E-1,1.052363396E1,-1.268195987E0
4.078609280E0,-6.269195080E-1,1.066002464E1,-1.579262972E0
4.095275946E0,-2.584248483E-1,9.719645500E0,-5.527420044E-1
4.111942612E0,-2.177468538E-1,9.147761345E0,-2.273181528E-1
4.128609278E0,-6.221338734E-2,9.544969559E0,-2.751746178E-1
4.145275944E0,-3.828516230E-2,1.010728264E1,-1.579262912E-1
4.161942610E0,3.397808075E-1,1.081316566E1,3.445664644E-1
4.178609276E0,-8.398807645E-1,1.035135078E1,-2.871387303E-1
4.195275942E0,-8.398807645E-1,1.035135078E1,-2.871387303E-1
4.211942608E0,-1.306481123E0,9.619147301E0,-2.656033039E-1
4.228609274E0,-7.872386575E-1,9.643074989E0,-4.378865361E-1
4.245275940E0,-5.407779217E-1,9.791430473E0,-5.766702294E-1
4.261942606E0,-3.541377485E-1,1.009053326E1,-5.623133183E-1
4.278609272E0,-5.742774159E-2,1.019103146E1,-6.005984545E-1
4.295275938E0,1.531406492E-1,1.009531879E1,-8.183453679E-1
4.311942604E0,1.531406492E-1,1.009531879E1,-8.183453679E-1
4.328609270E0,5.024927482E-2,9.410971642E0,-7.872386575E-1
4.345275936E0,3.134597540E-1,9.451649666E0,-6.053841114E-1
4.361942602E0,6.987041831E-1,9.056833267E0,1.794617027E-1
4.378609268E0,4.259224236E-1,8.403593063E0,-4.043870270E-1
4.395275934E0,4.043870270E-1,8.573483467E0,-1.385444283E0
4.411942600E0,3.637090325E-1,8.944371223E0,-1.452443361E0
4.428609266E0,7.178468257E-2,9.736394882E0,-6.723831892E-1
4.445275932E0,-1.244267747E-1,9.958928108E0,-4.929214716E-1
4.461942598E0,-1.244267747E-1,9.958928108E0,-4.929214716E-1
4.478609264E0,-4.019941986E-1,9.327222824E0,-8.566305041E-1
4.495275930E0,-1.866401732E-1,9.961320877E0,-6.987041831E-1
4.511942596E0,-5.982056633E-2,1.082512951E1,-5.072783828E-1
4.528609262E0,-5.982056633E-2,1.082512951E1,-5.072783828E-1
4.545275928E0,-5.264209956E-2,1.039442158E1,2.440679073E-1
4.561942594E0,1.531406492E-1,1.034177971E1,1.086341500E0
4.578609260E0,-8.111668825E-1,1.069591713E1,1.162911773E0
4.595275926E0,-5.335994363E-1,1.113858986E1,1.691725612E0
4.611942592E0,-1.596012712E0,1.144965649E1,2.706282377E0
4.628609258E0,-2.378465652E0,1.145683479E1,2.342573404E0
4.645275924E0,-2.328216314E0,1.286142159E1,1.639083505E0
4.661942590E0,-2.210968018E0,1.356730461E1,2.368894339E0
4.678609256E0,-1.785045743E0,1.333280754E1,3.376272678E0
4.695275922E0,-2.967100143E-1,1.138744259E1,2.591426849E0
4.711942588E0,-2.967100143E-1,1.138744259E1,2.591426849E0
4.728609254E0,3.565305769E-1,1.137787151E1,-8.973084688E-1
4.745275920E0,2.632105052E-1,1.336152172E1,-1.552941918E0
4.761942586E0,1.308874011E0,1.643390656E1,-1.579262912E-1
4.778609252E0,1.308874011E0,1.643390656E1,-1.579262912E-1
4.795275918E0,2.883351326E0,1.665165329E1,-2.919243574E-1
4.811942584E0,-1.435693540E-2,1.352423382E1,1.055234790E0
4.828609250E0,-2.390429735E0,1.105244732E1,3.065205812E0
4.845275916E0,-1.366301775E0,8.793622971E0,1.220339537E-1
4.861942582E0,-5.742774159E-2,7.721638680E0,-1.653440475E0
4.878609248E0,1.591227055E0,5.692524910E0,-3.019742250E0
4.895275914E0,9.475577474E-1,4.292723656E0,-3.534198999E0
4.911942580E0,-6.723831892E-1,4.453042984E0,-1.100698411E-1
4.928609246E0,-1.129412293E0,5.142175674E0,1.268195987E0
4.945275912E0,-2.055434704E0,5.510670662E0,2.957528830E0
4.961942578E0,-1.280160069E0,3.847658873E0,2.179861546E0
4.978609244E0,1.576870084E0,3.708875179E0,9.092726111E-1
4.995275910E0,2.502892494E0,3.522234917E0,2.608176768E-1
5.011942576E0,3.649054527E0,2.560320139E0,9.738788009E-1
5.028609242E0,3.649054527E0,2.560320139E0,9.738788009E-1
5.045275908E0,-2.632104978E-2,3.433700562E0,3.744767427E0
5.061942574E0,-3.541377485E-1,3.797409534E0,4.302295208E0
5.078609240E0,-1.890329838E0,5.620740414E0,5.302495003E0
5.095275906E0,-4.850251675E0,9.824930191E0,6.522834301E0
5.111942572E0,-8.417949677E0,1.851087570E1,1.116730309E1
5.128609238E0,-1.071984577E1,2.472264290E1,1.094716358E1
5.145275904E0,-1.966900253E1,2.125304985E1,1.122233772E1
5.161942570E0,-6.908079147E0,6.987041950E0,6.850651264E0
5.178609236E0,-2.816352367E0,4.012763500E0,6.860222340E0
5.195275902E0,-8.039883971E-1,2.196611166E0,4.019941807E0
5.211942568E0,3.326023519E-1,6.108876228E0,2.816352367E0
5.228609234E0,-9.020941257E-1,1.536909962E1,3.038884699E-1
5.245275900E0,0.000000000E0,1.742453384E1,-3.026920557E0
5.261942566E0,3.278167009E0,1.536670685E1,-6.415157318E0
5.278609232E0,3.122633457E0,1.004985523E1,-2.964707375E0
5.295275898E0,3.122633457E0,1.004985523E1,-2.964707375E0
5.311942564E0,3.780659735E-1,6.924828529E0,-8.781659007E-1
5.328609230E0,-6.460621357E-1,6.975078106E0,-1.339980721E0
5.345275896E0,-1.158126116E0,7.475177765E0,-2.218146563E0
5.361942562E0,-3.373879790E-1,9.351150513E0,-2.581855536E0
5.378609228E0,3.684946895E-1,1.053799057E1,-2.194218397E0
5.395275894E0,1.076770186E0,1.129890823E1,6.460621357E-1
5.411942560E0,-5.072783828E-1,9.664610863E0,6.388836384E0
5.428609226E0,-5.072783828E-1,9.664610863E0,6.388836384E0
5.445275892E0,-2.361716032E0,8.226524353E0,-4.027120590E0
5.461942558E0,-3.395415306E0,8.075776100E0,1.923829436E0
5.478609224E0,-1.249053478E0,9.092725754E0,8.183453679E-1
5.495275890E0,-1.249053478E0,9.092725754E0,8.183453679E-1
5.511942556E0,-7.609176040E-1,9.174081802E0,2.222932339E0
5.528609222E0,-4.594219327E-1,9.578469276E0,-7.944171429E-1
5.545275888E0,4.785645287E-3,9.061619759E0,5.527420044E-1
5.561942554E0,4.785645287E-3,9.061619759E0,5.527420044E-1
5.578609220E0,-1.172483116E-1,8.956335068E0,-4.785645381E-2
5.595275886E0,5.120640397E-1,9.413364410E0,-1.806581140E0
5.611942552E0,7.298108935E-1,8.513663292E0,-5.527420044E-1
5.628609218E0,7.298108935E-1,8.513663292E0,-5.527420044E-1
5.645275884E0,2.313859463E0,8.695517540E0,2.297109663E-1
5.661942550E0,-8.135596663E-2,1.018146038E1,2.017149448E0
5.678609216E0,-1.325623751E0,1.111705399E1,1.165304661E0
5.695275882E0,-1.146162033E0,1.112662506E1,1.612762451E0
5.711942548E0,-1.071984529E0,1.094477081E1,1.246660590E0
5.728609214E0,-1.328016520E0,1.177508068E1,8.039883971E-1
5.745275880E0,-1.328016520E0,1.177508068E1,8.039883971E-1
5.761942546E0,-3.402593851E0,1.203829098E1,1.986042738E0
5.778609212E0,-3.649054527E0,1.154297638E1,2.519642353E0
5.795275878E0,-4.122833252E0,1.189711380E1,-3.146561861E0
5.811942544E0,-4.122833252E0,1.189711380E1,-3.146561861E0
5.828609210E0,-4.890929699E0,1.559163189E1,9.403793216E-1
5.845275876E0,-1.507478207E-1,1.630469322E1,1.753939033E0
5.861942542E0,1.339980721E0,1.320598793E1,-1.060020447E0
5.878609208E0,1.339980721E0,1.320598793E1,-1.060020447E0
5.895275874E0,1.634297848E0,1.403151226E1,-2.277967215E0
5.911942540E0,2.371287346E0,2.122912216E1,1.390229940E0
5.928609206E0,2.371287346E0,2.122912216E1,1.390229940E0
5.945275872E0,2.371287346E0,2.122912216E1,1.390229940E0
5.961942538E0,9.260223508E-1,1.210289669E1,1.287338614E0
5.978609204E0,5.096712112E-1,8.922835350E0,2.002792597E0
5.995275870E0,5.096712112E-1,8.922835350E0,2.002792597E0
6.011942536E0,2.904886723E0,5.412564754E0,-3.515056372E0
6.028609202E0,3.694518089E0,6.309873104E0,-5.450850010E0
6.045275868E0,3.041277647E0,4.768895626E0,-6.580262184E0
6.061942534E0,1.129412293E0,2.612962246E0,-1.830509305E0
6.078609200E0,4.139583111E-1,2.565105915E0,1.902294040E0
6.095275866E0,3.158525825E-1,2.577069998E0,1.988435626E0
6.111942532E0,1.378265858E0,1.942971945E0,2.639283419E0
6.128609198E0,3.553341627E0,3.136990547E0,-9.571290612E-1
6.145275864E0,3.553341627E0,3.136990547E0,-9.571290612E-1
6.161942530E0,3.617947817E0,3.120240688E0,-1.591227055E0
6.178609196E0,3.617947817E0,3.120240688E0,-1.591227055E0
6.195275862E0,9.571290612E-1,2.620140791E0,1.954936147E0
6.211942528E0,9.571290612E-1,2.620140791E0,1.954936147E0
6.228609194E0,1.076770186E0,7.003791809E0,4.945964336E0
6.245275860E0,1.076770186E0,7.003791809E0,4.945964336E0
6.261942526E0,-3.538984776E0,1.594577026E1,1.188036442E1
6.278609192E0,-3.538984776E0,1.594577026E1,1.188036442E1
6.295275858E0,-7.192824841E0,1.806102562E1,-3.943371773E0
6.311942524E0,-1.201436234E1,1.615155220E1,5.694918036E-1
6.328609190E0,-1.010728264E1,4.113262177E0,5.673382282E0
6.345275856E0,-1.010728264E1,4.113262177E0,5.673382282E0
6.361942522E0,-4.599005222E0,2.105683982E-1,8.085348129E0
6.378609188E0,-3.830909014E0,8.281558990E0,-1.548156261E0
6.395275854E0,-3.830909014E0,8.281558990E0,-1.548156261E0
6.411942520E0,4.151547432E0,2.659861565E1,-1.022692394E1
6.428609186E0,6.774080753E0,2.051606178E1,-4.914857864E0
6.445275852E0,6.766902447E0,3.902693748E0,2.159043884E1
6.461942518E0,6.766902447E0,3.902693748E0,2.159043884E1
6.478609184E0,2.617748022E0,8.444271088E0,-5.295316696E0
6.495275850E0,9.020941257E-1,6.525227547E0,-5.867201328E0
6.511942516E0,1.004985496E-1,7.300501823E0,-4.778466702E0
6.528609182E0,1.004985496E-1,7.300501823E0,-4.778466702E0
6.545275848E0,-7.896314561E-2,1.063370419E1,-1.155733347E0
6.561942514E0,-7.896314561E-2,1.063370419E1,-1.155733347E0
6.578609180E0,-1.292124271E0,6.812366009E0,3.239881754E0
6.595275846E0,-1.292124271E0,6.812366009E0,3.239881754E0
6.611942512E0,-1.816152334E0,6.199803352E0,1.016949654E0
6.628609178E0,-1.299302697E0,8.743373871E0,5.599204898E-1
6.645275844E0,-6.819544435E-1,9.748359680E0,1.246660590E0
6.661942510E0,-6.819544435E-1,9.748359680E0,1.246660590E0
6.678609176E0,1.344766378E0,9.848857880E0,-7.872386575E-1
6.695275842E0,7.513462901E-1,9.265008926E0,2.622533560E0
6.711942508E0,7.513462901E-1,9.265008926E0,2.622533560E0
6.728609174E0,-1.816152334E0,8.073383331E0,-2.105683982E-1
6.745275840E0,-1.220339537E0,8.020741463E0,3.974478483E0
6.761942506E0,1.648654819E0,7.590033531E0,-1.411765367E-1
6.778609172E0,1.914258152E-1,1.072223854E1,2.392822653E-1
6.795275838E0,-1.895115495E0,9.748359680E0,9.954141974E-1
6.811942504E0,-1.497906923E0,1.028195858E1,-4.594219327E-1
6.828609170E0,-1.531406522E0,1.106680489E1,1.871187329E0
6.845275836E0,-2.340180635E0,9.442078590E0,7.298108935E-1
6.861942502E0,-2.931207657E0,9.346364975E0,-2.172683001E0
6.878609168E0,-3.390629768E0,9.616754532E0,-1.852044702E0
6.895275834E0,-2.878565550E0,1.211964703E1,4.472185612E0
6.911942500E0,-2.656033039E-1,1.382572937E1,6.422336102E0
6.928609166E0,-1.179661512E0,1.237807178E1,7.386643410E0
6.945275832E0,-8.087740541E-1,1.288295746E1,5.072783828E-1
6.961942498E0,-2.514856577E0,1.406740475E1,1.603191197E-1
6.978609164E0,-2.847458839E0,1.248814106E1,2.151147604E0
6.995275830E0,-1.244267821E0,1.412004662E1,2.691925526E0
7.011942496E0,2.428714991E0,1.714936066E1,4.780859470E0
7.028609162E0,1.828116536E0,1.746282005E1,-5.335994363E-1
7.045275828E0,2.151147604E0,2.203550339E1,9.140582681E-1
7.061942494E0,2.598605394E0,2.628994179E1,6.271588326E0
7.078609160E0,3.266202927E0,2.671347237E1,3.110669374E0
7.095275826E0,8.925228715E-1,1.701296806E1,3.445664644E-1
7.111942492E0,-3.498306751E0,1.090887833E1,-1.799402595E0
7.128609158E0,-3.677768469E0,8.257631302E0,2.529213428E0
7.145275824E0,-1.588834286E0,5.367101192E0,5.151747227E0
7.161942490E0,1.576870084E0,4.211368084E0,4.761717021E-1
7.178609156E0,2.177468538E-1,3.263810158E0,-3.653840065E0
7.195275822E0,-8.901300430E-1,4.091726780E0,1.725225091E0
7.211942488E0,1.371087432E0,4.874179840E0,3.842873096E0
7.228609154E0,3.486342669E0,4.230510235E0,3.077169895E0
7.245275820E0,1.816152334E0,4.374079704E0,1.588834286E0
7.261942486E0,-7.250252366E-1,4.084548473E0,1.074377418E0
7.278609152E0,-3.158525944E0,4.584648132E0,1.004985496E-1
7.295275818E0,-3.158525944E0,4.584648132E0,1.004985496E-1
7.311942484E0,-2.400001049E0,6.005984545E-1,5.297709465E0
7.328609150E0,-1.914258122E0,-1.426122308E0,7.018148899E0
7.345275816E0,-2.723032236E0,-2.818745136E0,6.008377552E0
7.361942482E0,-4.096512318E0,1.854437590E0,3.129812002E0
7.378609148E0,-4.864608288E0,1.045663476E0,3.402593851E0
7.395275814E0,-5.132604599E0,9.810572863E-1,4.170690060E0
7.411942480E0,-7.149754047E0,2.309073925E0,6.644868374E0
7.428609146E0,-7.149754047E0,2.309073925E0,6.644868374E0
7.445275812E0,-1.356012630E1,6.221338734E-2,1.274656582E1
7.461942478E0,-1.445025635E1,7.369893789E-1,1.386880016E1
7.478609144E0,-1.445025635E1,7.369893789E-1,1.386880016E1
7.495275810E0,-9.970891953E0,2.009013939E1,1.162433243E1
7.511942476E0,-9.970891953E0,2.009013939E1,1.162433243E1
7.528609142E0,9.750752449E0,1.120558834E1,5.149354458E0
7.545275808E0,2.445464849E0,3.570091486E0,-2.498106956E0
7.561942474E0,2.596212626E0,4.500899315E0,1.538584948E0
7.578609140E0,2.596212626E0,4.500899315E0,1.538584948E0
7.595275806E0,3.165704250E0,1.267717457E1,3.845266104E0
7.611942472E0,3.069991350E0,2.268156624E1,2.536391914E-1
7.628609138E0,-5.599204898E-1,1.870230103E1,-4.591826439E0
7.645275804E0,-3.335594654E0,1.384008598E1,-2.117648125E0
7.661942470E0,-3.299702406E0,8.994620323E0,4.402793646E-1
7.678609136E0,-3.122633457E0,8.178668022E0,-1.806581140E0
7.695275802E0,-3.122633457E0,8.178668022E0,-1.806581140E0
7.711942468E0,-1.325623751E0,9.420542717E0,-2.263610125E0
7.728609134E0,-9.930213690E-1,9.829715729E0,-2.072184324E0
7.745275800E0,-1.844866276E0,9.406186104E0,-1.347159147E0
7.761942466E0,-4.819144726E0,1.059541893E1,-8.853443712E-2
7.778609132E0,-6.989434719E0,9.875179291E0,6.340980053E0
7.795275798E0,-6.989434719E0,9.875179291E0,6.340980053E0
7.811942464E0,-6.989434719E0,9.875179291E0,6.340980053E0
7.828609130E0,-6.989434719E0,9.875179291E0,6.340980053E0
7.845275796E0,-6.989434719E0,9.875179291E0,6.340980053E0
7.861942462E0,-6.989434719E0,9.875179291E0,6.340980053E0
7.878609128E0,7.609176040E-1,7.412964344E0,-6.939185858E-1
7.895275794E0,7.609176040E-1,7.412964344E0,-6.939185858E-1
7.911942460E0,-8.327022791E-1,9.547362328E0,-7.130611539E-1
7.928609126E0,-5.383850932E-1,1.152861977E1,-5.455635786E-1
7.945275792E0,-8.231309652E-1,1.194018459E1,-1.627119333E-1
7.961942458E0,-8.231309652E-1,1.194018459E1,-1.627119333E-1
7.978609124E0,4.211367965E-1,1.283031464E1,3.254238665E-1
7.978609124E0,4.211367965E-1,1.283031464E1,3.254238665E-1
8.011942456E0,4.211367965E-1,1.283031464E1,3.254238665E-1
8.028609122E0,3.299702406E0,1.551506233E1,1.392622828E0
8.045275788E0,3.763910055E0,1.617548180E1,1.430907965E0
8.061942454E0,4.699503899E0,1.618026733E1,3.282952785E0
8.078609120E0,5.271388054E0,1.364387512E1,7.180860519E0
8.095275786E0,5.271388054E0,1.364387512E1,7.180860519E0
8.111942452E0,2.177468538E-1,1.216989613E1,6.161518097E0
8.128609118E0,2.177468538E-1,1.216989613E1,6.161518097E0
8.145275784E0,-3.706482172E0,1.164586735E1,-1.861616015E0
8.161942450E0,-3.706482172E0,1.164586735E1,-1.861616015E0
8.178609116E0,2.842673302E0,1.373240948E1,2.191825628E0
8.195275782E0,6.451049805E0,1.100219822E1,2.050648928E0
8.211942448E0,6.144768715E0,9.631111145E0,-1.880758643E0
8.228609114E0,3.627519131E0,1.078445148E1,-4.886143684E0
8.245275780E0,-1.103091240E0,1.073420238E1,3.778266907E0
8.261942446E0,-3.211168051E0,8.291130066E0,-9.571290612E-1
8.278609112E0,-2.230110645E0,6.898507595E0,6.795616150E-1
8.295275778E0,-7.944171429E-1,6.029912949E0,7.704889178E-1
8.311942444E0,-4.546363056E-1,6.257231236E0,-1.021735311E0
8.328609110E0,-1.045663476E0,5.065605640E0,7.585247755E-1
8.345275776E0,-1.045663476E0,5.065605640E0,7.585247755E-1
8.361942442E0,-2.081755698E-1,2.366501570E0,1.962114573E0
8.378609108E0,-6.388836503E-1,3.278166950E-1,1.562513232E0
8.395275774E0,-2.036292076E0,-7.609176040E-1,9.810572863E-1
8.411942440E0,-2.036292076E0,-7.609176040E-1,9.810572863E-1
8.428609106E0,-2.957528830E0,-8.374879360E-1,1.751546144E0
8.445275772E0,-3.857230186E0,-1.052841991E-1,8.518448472E-1
8.461942438E0,-4.654039860E0,3.716053486E0,3.031706333E0
8.478609104E0,-4.654039860E0,3.716053486E0,3.031706333E0
8.495275770E0,-1.890329868E-1,8.525627136E0,-7.489534616E-1
8.511942436E0,2.854637384E0,1.533559990E1,2.266003132E0
8.528609102E0,2.854637384E0,1.533559990E1,2.266003132E0
8.545275768E0,8.662018180E-1,3.514577866E1,2.348076820E1
8.561942434E0,-5.087141037E0,2.685464859E1,4.082155228E0
8.578609100E0,-4.460221291E0,9.784252167E0,5.448457241E0
8.595275766E0,-4.460221291E0,9.784252167E0,5.448457241E0
8.611942432E0,1.966900229E0,1.349551916E0,-4.687539577E0
8.628609098E0,3.524627686E0,7.714460373E0,-3.708875179E0
8.645275764E0,5.716453075E0,1.610608864E1,-1.962114573E0
8.661942430E0,1.093519926E0,1.539063549E1,1.914258152E-1
8.678609096E0,-2.227717876E0,1.122473145E1,1.737189293E0
8.695275762E0,-2.194218397E0,9.564111710E0,1.825723648E0
8.711942428E0,-2.194218397E0,9.564111710E0,1.825723648E0
8.728609094E0,-1.825723648E0,7.575676441E0,-1.818545222E0
8.745275760E0,-1.825723648E0,7.575676441E0,-1.818545222E0
8.761942426E0,-2.294716835E0,6.939185619E0,-2.347358942E0
8.778609092E0,1.028913707E-1,8.781659126E0,2.773281336E0
8.795275758E0,-2.234896421E0,9.497113228E0,-1.529013634E0
8.811942424E0,-2.234896421E0,9.497113228E0,-1.529013634E0
8.828609090E0,-1.538584948E0,9.343972206E0,2.136790514E0
8.845275756E0,4.067798331E-2,9.303294182E0,2.847459018E-1
8.861942422E0,4.067798331E-2,9.303294182E0,2.847459018E-1
8.878609088E0,1.627119422E0,1.026999474E1,9.690931439E-1
8.895275754E0,-9.810572863E-2,1.259342575E1,5.192425251E-1
8.911942420E0,-8.805587292E-1,1.471585941E1,1.794616938E0
8.928609086E0,-8.805587292E-1,1.471585941E1,1.794616938E0
8.945275752E0,-9.571290612E-1,1.445982742E1,4.905286312E0
8.961942418E0,-5.431707501E-1,1.540738487E1,3.917050600E0
8.978609084E0,-1.397408366E0,1.443829155E1,5.192425251E0
8.995275750E0,-1.397408366E0,1.443829155E1,5.192425251E0
9.011942416E0,3.349951744E0,1.421336651E1,8.530412674E0
9.028609082E0,2.677568436E0,1.243789196E1,7.250252366E-1
9.045275748E0,9.451649189E-1,1.357448292E1,-3.653840065E0
9.061942414E0,1.277767301E0,1.468235970E1,-3.857230186E0
9.078609080E0,2.304288149E0,1.385444355E1,-4.118047714E0
9.095275746E0,5.106283665E0,1.266281700E1,-6.300302029E0
9.111942412E0,5.106283665E0,1.266281700E1,-6.300302029E0
9.128609078E0,-6.508477330E-1,1.103809071E1,9.877572060E0
9.145275744E0,-4.474578202E-1,9.518648148E0,-1.105484009E0
9.161942410E0,7.369893789E-1,9.073583603E0,-3.967299938E0
9.178609076E0,9.068797827E-1,7.058826923E0,5.623133183E-1
9.195275742E0,9.068797827E-1,7.058826923E0,5.623133183E-1
9.211942408E0,1.715653777E0,3.828516245E0,1.021735311E0
9.228609074E0,-4.019941986E-1,4.113262177E0,6.005984545E-1
9.245275740E0,-2.560320199E-1,3.225524902E0,7.010970116E-1
9.261942406E0,-2.751745939E0,2.182254314E0,2.969492912E0
9.278609072E0,-3.103491068E0,1.782652855E0,3.117847919E0
9.295275738E0,-3.074777126E0,2.991028428E-1,1.129412293E0
9.311942404E0,-2.792423964E0,6.340979934E-1,-1.866401672E0
9.328609070E0,-2.703889608E0,-8.183453679E-1,1.730010748E0
9.345275736E0,-2.931207657E0,-1.763510346E0,4.314259052E0
9.361942402E0,-2.931207657E0,-1.763510346E0,4.314259052E0
9.378609068E0,1.703689694E0,6.020341873E0,-9.451649189E-1
9.395275734E0,1.703689694E0,6.020341873E0,-9.451649189E-1
9.411942400E0,4.831109047E0,2.306681061E1,-1.142094231E1
9.428609066E0,7.601997375E0,3.121437073E1,-7.341179848E0
9.445275732E0,1.342373490E0,2.115494537E1,3.393022537E0
9.461942398E0,-1.531406522E0,1.378505135E1,-4.785645381E-2
9.478609064E0,-3.534198999E0,6.690331936E0,3.132204771E0
9.495275730E0,-1.646261930E0,4.113262177E0,3.038884699E-1
9.511942396E0,4.900500774E0,9.379864693E0,-3.495913982E0
9.528609062E0,4.465006828E0,1.057627583E1,-3.579662561E0
9.545275728E0,-1.100698411E-1,1.063848972E1,-1.797009826E0
9.561942394E0,-3.093919754E0,1.033938694E1,2.057827413E-1
9.578609060E0,-3.266202927E0,1.003071213E1,-8.877372146E-1
9.595275726E0,-2.979064226E0,9.427721024E0,-5.096712112E-1
9.611942392E0,-2.689532757E0,7.948956966E0,1.244267747E-1
9.628609058E0,-1.253839016E0,7.637889862E0,-5.910272002E-1
9.645275724E0,-7.393822074E-1,8.109275818E0,-5.216353536E-1
9.661942390E0,-3.326023519E-1,8.228917122E0,-5.718846321E-1
9.678609056E0,-3.493520916E-1,7.886743546E0,6.340979934E-1
9.695275722E0,-5.264209956E-2,8.219346046E0,9.595218897E-1
9.711942388E0,2.117648125E0,9.353543282E0,9.379864931E-1
9.728609054E0,3.158525944E0,1.043509960E1,-5.862415433E-1
9.745275720E0,2.309073925E0,1.070548820E1,-1.390229940E0
9.761942386E0,-7.896314561E-2,1.381855106E1,-1.763510346E0
9.778609052E0,-6.532405615E-1,1.566580963E1,1.172483087E0
9.795275718E0,-8.853443861E-1,1.531167221E1,2.289931297E0
9.811942384E0,-9.332008660E-2,1.423250866E1,1.411765337E0
9.828609050E0,2.682354212E0,1.322513103E1,2.122433662E0
9.845275716E0,5.008177757E0,1.199043465E1,5.302495003E0
9.861942382E0,5.862415314E0,1.357209015E1,7.353144169E0
9.878609048E0,6.884150982E0,1.596491241E1,7.192824841E0
9.895275714E0,4.474578381E0,1.438564968E1,5.091926575E0
9.911942380E0,1.600798368E0,1.113619614E1,-1.598405480E0
9.928609046E0,6.675975323E-1,1.044467068E1,-3.598805189E0
9.945275712E0,-2.081755638E0,1.133719349E1,-6.819544315E0
9.961942378E0,-1.761117458E0,1.291884899E1,1.658226132E0
9.978609044E0,-1.761117458E0,1.291884899E1,1.658226132E0
9.995275710E0,2.514856577E0,1.264367485E1,-2.122433662E0
1.001194238E1,-2.227717876E0,1.192582798E1,4.823930264E0
1.002860904E1,-8.374879509E-2,1.036810017E1,-2.012363911E0
1.004527571E1,9.451649189E-1,9.595218658E0,-4.725824833E0
1.006194237E1,3.192025423E0,6.731009960E0,-2.031506538E0
1.007860904E1,3.192025423E0,6.731009960E0,-2.031506538E0
1.009527571E1,3.192025423E0,6.731009960E0,-2.031506538E0
1.011194237E1,-8.135596663E-2,3.390629768E0,-3.326023519E-1
1.012860904E1,-1.722832322E0,2.505285263E0,1.093519926E0
1.014527570E1,-1.371087432E0,8.733802438E-1,1.586441398E0
1.016194237E1,-2.624926329E0,1.466800332E0,2.502892494E0
1.017860904E1,-2.837887764E0,1.904686809E0,2.021935225E0
1.019527570E1,-3.783052683E0,2.517249346E0,1.246660590E0
1.021194237E1,-4.419543266E0,3.144168854E0,-2.608176708E0
1.022860903E1,-1.902294040E0,4.261617184E0,-4.242474556E0
1.024527570E1,-5.814558864E-1,4.240081787E0,-1.091127157E0
1.026194237E1,1.928615093E0,5.410171986E0,8.930013657E0
1.027860903E1,4.256831646E0,1.336391449E1,-8.700303078E0
1.029527570E1,8.238488197E0,3.334159088E1,-3.589233875E0
1.031194236E1,6.386443615E0,3.949592972E1,1.520878029E1
1.032860903E1,-4.034298897E0,1.587159252E1,3.739981890E0
1.034527570E1,-3.962514400E0,4.259224415E0,-1.158126116E0
1.036194236E1,4.378865361E-1,2.148754835E0,-4.912465096E0
1.037860903E1,2.502892494E0,6.262016773E0,-3.562912941E0
1.039527569E1,4.709074974E0,1.226560879E1,1.071984529E0
1.041194236E1,2.359323025E0,1.288295746E1,-5.359922647E-1
1.042860903E1,-9.260223508E-1,1.049252701E1,1.009771109E0
1.044527569E1,-1.753939033E0,9.437292099E0,1.136590719E0
1.046194236E1,-1.890329838E0,8.365307808E0,-1.356730461E0
1.047860902E1,-1.890329838E0,8.365307808E0,-1.356730461E0
1.049527569E1,-2.306680918E0,7.247859955E0,3.582055569E0
1.051194236E1,-1.000199914E0,8.075776100E0,1.435693651E-1
1.052860902E1,-2.009970993E-1,8.958727837E0,-1.117448211E0
1.054527569E1,-2.009970993E-1,8.958727837E0,-1.117448211E0
1.056194235E1,-1.526620865E0,9.303294182E0,1.172483116E-1
1.057860902E1,-8.925228715E-1,9.580862045E0,6.221338734E-2
1.059527569E1,4.474578202E-1,1.015513897E1,1.074377418E0
1.061194235E1,1.627119333E-1,1.054516983E1,-3.445664644E-1
1.062860902E1,1.627119333E-1,1.054516983E1,-3.445664644E-1
1.064527568E1,-1.239482164E0,1.196172047E1,-5.623133183E-1
1.066194235E1,8.374879360E-1,1.373958778E1,3.007778168E0
1.067860902E1,3.696911097E0,1.387837124E1,4.046263218E0
1.069527568E1,4.359723091E0,1.262453270E1,4.876572609E0
1.071194235E1,3.498306751E0,1.009771156E1,7.070790768E0
1.072860901E1,3.682554007E0,1.413201046E1,4.572684288E0
1.074527568E1,2.242074728E0,1.611087418E1,7.135396957E0
1.076194235E1,2.148754835E0,1.585723591E1,5.769095421E0
1.077860901E1,2.577069998E0,1.490967751E1,6.269195080E-1
1.079527568E1,1.701296926E0,1.316530991E1,-4.335794449E0
1.081194234E1,1.021735311E0,1.298106289E1,-4.579862595E0
1.082860901E1,2.134397745E0,1.334716511E1,-3.900300980E0
1.084527568E1,3.991228104E0,1.290927792E1,-2.347358942E0
1.086194234E1,1.933400750E0,1.602234077E1,6.668796539E0
1.087860901E1,1.933400750E0,1.602234077E1,6.668796539E0
1.089527567E1,3.302095234E-1,1.098784161E1,1.292124271E0
1.091194234E1,3.103491068E0,9.236295700E0,-5.077569485E0
1.092860901E1,5.163711071E0,6.027520180E0,-1.794616938E0
1.094527567E1,5.163711071E0,6.027520180E0,-1.794616938E0
1.096194234E1,-1.744367719E0,-7.058826685E-1,1.808973908E0
1.097860900E1,-2.993421078E0,1.371087432E0,-4.354937077E-1
1.099527567E1,-2.993421078E0,1.371087432E0,-4.354937077E-1
1.101194234E1,-2.993421078E0,1.371087432E0,-4.354937077E-1
1.102860900E1,-2.639283419E0,1.885544300E0,2.172683001E0
1.104527567E1,-2.117648125E0,2.600998163E0,1.050449133E0
1.106194233E1,-2.117648125E0,2.600998163E0,1.050449133E0
1.107860900E1,-2.117648125E0,2.600998163E0,1.050449133E0
1.109527567E1,-4.670789719E0,3.168097258E0,-6.795616150E-1
1.111194233E1,-2.701496840E0,3.914657831E0,-1.988435626E0
1.112860900E1,1.093519926E0,5.111069202E0,5.515456200E0
1.114527566E1,4.520041943E0,9.757930756E0,-2.251646042E0
1.116194233E1,6.183053493E0,1.672104454E1,-9.796216011E0
1.117860900E1,1.113619614E1,3.227678299E1,-5.938985825E0
1.119527566E1,5.096712112E-1,2.332523537E1,4.230510235E0
1.121194233E1,5.096712112E-1,2.332523537E1,4.230510235E0
1.122860899E1,-3.857230186E0,8.250452042E0,-2.488535494E-1
1.124527566E1,-4.089334011E0,5.000999451E0,-3.062812984E-1
1.126194233E1,1.866401732E-1,7.209574699E0,-2.699103832E0
1.127860899E1,3.330809116E0,9.901499748E0,-1.454836130E0
1.129527566E1,1.715653777E0,1.054756260E1,-8.087740541E-1
1.131194232E1,-9.619147182E-1,1.065045357E1,8.518448472E-1
1.132860899E1,-2.435893536E0,1.008335495E1,3.565305769E-1
1.134527566E1,-2.301895380E0,9.595218658E0,1.890329868E-1
1.136194232E1,-2.301895380E0,9.595218658E0,1.890329868E-1
1.137860899E1,-1.569691658E0,6.218945980E0,1.722832322E0
1.139527565E1,-1.569691658E0,6.218945980E0,1.722832322E0
1.141194232E1,-6.604190469E-1,8.209774017E0,-1.294517040E0
1.142860899E1,9.786644578E-1,8.949156761E0,-9.236295223E-1
1.144527565E1,1.698904037E-1,8.178668022E0,-1.579262912E-1
1.146194232E1,1.698904037E-1,8.178668022E0,-1.579262912E-1
1.147860898E1,1.722832322E-1,7.886743546E0,5.623133183E-1
1.149527565E1,2.524427891E0,9.573683739E0,7.345965505E-1
1.151194232E1,1.682154298E0,1.098066330E1,-7.657032609E-1
1.152860898E1,1.682154298E0,1.098066330E1,-7.657032609E-1
1.154527565E1,2.033899277E-1,1.327298737E1,-1.366301775E0
1.156194231E1,-2.871387079E-2,1.532842159E1,1.158126116E0
1.157860898E1,-2.871387079E-2,1.532842159E1,1.158126116E0
1.159527565E1,1.584048629E0,1.418943787E1,2.938386202E0
1.161194231E1,2.072184324E0,1.452921867E1,3.316452265E0
1.162860898E1,2.742174864E0,1.500299835E1,4.972285271E0
1.164527564E1,5.481956482E0,1.357209015E1,7.116254330E0
1.164527564E1,5.481956482E0,1.357209015E1,7.116254330E0
1.167860898E1,3.584448338E0,1.347159195E1,3.256631613E0
1.169527564E1,2.306680918E0,1.219861031E1,-2.763710260E0
1.171194231E1,1.615155339E0,1.328973675E1,-1.174875975E0
1.172860897E1,1.615155339E0,1.328973675E1,-1.174875975E0
1.174527564E1,2.909672260E0,1.364148235E1,-3.780659735E-1
1.176194231E1,4.110869408E0,1.011685371E1,3.340380430E0
1.177860897E1,1.605584025E0,9.305686951E0,2.060220242E0
1.179527564E1,1.605584025E0,9.305686951E0,2.060220242E0
1.181194230E1,-9.571290761E-2,1.038963604E1,1.775474429E0
1.182860897E1,-1.962114573E-1,8.554341316E0,-1.954936147E0
1.184527564E1,-1.962114573E-1,8.554341316E0,-1.954936147E0
1.186194230E1,-2.536391914E-1,3.541377544E0,6.436693072E-1
1.187860897E1,-4.570291340E-1,3.146561861E0,1.337587833E0
1.189527563E1,-9.427721500E-1,3.357130051E0,6.699903607E-1
1.191194230E1,-9.427721500E-1,3.357130051E0,6.699903607E-1
1.192860897E1,-6.388836503E-1,1.887937069E0,8.159525394E-1
1.194527563E1,-2.026720762E0,1.641476393E0,1.696511269E0
1.196194230E1,-2.026720762E0,1.641476393E0,1.696511269E0
1.197860896E1,-2.007578135E0,1.512263894E0,2.445464849E0
1.199527563E1,-2.904886723E0,1.715653777E0,1.758724689E0
1.201194230E1,-4.429114819E0,2.115255117E0,-1.002592683E0
1.202860896E1,-4.429114819E0,2.115255117E0,-1.002592683E0
1.204527563E1,1.344766378E0,4.378865242E0,6.506084919E0
1.206194229E1,1.435693622E0,6.309873104E0,1.462014675E0
1.207860896E1,3.287738323E0,2.101137543E1,-1.655115509E1
1.209527563E1,5.505885124E0,4.112544250E1,4.029273987E1
1.211194229E1,-1.938186288E0,2.213121605E1,-5.575276613E-1
1.212860896E1,-2.155933142E0,1.376112270E1,4.754538536E0
1.214527562E1,-1.406979680E0,2.629712105E0,5.350351334E0
1.216194229E1,4.027120590E0,2.794816732E0,-6.419943333E0
1.217860896E1,5.498706341E0,7.989634991E0,-4.699503899E0
1.219527562E1,6.211767673E0,9.817750931E0,-7.896314561E-2
1.221194229E1,3.754338741E0,1.407936859E1,1.962114573E-1
1.222860895E1,-2.141576290E0,1.414158154E1,1.076770186E0
1.224527562E1,-3.596412420E0,1.165783215E1,-3.876372576E-1
1.226194229E1,-2.797209740E0,1.051884842E1,-4.881358147E-1
1.227860895E1,-2.605783939E0,7.977670670E0,-4.122833252E0
1.229527562E1,-2.804388046E0,5.484349728E0,-5.120640278E0
1.231194228E1,-2.804388046E0,5.484349728E0,-5.120640278E0
1.232860895E1,-3.230310678E-1,5.982056618E0,2.890529871E0
1.234527562E1,-1.454836130E0,7.267002583E0,2.703889608E-1
1.236194228E1,-1.593619823E0,8.264809608E0,1.572084427E0
1.237860895E1,-3.421736360E-1,1.004506969E1,1.395015597E0
1.239527561E1,9.188438654E-1,1.139462185E1,9.451649189E-1
1.241194228E1,3.708875179E-1,1.245703506E1,-2.043470621E0
1.242860895E1,-3.972085714E-1,1.107159042E1,-1.497906923E0
1.244527561E1,1.332802176E0,1.267956734E1,-2.344966233E-1
1.246194228E1,2.208575249E0,1.403151226E1,1.593619823E0
1.247860894E1,1.981257200E0,1.418943787E1,6.321837425E0
1.249527561E1,3.086741269E-1,1.347398472E1,7.929814339E0
1.251194228E1,2.632105052E-1,1.499103355E1,5.795416355E0
1.252860894E1,1.830509305E0,1.528056526E1,2.347358942E0
1.254527561E1,3.306880951E0,1.562034607E1,4.603790760E0
1.256194227E1,4.558327198E0,1.491685677E1,5.431707382E0
1.257860894E1,5.257031441E0,1.480439377E1,5.304887772E0
1.259527561E1,5.278566837E0,1.529492188E1,2.914458036E0
1.261194227E1,7.367500782E0,1.344766331E1,-6.484549642E-1
1.262860894E1,5.572884083E0,8.853444099E0,-7.475177765E0
1.264527560E1,3.862015724E0,9.523433685E0,-4.094119549E0
1.266194227E1,-2.730210543E0,1.256471157E1,1.264128208E1
1.267860894E1,2.081755698E-1,1.060977554E1,-2.878565550E0
1.269527560E1,-6.771687865E-1,8.204988480E0,-1.763510346E0
1.271194227E1,3.876372576E-1,7.664210796E0,-4.977070987E-1
1.272860893E1,4.785645306E-1,7.384250641E0,4.402793646E-1
1.274527560E1,-2.512463629E-1,5.558526993E0,-1.651047617E-1
1.276194227E1,-2.512463629E-1,5.558526993E0,-1.651047617E-1
1.277860893E1,-3.900300860E-1,3.448057413E0,-1.866401672E0
1.279527560E1,-1.567298889E0,1.129412293E0,-1.471585870E0
1.281194226E1,-2.041077614E0,-4.737788737E-1,2.871387303E-1
1.282860893E1,-2.041077614E0,-4.737788737E-1,2.871387303E-1
1.284527560E1,-2.043470621E0,-2.316252232E0,1.088734269E0
1.286194226E1,-4.103690624E0,-1.744367719E0,2.457428932E0
1.287860893E1,-5.149354458E0,-2.165504456E0,4.814359188E0
1.289527559E1,-5.149354458E0,-2.165504456E0,4.814359188E0
1.291194226E1,-1.056909752E1,3.787838221E0,-1.275374413E0
1.292860893E1,-7.243073940E0,8.422736168E0,5.556134224E0
1.294527559E1,-5.754738331E0,1.920479393E1,5.316852093E0
1.296194226E1,-5.754738331E0,1.920479393E1,5.316852093E0
1.297860892E1,6.443871498E0,2.806302452E1,9.724431038E0
1.299527559E1,8.063812256E-1,5.419743061E0,-4.261617184E0
1.301194226E1,3.254238665E-1,1.488335729E0,1.375872970E0
1.302860892E1,3.254238665E-1,1.488335729E0,1.375872970E0
1.304527559E1,9.762716293E-1,4.072584152E0,-2.536391914E-1
1.306194225E1,2.289931297E0,8.774480820E0,-2.593819857E0
1.307860892E1,2.289931297E0,8.774480820E0,-2.593819857E0
1.309527559E1,4.024727821E0,1.720918083E1,-3.285345554E0
1.311194225E1,1.095912814E0,1.564666748E1,4.948357105E0
1.312860892E1,8.590233326E-1,1.298345566E1,1.433300734E0
1.314527558E1,8.590233326E-1,1.298345566E1,1.433300734E0
1.316194225E1,1.545763373E0,1.106441212E1,-2.246860504E0
1.317860892E1,-2.991028428E-1,8.640482903E0,3.309273720E0
1.319527558E1,-1.914258152E-1,8.360522270E0,1.579262912E-1
1.321194225E1,-6.771687865E-1,8.583054543E0,-2.117648125E0
1.322860891E1,-1.318445325E0,8.714659691E0,-2.787638426E0
1.324527558E1,-2.947957516E0,9.468399048E0,-1.028913736E0
1.326194225E1,-3.424129248E0,9.236295700E0,5.623133183E-1
1.327860891E1,-9.523434043E-1,9.600004196E0,-3.206382394E-1
1.329527558E1,-3.493520916E-1,9.178867340E0,1.040877819E0
1.331194224E1,-7.537391186E-1,8.025527000E0,-4.929214716E-1
1.332860891E1,-9.068797827E-1,7.357929707E0,-3.134597540E-1
1.334527558E1,-6.699903607E-1,6.943971157E0,-4.307080805E-1
1.336194224E1,-5.551348329E-1,6.881757736E0,-1.007378340E0
1.337860891E1,-5.359922647E-1,7.353144169E0,-4.881358147E-1
1.339527557E1,-5.359922647E-1,7.353144169E0,-4.881358147E-1
1.341194224E1,-6.412764788E-1,9.128618240E0,1.830509305E0
1.342860891E1,-1.131805062E0,8.851051331E0,3.038884699E-1
1.344527557E1,-1.002592683E0,8.183453560E0,1.038485050E0
1.346194224E1,6.101697683E-1,7.838887215E0,-7.202396393E-1
1.347860890E1,-2.392822644E-3,7.446464062E0,-3.962514400E0
1.349527557E1,-6.652047038E-1,6.510870457E0,-1.773081541E0
1.351194224E1,-1.672582984E0,9.257830620E0,5.182853699E0
1.352860890E1,-1.672582984E0,9.257830620E0,5.182853699E0
1.354527557E1,3.299702406E0,1.700579071E1,4.584648132E0
1.356194223E1,6.518048763E0,1.906840324E1,5.905486107E0
1.357860890E1,1.204307652E1,1.783370781E1,4.721039295E0
1.359527557E1,1.204307652E1,1.783370781E1,4.721039295E0
1.361194223E1,4.359723091E0,1.215075302E1,7.513462901E-1
1.362860890E1,4.039084435E0,1.334955788E1,1.241874933E0
1.364527556E1,4.039084435E0,1.334955788E1,1.241874933E0
1.366194223E1,4.297509670E0,1.797727585E1,4.031906128E0
1.367860890E1,4.297509670E0,1.797727585E1,4.031906128E0
1.369527556E1,3.799802303E0,1.070309544E1,1.256231904E0
1.371194223E1,1.966900229E0,8.827122688E0,-4.857429862E-1
1.372860889E1,3.613162339E-1,7.671389580E0,-1.986042857E-1
1.374527556E1,-1.938186288E-1,7.216753006E0,8.279166222E-1
1.376194223E1,-4.402793646E-1,5.793023586E0,1.899901152E0
1.377860889E1,-2.847459018E-1,5.570491314E0,1.651047617E-1
1.379527556E1,-2.919243574E-1,5.627918720E0,-3.326023519E-1
1.381194222E1,-3.948157430E-1,5.292923450E0,3.804588020E-1
1.382860889E1,-1.074377418E0,4.438685894E0,1.117448211E0
1.384527556E1,-3.684946895E-1,3.993621111E0,1.024128079E0
1.386194222E1,6.340979934E-1,3.756731510E0,5.264209956E-2
1.387860889E1,4.331009090E-1,3.385843992E0,-1.746760458E-1
1.389527555E1,-3.517449200E-1,2.227717876E0,4.785645287E-3
1.391194222E1,-1.947757602E0,1.445264935E0,9.355936646E-1
1.392860889E1,-3.816552162E0,2.021935225E0,5.635097504E0
1.394527555E1,-4.620540619E0,3.053241730E0,9.772287369E0
1.396194222E1,-9.994820595E0,9.432506561E0,7.549355507E0
1.397860888E1,-1.127498055E1,1.454596901E1,5.180460930E0
1.399527555E1,-8.784051895E0,1.513221073E1,2.268395901E0
1.401194222E1,-7.429714203E0,1.418943787E1,1.923829436E0
1.402860888E1,-6.781259537E0,1.186840057E1,3.223132133E0
1.404527555E1,-6.781259537E0,1.186840057E1,3.223132133E0
1.406194221E1,3.919443607E0,1.150469112E1,9.913464546E0
1.407860888E1,5.850451469E0,1.568973827E1,1.380180073E1
1.409527555E1,2.598605394E0,1.792224121E1,-8.236095428E0
1.411194221E1,7.987242222E0,1.476132298E1,1.189232826E1
1.412860888E1,2.591426849E0,5.718846321E0,-9.430113792E0
1.414527554E1,1.402194023E0,6.020341873E0,-7.987242222E0
1.416194221E1,4.618147612E-1,7.654639721E0,-4.412364960E0
1.417860888E1,1.462014675E0,9.985248566E0,-2.723032236E0
1.419527554E1,1.462014675E0,9.985248566E0,-2.723032236E0
1.421194221E1,1.773081541E0,1.282792187E1,-4.402793646E-1
1.422860887E1,1.524227977E0,1.167697430E1,9.164510965E-1
1.424527554E1,1.497906923E0,1.011206818E1,1.852044702E0
1.426194221E1,1.497906923E0,1.011206818E1,1.852044702E0
1.427860887E1,-6.460621357E-1,7.860422611E0,1.993221283E0
1.429527554E1,-2.134397745E0,7.489534855E0,-6.747759581E-1
1.431194220E1,-3.555734396E0,8.226524353E0,-5.558526993E0
1.432860887E1,-4.761716843E0,9.489934921E0,-6.790830612E0
1.434527554E1,-5.886343479E0,1.117687416E1,-5.623133183E0
1.436194220E1,-8.547162056E0,8.657232285E0,9.990034103E0
1.437860887E1,-3.864408493E0,7.484749317E0,3.371487141E0
1.439527553E1,-3.321237803E0,7.707281590E0,-1.289731383E0
1.441194220E1,-2.967100143E-1,9.276973724E0,-1.651047617E-1
1.442860887E1,2.380858421E0,1.094716358E1,4.094119549E0
1.444527553E1,1.227517962E0,1.204307652E1,-8.207381964E-1
1.446194220E1,-7.824530005E-1,1.255274773E1,-2.431107759E0
1.447860886E1,-2.007578135E0,1.416551018E1,-2.273181528E-1
1.449527553E1,-7.968099117E-1,1.287577820E1,2.220539331E0
1.451194220E1,-1.328016520E0,1.516331673E1,3.921836376E0
1.452860886E1,-1.454836130E0,1.581416512E1,4.268795490E0
1.454527553E1,4.378865361E-1,1.419183064E1,3.084348440E0
1.456194219E1,2.483749866E0,1.369412422E1,3.230310678E-1
1.457860886E1,4.785645485E0,1.450768375E1,3.443271875E0
1.459527553E1,5.280959606E0,1.435693550E1,4.218546391E0
1.461194219E1,5.190032482E0,1.381376553E1,4.381258488E0
1.462860886E1,4.697110653E0,1.343569946E1,5.321637630E0
1.464527552E1,4.697110653E0,1.343569946E1,5.321637630E0
1.466194219E1,1.404586911E0,1.134676456E1,-4.610969067E0
1.467860886E1,1.450050473E0,1.403869057E1,-2.727817893E-1
1.469527552E1,2.433500528E0,1.685743523E1,5.773880959E0
1.471194219E1,2.433500528E0,1.685743523E1,5.773880959E0
1.472860885E1,5.737988472E0,1.439282799E1,-2.679961324E-1
1.474527552E1,5.850451469E0,1.300499153E1,1.907079697E0
1.476194219E1,5.268995285E0,1.170329571E1,3.251846075E0
1.477860885E1,3.751945972E0,7.176074982E0,1.768295884E0
1.479527552E1,1.591227055E0,6.683153629E0,-1.205982566E0
1.481194218E1,-5.958128572E-1,4.957928658E0,-3.541377544E0
1.482860885E1,-5.730810165E0,5.144568920E0,-1.696511269E0
1.484527552E1,-6.501298904E0,4.441078663E0,1.816152334E0
1.486194218E1,-5.096712112E0,5.158925533E0,3.141776085E0
1.487860885E1,-1.392622828E0,4.450650215E0,2.041077614E0
1.489527551E1,6.221339107E-1,3.091526747E0,1.148554921E0
1.491194218E1,6.221339107E-1,3.091526747E0,1.148554921E0
1.492860885E1,6.221339107E-1,3.091526747E0,1.148554921E0
1.494527551E1,-1.658226132E0,-3.409772158E0,2.696711063E0
1.496194218E1,-1.658226132E0,-3.409772158E0,2.696711063E0
1.497860884E1,-6.257231236E0,-9.188438654E-1,3.804588079E0
1.499527551E1,-6.826723099E0,1.095912814E0,1.531406522E0
1.501194218E1,-2.600998163E0,2.366501570E0,8.748159409E0
1.502860884E1,4.261617184E0,8.114061356E0,-6.893722057E0
1.504527551E1,7.295716286E0,1.568255997E1,-1.263649654E1
1.506194217E1,1.407219028E1,3.229832077E1,-8.592626572E0
1.507860884E1,3.292523861E0,2.413400841E1,2.244467735E0
1.509527551E1,-4.374079704E0,8.760123253E0,1.538584948E0
1.511194217E1,-3.940979004E0,6.350551128E0,5.503492355E-1
1.512860884E1,-2.737389088E0,5.240281582E0,-1.002592683E0
1.514527550E1,2.478964329E0,1.164826107E1,-2.596212626E0
1.516194217E1,2.311466694E0,1.394058514E1,3.062812984E-1
1.517860884E1,3.924229145E-1,1.241635704E1,-9.092725813E-2
1.519527550E1,-1.136590719E0,9.937392235E0,2.321037948E-1
1.521194217E1,-1.083948612E0,9.064012527E0,4.737788737E-1
1.522860883E1,-1.083948612E0,9.064012527E0,4.737788737E-1
1.524527550E1,-1.112662554E0,8.762516975E0,-6.197410822E-1
1.526194217E1,8.374879509E-2,8.439485550E0,-7.896314561E-2
1.527860883E1,8.374879509E-2,8.439485550E0,-7.896314561E-2
1.529527550E1,-6.508477330E-1,7.554141045E0,5.383850932E-1
1.531194216E1,-5.910272002E-1,7.779066563E0,4.187439680E-1
1.532860883E1,2.871387079E-2,8.303094864E0,6.293123364E-1
1.534527550E1,-1.651047617E-1,7.984848976E0,4.618147612E-1
1.536194216E1,-4.618147612E-1,7.657032490E0,2.057827413E-1
1.537860883E1,-4.785645306E-1,7.738388538E0,-7.896314561E-2
1.539527549E1,-3.349951804E-1,7.929814339E0,5.072783828E-1
1.541194216E1,8.614161611E-2,8.109275818E0,9.690931439E-1
1.542860883E1,8.614161611E-2,8.109275818E0,9.690931439E-1
1.544527549E1,5.982056856E-1,1.181575775E1,4.594219327E-1
1.546194216E1,-4.187439680E-1,1.430190086E1,9.308080077E-1
1.547860882E1,-4.187439680E-1,1.430190086E1,9.308080077E-1
1.549527549E1,-1.555334777E-1,1.598405552E1,8.470591903E-1
1.551194216E1,3.924229145E-1,1.627837181E1,2.160718918E0
1.552860882E1,7.609176040E-1,1.636212158E1,2.756531715E0
1.554527549E1,7.609176040E-1,1.636212158E1,2.756531715E0
1.556194215E1,4.759324074E0,1.499103355E1,4.850251675E0
1.557860882E1,6.735795975E0,1.339023590E1,5.213960648E0
1.559527549E1,6.470192432E0,1.306241894E1,6.273981094E0
1.561194215E1,4.173082829E0,1.269631672E1,5.044070244E0
1.562860882E1,2.153540373E0,1.218425274E1,2.199003935E0
1.564527548E1,-5.886343718E-1,1.087298584E1,-4.972285271E0
1.566194215E1,-1.423729420E0,1.248335552E1,-1.067198873E0
1.567860882E1,-2.033899277E-1,1.322273827E1,-3.438486099E0
1.569527548E1,3.900300860E-1,1.323948765E1,-2.636890650E0
1.571194215E1,1.507478207E-1,1.057866859E1,2.629712105E0
1.572860881E1,3.110669553E-1,1.137308598E1,-1.375872970E0
1.574527548E1,-9.690931439E-1,8.276773453E0,6.695117950E0
1.576194215E1,6.723831892E-1,7.202396393E0,3.723232031E0
1.577860881E1,3.113062143E0,6.766902447E0,-2.254039049E0
1.579527548E1,3.199203968E0,6.317051888E0,-1.550549030E0
1.581194214E1,1.387837082E-1,2.833101988E0,1.002592683E0
1.582860881E1,-8.877372146E-1,2.569891453E0,1.749153376E0
1.584527548E1,-1.598405480E0,3.424129248E0,1.572084427E0
1.586194214E1,-1.751546144E0,3.352344513E0,1.411765337E0
1.587860881E1,-2.825923443E0,3.043670416E0,1.100698471E0
1.589527547E1,-3.352344513E0,2.940778971E0,1.246660590E0
1.591194214E1,-4.450650215E0,1.828116536E0,2.488535643E0
1.592860881E1,-4.823930264E0,2.184647083E0,2.021935225E0
1.594527547E1,-4.555934429E0,1.459621787E0,2.450250387E0
1.596194214E1,-4.110869408E0,1.091127157E0,2.440679073E0
1.597860880E1,-4.182653904E0,2.254039049E0,5.168496966E-1
1.599527547E1,-2.727817774E0,2.950350285E0,1.131805062E0
1.601194214E1,-2.727817774E0,2.950350285E0,1.131805062E0
1.602860880E1,1.313659668E0,4.874179840E0,5.766702652E0
1.604527547E1,1.313659668E0,4.874179840E0,5.766702652E0
1.606194213E1,1.048056316E1,4.454239273E1,1.984128571E1
1.607860880E1,1.048056316E1,4.454239273E1,1.984128571E1
1.609527547E1,-4.938786030E0,1.518485260E1,8.255238533E0
1.611194213E1,-2.988635540E0,3.096312523E0,-4.570291042E0
1.612860880E1,-2.392822644E-3,2.184647083E0,-2.806781054E0
1.614527546E1,-2.392822644E-3,2.184647083E0,-2.806781054E0
1.616194213E1,3.718446493E0,1.067677498E1,2.512463629E-1
1.617860880E1,3.160918713E0,1.378026581E1,-5.503492057E-2
1.619527546E1,3.160918713E0,1.378026581E1,-5.503492057E-2
1.621194213E1,-7.513462901E-1,1.007139015E1,5.431707501E-1
1.622860879E1,-1.122233868E0,7.905886173E0,-4.019941986E-1
1.624527546E1,-7.202396393E-1,6.757331371E0,-6.819544435E-1
1.626194213E1,-7.202396393E-1,6.757331371E0,-6.819544435E-1
1.627860879E1,-3.996013701E-1,6.293123722E0,6.005984545E-1
1.629527546E1,-4.929214716E-1,7.219145775E0,1.148554921E0
1.631194212E1,-9.738788009E-1,8.745766640E0,-2.153540403E-1
1.632860879E1,-9.738788009E-1,8.745766640E0,-2.153540403E-1
1.634527546E1,-1.093519926E0,8.865407944E0,-3.804588020E-1
1.636194212E1,-9.308080077E-1,7.451249599E0,1.385444283E0
1.637860879E1,-3.421736360E-1,7.740781307E0,6.484549642E-1
1.639527545E1,4.426721931E-1,9.008976936E0,-2.727817893E-1
1.641194212E1,4.067798331E-2,9.755537987E0,-5.838487148E-1
1.642860879E1,4.067798331E-2,9.755537987E0,-5.838487148E-1
1.644527545E1,3.038884699E-1,1.412004662E1,-7.298108935E-1
1.646194212E1,3.038884699E-1,1.412004662E1,-7.298108935E-1
1.647860878E1,1.586441398E0,1.670668793E1,1.921436548E0
1.649527545E1,2.134397745E0,1.395972729E1,2.012363911E0
1.651194212E1,3.036491871E0,1.274895859E1,2.507678032E0
1.652860878E1,2.837887764E0,1.398844147E1,2.132004976E0
1.654527545E1,3.993621111E0,1.467996693E1,2.794816732E0
1.656194211E1,6.065805435E0,1.400997639E1,4.436293125E0
1.657860878E1,6.065805435E0,1.400997639E1,4.436293125E0
1.659527545E1,2.691925526E0,1.277528000E1,6.943971157E0
1.661194211E1,1.253839016E0,1.169372463E1,4.345366001E0
1.662860878E1,-7.369893789E-1,9.734002113E0,-4.881358147E0
1.664527544E1,-7.369893789E-1,9.734002113E0,-4.881358147E0
1.666194211E1,3.014956415E-1,1.413918877E1,4.307080805E-2
1.667860878E1,1.875972986E0,1.278724384E1,-1.040877819E0
1.669527544E1,3.290131092E0,1.092084217E1,2.464607239E0
1.671194211E1,2.768495798E0,1.031067276E1,4.180261135E0
1.672860877E1,2.768495798E0,1.031067276E1,4.180261135E0
1.674527544E1,9.188438654E-1,9.255437851E0,-1.550549030E0
1.676194211E1,9.188438654E-1,9.255437851E0,-1.550549030E0
1.677860877E1,2.536391914E-1,5.400600910E0,-1.280160069E0
1.679527544E1,3.637090325E-1,4.677968502E0,-8.925228715E-1
1.681194210E1,1.818545163E-1,3.668197155E0,1.060020447E0
1.682860877E1,1.818545163E-1,3.668197155E0,1.060020447E0
1.684527544E1,1.818545163E-1,3.668197155E0,1.060020447E0
1.686194210E1,-1.292124271E0,4.388436794E0,1.306481123E0
1.687860877E1,-2.388036966E0,3.440878868E0,1.162911773E0
1.689527543E1,-3.907479286E0,1.208375454E0,2.029113531E0
1.691194210E1,-3.907479286E0,1.208375454E0,2.029113531E0
1.692860877E1,-4.063013077E0,-4.929214716E-1,1.725225091E0
1.694527543E1,-5.245067120E0,1.593619823E0,4.043870270E-1
1.696194210E1,-6.580262184E0,3.235096216E0,2.847459018E-1
1.697860876E1,-1.182054400E0,4.673182487E0,2.342573404E0
1.699527543E1,1.332802176E0,5.869594097E0,7.365108013E0
1.701194210E1,5.108676434E0,1.854676819E1,-1.353619766E1
1.702860876E1,7.506284714E0,3.560998535E1,1.426840115E1
1.704527543E1,-4.859822750E0,2.324148560E1,3.869194269E0
1.706194209E1,-4.498506546E0,1.627598000E1,7.077969551E0
1.707860876E1,2.919243574E-1,5.943771362E0,-4.292723656E0
1.709527543E1,2.919243574E-1,5.943771362E0,-4.292723656E0
1.711194209E1,2.919243574E-1,5.943771362E0,-4.292723656E0
1.711194209E1,1.462014675E0,8.717052460E0,-9.188438654E-1
1.714527542E1,2.866601467E0,1.205743313E1,-1.713261008E0
1.716194209E1,2.866601467E0,1.205743313E1,-1.713261008E0
1.717860876E1,2.608176768E-1,8.891729355E0,-4.187439680E-1
1.719527542E1,-4.043870270E-1,8.489734650E0,-1.229910851E0
1.721194209E1,-9.834501147E-1,7.578069210E0,-9.451649189E-1
1.722860875E1,-2.220539331E0,6.360122681E0,-1.971685886E0
1.724527542E1,-4.347758770E0,5.960521221E0,3.464807272E0
1.726194209E1,-2.641676188E0,7.893921852E0,6.460621357E-1
1.727860875E1,-8.614161611E-2,1.170808125E1,-7.609176040E-1
1.729527542E1,-1.852044702E0,9.765109062E0,1.730010748E0
1.731194208E1,-1.852044702E0,9.765109062E0,1.730010748E0
1.732860875E1,-1.268195987E0,7.008577347E0,2.065006018E0
1.734527542E1,1.423729420E0,7.085147858E0,1.387837172E0
1.736194208E1,1.770688772E0,8.070990562E0,-1.227517962E0
1.737860875E1,1.344766378E0,8.355736732E0,-6.556333899E-1
1.739527541E1,1.186840057E0,1.031067276E1,1.794617027E-1
1.741194208E1,2.847459018E-1,1.241396427E1,-8.829515576E-1
1.742860875E1,2.847459018E-1,1.241396427E1,-8.829515576E-1
1.744527541E1,-4.929214716E-1,1.464646721E1,-1.119840980E0
1.746194208E1,-3.110669367E-2,1.554856110E1,2.610569477E0
1.747860874E1,1.344766378E0,1.486899948E1,5.804987907E0
1.749527541E1,2.510071039E0,1.501735497E1,3.038884640E0
1.751194208E1,3.376272678E0,1.536192131E1,2.818745136E0
1.752860874E1,4.371686935E0,1.372283745E1,5.168497086E0
1.754527541E1,5.642275810E0,1.419422436E1,7.195217609E0
1.756194207E1,5.642275810E0,1.419422436E1,7.195217609E0
1.757860874E1,2.907279491E0,1.342852020E1,-4.235295951E-1
1.759527541E1,1.067198873E0,1.372283745E1,-3.565305769E-1
1.761194207E1,1.596012712E0,1.421097374E1,-3.184846878E0
1.762860874E1,3.670589924E0,1.090648556E1,-5.807380676E0
1.764527540E1,4.163511276E0,1.021496010E1,-3.282952785E0
1.766194207E1,1.698904037E-1,1.071266651E1,7.580461979E0
1.767860874E1,-2.273181438E0,8.578269005E0,6.750152588E0
1.769527540E1,-2.679961324E-1,6.826723099E0,-5.838487148E0
1.771194207E1,8.231309652E-1,7.075576782E0,-5.575276852E0
1.772860873E1,1.205982566E0,7.826922894E0,-4.378865361E-1
1.774527540E1,3.014956415E-1,3.589233875E0,1.258624673E0
1.776194207E1,3.014956415E-1,3.589233875E0,1.258624673E0
1.777860873E1,-1.493121386E0,4.077369690E0,4.115654826E-1
1.779527540E1,-1.856830359E0,3.314059258E0,1.842473388E0
1.781194206E1,-1.653440475E0,1.852044702E0,1.517049551E0
1.782860873E1,-2.584248543E0,9.834501147E-1,1.576870084E0
1.784527540E1,-2.541177750E0,7.322037220E-1,1.667797327E0
1.786194206E1,-2.352144718E0,2.656033039E-1,1.976471543E0
1.787860873E1,-3.907479286E0,1.339980721E0,2.012363911E0
1.787860873E1,-3.907479286E0,1.339980721E0,2.012363911E0
1.791194206E1,-3.390629768E0,2.266003132E0,-2.545963287E0
1.792860873E1,-5.766702294E-1,2.794816732E0,2.895315409E0
1.794527539E1,1.610369682E0,7.417750359E0,-7.982456207E0
1.796194206E1,4.486542225E0,2.699103928E1,-1.713500214E1
1.797860872E1,8.647661209E0,3.747638702E1,-3.553341627E0
1.799527539E1,-8.614161611E-1,2.622533607E1,7.010970116E-1
1.801194206E1,-4.484149456E0,9.882357597E0,6.731009960E0
1.802860872E1,-4.493721008E0,3.414557934E0,4.144368649E0
1.804527539E1,6.436693072E-1,1.938186288E0,-4.421936035E0
1.806194205E1,3.261417150E0,8.697910309E0,-1.880758643E0
1.807860872E1,3.811766386E0,1.222493076E1,9.978070259E-1
1.809527539E1,3.031706333E0,1.323470211E1,1.698904037E-1
1.811194205E1,-2.679961324E-1,1.276570892E1,3.852444589E-1
1.812860872E1,-2.679961324E-1,1.276570892E1,3.852444589E-1
1.814527538E1,-7.609176040E-1,7.903493404E0,-2.148754835E0
1.816194205E1,-1.194018483E0,7.269395351E0,-1.629512191E0
1.817860872E1,-2.610569477E0,5.998806477E0,-2.237289190E0
1.819527538E1,-2.610569477E0,5.998806477E0,-2.237289190E0
1.821194205E1,-6.029912829E-1,1.013360405E1,-1.237089276E0
1.822860871E1,-3.684946895E-1,1.092084217E1,-1.270588875E0
1.824527538E1,-1.502692580E0,9.547362328E0,1.940579176E0
1.826194205E1,-1.031306505E0,8.511270523E0,1.962114573E0
1.827860871E1,-1.031306505E0,8.511270523E0,1.962114573E0
1.829527538E1,1.055234790E0,8.288737297E0,5.670989752E-1
1.831194204E1,1.375872970E0,9.422935486E0,-5.718846321E-1
1.832860871E1,1.457229018E0,1.071984577E1,-2.656033039E-1
1.834527538E1,1.457229018E0,1.071984577E1,-2.656033039E-1
1.836194204E1,1.103091240E0,1.254078388E1,-9.355936646E-1
1.837860871E1,3.996013701E-1,1.341894913E1,4.043870270E-1
1.839527537E1,1.387837172E0,1.403869057E1,6.867401004E-1
1.841194204E1,1.387837172E0,1.403869057E1,6.867401004E-1
1.842860871E1,1.615155339E0,1.465125275E1,4.165904045E0
1.844527537E1,3.457628727E0,1.471107388E1,5.199603558E0
1.846194204E1,4.551148891E0,1.383769321E1,6.735795975E0
1.847860870E1,4.551148891E0,1.383769321E1,6.735795975E0
1.849527537E1,1.208375454E0,1.290688515E1,4.106083870E0
1.851194204E1,9.403793216E-1,1.196411324E1,-1.251446247E0
1.852860870E1,9.403793216E-1,1.196411324E1,-1.251446247E0
1.854527537E1,3.404986620E0,1.633101463E1,-7.920243144E-1
1.856194203E1,4.476971149E0,1.472303772E1,-7.010970116E-1
1.857860870E1,5.182853699E0,1.061216831E1,-8.135596663E-2
1.859527537E1,5.182853699E0,1.061216831E1,-8.135596663E-2
1.861194203E1,-7.824530005E-1,1.337348557E1,3.373879910E0
1.862860870E1,-2.344966173E0,9.406186104E0,1.060020447E0
1.864527536E1,5.264209956E-2,7.877171993E0,-4.268795490E0
1.866194203E1,1.964507341E0,7.487142086E0,4.761717021E-1
1.867860870E1,1.526620865E0,5.484349728E0,2.337787628E0
1.869527536E1,3.421736360E-1,3.893122435E0,8.255237937E-1
1.871194203E1,3.421736360E-1,3.893122435E0,8.255237937E-1
1.872860869E1,-1.940579176E0,3.433700562E0,4.187439680E-1
1.874527536E1,-1.538584948E0,2.476571321E0,9.858429432E-1
1.876194203E1,-2.038684845E0,9.762716293E-1,8.542376757E-1
1.877860869E1,-1.880758643E0,-1.521835208E0,6.364908218E-1
1.879527536E1,-2.526820660E0,-1.052842021E0,1.074377418E0
1.881194202E1,-3.684946775E0,4.067798331E-2,7.872386575E-1
1.882860869E1,-5.300102234E0,1.418943882E0,-1.019342422E0
1.884527536E1,-3.929014683E0,3.067598581E0,-2.682354212E0
1.886194202E1,-4.761717021E-1,4.496113777E0,2.395215511E0
1.887860869E1,1.476371527E0,5.601597786E0,9.879964828E0
1.889527535E1,4.077369690E0,1.687179184E1,-1.146162033E1
1.891194202E1,9.695717812E0,3.549034500E1,4.809573591E-1
1.892860869E1,9.695717812E0,3.549034500E1,4.809573591E-1
1.894527535E1,-1.998006940E0,1.505324745E1,6.125625968E-1
1.896194202E1,-3.208775282E0,5.242674351E0,4.388436794E0
1.897860868E1,-1.292124242E-1,5.898307800E0,-4.740181446E0
1.899527535E1,-1.292124242E-1,5.898307800E0,-4.740181446E0
1.901194202E1,2.950350285E0,1.081316566E1,9.547362328E-1
1.902860868E1,1.184447169E0,1.085623646E1,-7.178468108E-1
1.904527535E1,-1.019342422E0,1.061695385E1,-1.418943882E0
1.906194201E1,-1.019342422E0,1.061695385E1,-1.418943882E0
1.907860868E1,-4.570291340E-1,8.705088615E0,9.523434043E-1
1.909527535E1,-3.469592929E-1,8.604590416E0,-1.421336651E0
1.911194201E1,-1.663011789E0,6.965506554E0,-5.084748268E0
1.912860868E1,-1.663011789E0,6.965506554E0,-5.084748268E0
1.914527534E1,-4.618147612E-1,7.503891945E0,3.842873096E0
1.916194201E1,-6.604190469E-1,9.743574142E0,-7.680960894E-1
1.917860868E1,-1.275374413E0,8.915657043E0,1.751546144E0
1.919527534E1,-1.275374413E0,8.915657043E0,1.751546144E0
1.921194201E1,-1.275374413E0,8.915657043E0,1.751546144E0
1.922860867E1,1.153340459E0,7.310073376E0,5.479564071E-1
1.924527534E1,1.153340459E0,7.310073376E0,5.479564071E-1
1.926194201E1,1.095912814E0,6.946363926E0,-1.325623751E0
1.927860867E1,2.782852650E0,9.145368576E0,-1.409372568E0
1.929527534E1,2.086541414E0,1.220339584E1,-9.284151793E-1
1.931194200E1,-1.244267747E-1,1.456271839E1,-5.982056856E-1
1.932860867E1,-1.093519926E0,1.422772312E1,-3.517449200E-1
1.934527534E1,-1.328016520E0,1.381855106E1,2.727817893E-1
1.936194200E1,7.106683254E-1,1.441914940E1,1.926222205E0
1.937860867E1,4.070191383E0,1.594098473E1,3.658625841E0
1.939527533E1,4.491328239E0,1.501256943E1,3.546163082E0
1.941194200E1,5.680561066E0,1.336630726E1,3.014956474E0
1.942860867E1,5.603990555E0,1.222253799E1,2.409572363E0
1.944527533E1,4.486542225E0,1.325384426E1,3.488735437E0
1.946194200E1,2.833101988E0,1.386640739E1,4.838287354E0
1.947860866E1,-7.824530005E-1,1.380658627E1,3.936193228E0
1.949527533E1,-7.824530005E-1,1.380658627E1,3.936193228E0
1.951194200E1,-3.160918713E0,1.414158154E1,9.595218897E-1
1.952860866E1,-1.584048629E0,1.455554008E1,-5.910272002E-1
1.954527533E1,4.539184570E0,1.389751434E1,1.036092162E0
1.956194199E1,9.856036186E0,9.645467758E0,1.056909752E1
1.957860866E1,8.193024635E0,7.439285755E0,-2.629712105E0
1.959527533E1,5.307280540E0,8.080561638E0,-7.154539585E0
1.961194199E1,7.058826685E-1,9.671789169E0,-1.832902193E0
1.962860866E1,-4.828716278E0,8.482556343E0,2.859423161E0
1.964527532E1,-4.828716278E0,8.482556343E0,2.859423161E0
1.966194199E1,-2.890529871E0,5.462814331E0,6.532405615E-1
1.967860866E1,-8.350951076E-1,6.364908218E0,-1.627119422E0
1.969527532E1,-1.189232826E0,5.187639713E0,-4.761717021E-1
1.971194199E1,-5.551348329E-1,2.825923443E0,5.982056856E-1
1.972860865E1,-5.288137794E-1,1.744367719E0,7.034898400E-1
1.974527532E1,-5.288137794E-1,1.744367719E0,7.034898400E-1
1.976194199E1,-2.593819857E0,5.288137794E-1,1.734796405E0
1.977860865E1,-2.593819857E0,5.288137794E-1,1.734796405E0
1.979527532E1,-2.096112728E0,-9.355936646E-1,1.899901152E0
1.981194198E1,-2.806781054E0,-9.427721500E-1,1.275374413E0
1.982860865E1,-5.393422127E0,2.469393015E0,-1.478764415E0
1.984527532E1,-4.680361271E0,3.950550079E0,-2.754138947E0
1.986194198E1,-1.663011789E0,4.572684288E0,2.811566591E0
1.987860865E1,-1.533799291E0,1.164826107E1,-1.096391296E1
1.989527531E1,-7.944171429E-1,3.668197250E1,1.077966595E1
1.991194198E1,2.579462767E0,4.770331192E1,1.059063339E1
1.992860865E1,6.699903607E-1,2.000399780E1,3.213560820E0
1.994527531E1,6.699903607E-1,2.000399780E1,3.213560820E0
1.996194198E1,1.119840980E0,3.560520172E0,-4.345366001E0
1.997860864E1,1.119840980E0,3.560520172E0,-4.345366001E0
1.999527531E1,3.984049797E0,1.264606762E1,-1.196411371E0
2.001194198E1,4.632504463E0,1.739342690E1,-1.395015597E0
2.002860864E1,2.175075769E0,1.264367485E1,1.483550072E0
2.004527531E1,6.197410822E-1,1.025803089E1,8.781659007E-1
2.006194197E1,-3.924229145E-1,8.264809608E0,-4.067798555E-1
2.007860864E1,-1.581655741E0,8.353343964E0,1.222732425E0
2.009527531E1,-1.354337573E0,8.283951759E0,-3.474378586E0
2.011194197E1,-1.385444283E0,8.472985268E0,-6.932007313E0
2.012860864E1,-1.552941918E0,8.154739380E0,-4.656432629E0
2.014527530E1,-2.840280533E0,9.229117393E0,1.119123173E1
2.016194197E1,-2.794816732E0,9.286544800E0,-3.136990547E0
2.017860864E1,-2.397608280E0,8.752944946E0,-1.584048629E0
2.019527530E1,-2.036292076E0,6.092126369E0,1.801795483E0
2.021194197E1,-1.478764415E0,4.618147850E0,5.264209956E-2
2.022860863E1,7.178468108E-1,5.331208706E0,-1.184447169E0
2.024527530E1,1.342373490E0,5.967699528E0,-2.194218397E0
2.026194197E1,-2.632105052E-1,8.482556343E0,-3.488735437E0
2.027860863E1,4.354937077E-1,1.072463131E1,-4.881358147E-1
2.029527530E1,1.143769264E0,1.136830044E1,-7.896314561E-2
2.031194196E1,2.400001049E0,1.224168110E1,1.679761529E0
2.032860863E1,3.397808075E0,1.463928890E1,-8.781659007E-1
2.034527530E1,3.397808075E0,1.463928890E1,-8.781659007E-1
2.036194196E1,6.340979934E-1,1.492882061E1,3.933800459E0
2.037860863E1,7.178467698E-3,1.403151226E1,4.886143684E0
2.039527529E1,-2.031506538E0,1.185882950E1,-7.968099117E-1
2.041194196E1,-2.146361828E0,1.365105343E1,-2.344966233E-1
2.042860863E1,8.279166222E-1,1.215793228E1,4.577469826E0
2.044527529E1,-1.938186288E-1,1.232782269E1,3.381058455E0
2.046194196E1,-2.823530734E-1,1.283749390E1,7.752745152E-1
2.047860862E1,5.216353536E-1,1.362473202E1,3.732803345E0
2.049527529E1,1.899901152E0,1.443829155E1,3.680161238E0
2.051194196E1,3.754338741E0,1.302652645E1,1.016949654E0
2.052860862E1,5.249852657E0,1.215314579E1,5.599204898E-1
2.054527529E1,4.907679081E0,1.049731255E1,-3.223132133E0
2.056194195E1,5.517848969E0,1.049731255E1,-1.686939955E0
2.057860862E1,9.090332985E0,1.343569946E1,9.504291534E0
2.059527529E1,7.740781307E0,1.216750336E1,3.074777126E0
2.061194195E1,2.380858421E0,7.006184578E0,-4.400400639E0
2.062860862E1,1.969292998E0,6.474977970E0,-3.014956415E-1
2.064527528E1,4.467400074E0,7.913064480E0,2.818745136E0
2.066194195E1,1.995614052E0,7.245467186E0,5.934200287E-1
2.067860862E1,-1.383051515E0,6.125626087E0,-9.092726111E-1
2.069527528E1,-1.811366796E0,5.168497086E0,-1.495514154E0
2.071194195E1,-5.048855543E-1,5.357530117E0,4.259224236E-1
2.072860861E1,-1.634297848E0,4.182653904E0,-1.272981644E0
2.074527528E1,-1.959721804E0,3.519842148E0,-2.124826431E0
2.076194195E1,-1.454836130E0,3.103491068E0,-1.569691658E0
2.077860861E1,2.703889608E-1,2.979064226E0,-5.479564071E-1
2.079527528E1,1.060020447E0,1.942971945E0,-1.698904037E-1
2.081194194E1,3.684946895E-1,5.383850932E-1,2.991028428E-1
2.082860861E1,-1.067198873E0,-1.914258115E-2,5.000999570E-1
2.084527528E1,-2.976671457E0,1.837687731E0,-6.723831892E-1
2.086194194E1,-4.883750916E0,4.084548473E0,-3.122633457E0
2.087860861E1,-9.667003632E0,7.259823799E0,-2.778067112E0
2.089527527E1,-1.344766331E1,1.017906761E1,4.173082829E0
2.091194194E1,-1.582373619E1,1.625444412E1,4.831109047E0
2.092860861E1,-1.582373619E1,1.625444412E1,4.831109047E0
2.094527527E1,3.723232031E0,1.859701729E1,1.185404301E1
2.096194194E1,1.295474148E1,2.073141479E1,1.001396275E1
2.097860860E1,9.513862610E0,1.509631824E1,-1.032742214E1
2.099527527E1,4.520041943E0,8.346165657E0,-2.562713146E0
2.101194194E1,3.852444410E0,8.415556908E0,1.087059307E1
2.102860860E1,1.483550072E0,7.154539585E0,1.914258115E-2
2.104527527E1,-1.263410330E0,9.102297783E0,-3.665804386E0
2.106194193E1,-4.163511395E-1,1.178704453E1,-1.940579176E0
2.107860860E1,3.254238665E-1,1.222493076E1,-7.226324677E-1
2.109527527E1,2.076970100E0,1.275853062E1,2.536391914E-1
2.111194193E1,3.132204771E0,1.244507027E1,-1.866401732E-1
2.112860860E1,1.974078655E0,9.528220177E0,3.637090325E-1
2.114527526E1,1.055234790E0,7.867600918E0,-4.833501875E-1
2.116194193E1,4.283152521E-1,5.395814896E0,-3.672982693E0
2.117860860E1,-3.110669367E-2,4.249652863E0,-5.324030399E0
2.119527526E1,2.153540403E-2,4.639683247E0,-5.539384365E0
2.121194193E1,1.698904037E-1,5.386243820E0,-4.534399033E0
2.122860859E1,-2.703889608E-1,7.046862602E0,-3.565305710E0
2.124527526E1,-1.368694544E0,8.537590981E0,-3.036491871E0
2.126194193E1,-1.746760488E0,1.041595650E1,-1.136590719E0
2.127860859E1,-1.952543259E0,1.127976608E1,2.368894368E-1
2.129527526E1,-4.871787071E0,1.071506023E1,2.187279129E1
2.131194192E1,-7.178468257E-2,1.141854954E1,-5.615954876E0
2.132860859E1,-1.842473388E0,1.153579807E1,-2.859423161E0
2.134527526E1,-3.826123476E0,1.093998528E1,7.010970116E0
2.136194192E1,-2.852244616E0,1.068634605E1,-3.900300860E-1
2.137860859E1,-2.227717876E0,9.664610863E0,1.124626637E0
2.139527525E1,-2.670390129E0,1.161236858E1,2.758924484E0
2.141194192E1,-2.273181438E0,1.220100307E1,2.050648928E0
2.142860859E1,-1.806581140E0,1.097827053E1,1.060020447E0
2.144527525E1,-3.062812984E-1,9.315258980E0,9.403793216E-1
2.146194192E1,1.555334777E-1,1.165543938E1,9.499505758E-1
2.147860858E1,1.938186288E-1,1.214836025E1,2.596212626E0
2.149527525E1,-1.854437590E0,1.204786205E1,-8.087740541E-1
2.151194192E1,-2.368894339E0,1.359601784E1,-1.722832322E-1
2.152860858E1,1.768295884E0,1.705603981E1,1.859223247E0
2.154527525E1,2.935993433E0,1.801316833E1,2.522035122E0
2.156194191E1,1.663011789E0,1.767817307E1,9.523434043E-1
2.157860858E1,1.663011789E0,1.767817307E1,9.523434043E-1
2.159527525E1,2.519642353E0,2.126740837E1,2.179861546E0
2.161194191E1,3.548556089E0,2.313859558E1,3.594019651E0
2.162860858E1,5.197210789E0,2.054716873E1,5.769095421E0
2.164527524E1,5.197210789E0,2.054716873E1,5.769095421E0
2.166194191E1,-7.082754970E-1,1.078923702E1,3.902693748E0
2.167860858E1,-5.886343718E-1,8.537590981E0,6.338587284E0
2.169527524E1,7.034898400E-1,6.565905571E0,8.255237937E-1
2.171194191E1,-1.110269666E0,8.164310455E0,-1.497906923E0
2.172860857E1,-3.036491871E0,8.920442581E0,-1.653440475E0
2.174527524E1,-1.789831281E0,1.020299530E1,-1.088734269E0
2.176194191E1,1.457229018E0,6.561119556E0,-4.067798555E-1
2.177860857E1,2.682354212E0,1.756331801E0,-3.165704250E0
2.179527524E1,1.866401672E0,-2.321037948E-1,-1.414158225E0
2.181194190E1,-8.709874153E-1,-3.206382275E0,-2.344966233E-1
2.182860857E1,-3.026920557E0,-2.242074728E0,2.835494757E0
2.184527524E1,-9.958928108E0,-8.374879360E-1,5.257031441E0
2.186194190E1,-1.046620655E1,-8.374879360E-1,6.831508636E0
2.187860857E1,-9.604789734E0,-5.599204898E-1,7.066005230E0
2.189527523E1,-6.790830612E0,-3.014956415E-1,6.841079712E0
2.191194190E1,-4.041477680E0,3.349951655E-2,5.848058701E0
2.192860857E1,-2.254039049E0,1.268195957E-1,6.278766632E0
2.194527523E1,4.651647091E0,1.186840057E0,9.308079720E0
2.196194190E1,6.604190350E0,1.017188931E1,1.011446095E1
2.197860856E1,3.383451223E0,2.602912521E1,-1.631187248E1
2.199527523E1,4.773681164E0,3.476292801E1,7.164111137E0
2.201194190E1,1.517049551E0,2.116212273E1,-3.043670416E0
2.202860856E1,-1.751546144E0,8.563912392E0,1.579262912E-1
2.204527523E1,-3.881158352E0,1.006899738E1,2.756531715E0
2.206194189E1,-2.904886723E0,1.403869057E1,-1.998006940E0
2.207860856E1,1.146162033E0,1.913300896E1,-3.424129248E0
2.209527523E1,2.344966233E-1,1.324905872E1,4.809573591E-1
2.211194189E1,2.344966233E-1,1.324905872E1,4.809573591E-1
2.212860856E1,-6.843472719E-1,7.525427341E0,8.997012973E-1
2.214527522E1,-1.591227055E0,6.915257454E0,-6.508477330E-1
2.216194189E1,-1.316052437E0,8.327022552E0,-3.026920557E0
2.217860856E1,-1.797009826E0,8.446663857E0,-2.608176708E0
2.219527522E1,-3.170490026E0,7.625925541E0,3.163311481E0
2.221194189E1,-3.297309637E0,8.137989998E0,7.417750359E-1
2.222860855E1,-4.065405846E0,8.745766640E0,3.828516230E-2
2.224527522E1,-3.103491068E0,1.004028416E1,-4.067798331E-2
2.226194189E1,-2.715853691E0,9.568898201E0,3.349951655E-2
2.227860855E1,-2.533999205E0,7.305287361E0,8.303094506E-1
2.229527522E1,-1.923829436E0,6.288337708E0,1.488335729E0
2.231194188E1,-1.249053478E0,6.388836384E0,1.674975872E0
2.232860855E1,1.028913707E-1,7.838887215E0,1.258624673E0
2.234527522E1,4.689932466E-1,9.714859962E0,1.363908947E-1
2.236194188E1,5.718846321E-1,1.147358418E1,-1.698904037E-1
2.237860855E1,7.728816867E-1,1.282074356E1,1.124626622E-1
2.239527521E1,2.285145521E0,1.551027679E1,1.775474429E0
2.241194188E1,4.354937077E-1,1.597209072E1,2.057827413E-1
2.242860855E1,-6.029912829E-1,1.360319710E1,1.887937069E0
2.244527521E1,-1.962114573E-1,1.319402409E1,1.890329838E0
2.246194188E1,1.196411345E-2,1.373240948E1,1.852044702E0
2.247860854E1,2.821137905E0,1.595534134E1,3.663411379E0
2.249527521E1,6.788437843E0,1.441436386E1,7.453642368E0
2.251194188E1,6.345765591E0,1.415115356E1,8.750552177E0
2.252860854E1,2.201396942E0,1.310548973E1,4.467400074E0
2.254527521E1,3.565305769E-1,1.176072311E1,-4.618147850E0
2.256194187E1,-6.053841114E-1,1.272742367E1,8.518448472E-1
2.257860854E1,-1.052841991E-1,1.461057472E1,3.361915827E0
2.259527521E1,4.417150497E0,1.480439377E1,2.239681959E0
2.261194187E1,6.238088608E0,9.655039787E0,3.852444589E-1
2.262860854E1,3.364308596E0,9.037691116E0,-2.871387303E-1
2.264527520E1,1.060020447E0,9.274580956E0,2.823530734E-1
2.266194187E1,-8.111668825E-1,7.422535896E0,9.714859724E-1
2.267860854E1,2.512463629E-1,6.223731518E0,-2.239681959E0
2.269527520E1,6.652047038E-1,6.400800705E0,3.014956415E-1
2.271194187E1,1.196411345E-2,5.548955917E0,9.332008362E-1
2.272860853E1,-1.954936147E0,4.098905087E0,3.565305769E-1
2.274527520E1,-1.713261008E0,3.646661758E0,6.915257573E-1
2.276194187E1,-1.713261008E0,3.646661758E0,6.915257573E-1
2.277860853E1,-1.689332843E0,4.220939159E0,1.194018483E0
2.279527520E1,-1.768295884E0,1.998006940E0,7.848458290E-1
2.281194186E1,-2.873780012E0,-1.052841991E-1,1.033699393E0
2.282860853E1,-2.464607239E0,-8.015955687E-1,2.318645239E0
2.284527520E1,-2.282752752E0,7.896314561E-2,2.225325108E0
2.286194186E1,-2.665604353E0,1.801795483E0,2.151147604E0
2.287860853E1,-4.328616142E0,5.051248550E0,3.739981890E0
2.289527519E1,-3.376272678E0,7.465606689E0,2.529213428E0
2.291194186E1,-2.600998163E0,9.686145782E0,6.551548481E0
2.292860853E1,5.694918036E-1,1.723789406E1,-1.019342422E1
2.294527519E1,5.694918036E-1,1.723789406E1,-1.019342422E1
2.296194186E1,-1.012163997E0,2.617030144E1,4.168296814E0
2.297860852E1,-3.495913982E0,1.743649864E1,2.440679073E0
2.299527519E1,-2.648854733E0,1.021017456E1,4.077369690E0
2.301194186E1,-8.446664214E-1,6.269195557E0,-1.371087432E0
2.302860852E1,-7.178468257E-2,7.487142086E0,-3.582055569E0
2.304527519E1,6.053841114E-1,1.010728264E1,-1.316052437E0
2.306194185E1,7.609176040E-1,1.194018459E1,-1.263410330E0
2.307860852E1,1.220339537E-1,1.163629627E1,-6.771687865E-1
2.309527519E1,1.842473447E-1,1.088255692E1,-9.475577474E-1
2.311194185E1,6.388836503E-1,8.647661209E0,-6.556333899E-1
2.312860852E1,5.383850932E-1,7.262216568E0,9.403793216E-1
2.314527518E1,-4.713860750E-1,7.948956966E0,2.215753794E0
2.316194185E1,-1.263410330E0,8.087740898E0,3.493520916E-1
2.317860852E1,-2.297109842E0,7.757531166E0,-3.223132133E0
2.319527518E1,-7.058826685E-1,7.903493404E0,2.266003132E0
2.321194185E1,-1.808973908E0,8.238488197E0,4.689932466E-1
2.322860851E1,-2.091326952E0,8.513663292E0,-1.416550994E0
2.324527518E1,-1.947757602E0,8.324629784E0,1.189232826E0
2.326194185E1,-1.825723648E0,7.372286797E0,1.392622828E0
2.327860851E1,-6.628118753E-1,6.819544315E0,9.954141974E-1
2.329527518E1,1.124626622E-1,7.022934437E0,7.513462901E-1
2.331194184E1,1.603191137E0,8.059026718E0,9.571290575E-3
2.332860851E1,-7.704889178E-1,1.128455162E1,3.158525825E-1
2.334527518E1,-7.704889178E-1,1.128455162E1,3.158525825E-1
2.336194184E1,-1.749153376E0,1.578305817E1,-1.698904037E-1
2.337860851E1,-2.395215511E0,1.464168167E1,5.479564071E-1
2.339527517E1,-1.667797327E0,1.312702465E1,1.036092162E0
2.341194184E1,-1.667797327E0,1.312702465E1,1.036092162E0
2.342860851E1,9.786644578E-1,1.642433548E1,3.529413462E0
2.344527517E1,2.105684042E0,1.659183311E1,5.134997368E0
2.346194184E1,4.220939159E0,1.350030518E1,5.737988472E0
2.347860850E1,4.220939159E0,1.350030518E1,5.737988472E0
2.349527517E1,3.981656790E0,1.327538013E1,7.034898758E0
2.351194184E1,2.455035925E0,1.213639641E1,1.641476393E0
2.352860850E1,6.628118753E-1,1.169611740E1,-3.505485058E0
2.354527517E1,1.079162955E0,1.430190086E1,-5.216353536E-1
2.356194183E1,6.915257573E-1,1.526620865E1,-1.261017561E0
2.357860850E1,2.904886723E0,1.209811115E1,-1.942971945E0
2.359527517E1,1.639083505E0,1.080838013E1,1.557727575E0
2.361194183E1,-6.699903607E-1,1.166261768E1,5.072783828E-1
2.362860850E1,-3.725624800E0,9.741181374E0,5.592026711E0
2.364527516E1,-1.818545222E0,8.260024071E0,-7.633104324E-1
2.366194183E1,9.523434043E-1,7.283751965E0,-2.806781054E0
2.367860850E1,1.885544300E0,5.570491314E0,-4.689932466E-1
2.369527516E1,1.684547186E0,2.153540373E0,2.148754835E0
2.371194183E1,9.571290761E-2,1.964507341E0,6.699903309E-2
2.372860849E1,9.571290761E-2,1.964507341E0,6.699903309E-2
2.374527516E1,-8.063812256E-1,2.600998163E0,1.182054400E0
2.376194183E1,-3.199203968E0,2.414358139E0,1.969292998E0
2.377860849E1,-3.955335855E0,2.026720762E0,2.249253273E0
2.379527516E1,-3.955335855E0,2.026720762E0,2.249253273E0
2.381194182E1,-3.699303865E0,1.682154298E0,1.359123230E0
2.382860849E1,-3.888336897E0,1.275374413E0,-5.359922647E-1
2.384527516E1,-3.476771355E0,2.134397745E0,-1.354337573E0
2.386194182E1,-5.264210105E-1,2.498106956E0,3.285345554E0
2.387860849E1,1.390229940E0,3.608376503E0,5.223531723E0
2.389527515E1,3.797409534E0,1.138265705E1,-6.678368092E0
2.391194182E1,6.501298904E0,2.651008224E1,-1.183011532E1
2.392860849E1,6.577869415E0,2.959682274E1,-5.154139996E0
2.394527515E1,4.283152521E-1,2.752224541E1,3.441596985E1
2.396194182E1,-2.653640270E0,1.173679543E1,-3.804588079E0
2.397860848E1,-4.240081787E0,5.599205017E0,4.115654826E-1
2.399527515E1,2.352144718E0,7.302894592E0,-5.405386448E0
2.401194182E1,3.024527788E0,8.544769287E0,-3.225524902E0
2.402860848E1,1.490728498E0,1.057866859E1,5.383850932E-1
2.404527515E1,-7.537391186E-1,1.256471157E1,9.690931439E-1
2.404527515E1,-7.537391186E-1,1.256471157E1,9.690931439E-1
2.407860848E1,-1.586441398E0,1.147597694E1,-1.409372568E0
2.409527515E1,-2.376072884E0,8.039883614E0,-3.077169895E0
2.411194181E1,-2.421536446E0,5.694917679E0,-1.392622828E0
2.412860848E1,-1.272981644E0,6.226124287E0,3.014956415E-1
2.414527514E1,-8.207381964E-1,8.487341881E0,-5.312066078E-1
2.416194181E1,-5.359922647E-1,9.561718941E0,6.795616150E-1
2.417860848E1,-6.029912829E-1,9.461220741E0,5.383850932E-1
2.419527514E1,1.292124242E-1,9.573683739E0,2.297109663E-1
2.421194181E1,1.119840980E0,9.174081802E0,-2.392822653E-1
2.422860847E1,1.842473388E0,9.963713646E0,8.111668825E-1
2.424527514E1,9.188438654E-1,1.255035496E1,2.105684042E0
2.426194181E1,2.440679073E-1,1.343330669E1,3.522234917E0
2.427860847E1,-2.074577332E0,1.389751434E1,8.350951076E-1
2.429527514E1,-1.665404558E0,1.279442310E1,1.514656782E0
2.431194180E1,-7.154539824E-1,1.294517040E1,4.591826439E0
2.432860847E1,-1.746760458E-1,1.411047554E1,4.917250633E0
2.434527514E1,1.349551916E0,1.674736595E1,6.580262184E0
2.436194180E1,3.766302824E0,1.374198055E1,2.562713146E0
2.437860847E1,2.940778971E0,1.016949654E1,8.590233326E-1
2.439527513E1,2.589034081E0,9.987641335E0,2.416750908E0
2.441194180E1,2.725425005E0,1.278006554E1,2.943171740E0
2.442860847E1,4.029513359E0,1.584766483E1,-1.442872047E0
2.444527513E1,1.993221283E0,1.237807178E1,-5.675775528E0
2.446194180E1,-7.800601721E-1,1.320359516E1,-1.844866276E0
2.447860846E1,-5.532206059E0,1.088734341E1,1.185165024E1
2.449527513E1,2.344966233E-1,8.159524918E0,-4.993820667E0
2.451194180E1,2.763710260E0,9.509077072E0,-3.381058455E0
2.452860846E1,3.802195072E0,9.382257462E0,-4.019941986E-1
2.454527513E1,2.560320199E-1,6.367300987E0,1.478764415E0
2.456194179E1,-9.044869542E-1,5.455635548E0,5.048855543E-1
2.457860846E1,-2.359323025E0,4.319045067E0,8.279166222E-1
2.459527513E1,-2.435893536E0,2.275574446E0,7.848458290E-1
2.461194179E1,-2.854637384E0,9.284151793E-1,1.375872970E0
2.462860846E1,-3.632304668E0,1.330409408E0,1.579262972E0
2.464527512E1,-2.919243574E0,2.512463629E-1,9.595218897E-1
2.466194179E1,-2.711068153E0,-9.571290761E-2,-1.222732425E0
2.467860846E1,-2.981456995E0,4.618147612E-1,-2.548356056E0
2.469527512E1,-2.981456995E0,4.618147612E-1,-2.548356056E0
2.471194179E1,-6.963114142E-1,6.120840549E0,4.252045631E0
2.472860845E1,2.799602449E-1,8.518448830E0,1.715653777E0
2.474527512E1,2.790031195E0,1.884826469E1,-6.991827965E0
2.476194179E1,8.097311974E0,2.629951286E1,-4.395615101E0
2.477860845E1,6.592226505E0,2.628994179E1,1.575195122E1
2.479527512E1,1.258624673E0,1.324905872E1,-3.048455954E0
2.481194178E1,-3.101098061E0,7.523034573E0,5.615954876E0
2.482860845E1,-2.254039049E0,5.546562672E0,-1.660618901E0
2.484527512E1,1.402194023E0,7.044469833E0,-1.469193101E0
2.486194178E1,2.837887764E0,1.013599682E1,-2.682354212E0
2.487860845E1,3.852444589E-1,1.137547874E1,-4.354937077E-1
2.489527511E1,-2.277967215E0,1.053559780E1,-4.809573591E-1
2.491194178E1,-2.620140791E0,1.026999474E1,-1.378265858E0
2.492860845E1,-2.445464849E0,9.693324089E0,-1.454836130E0
2.494527511E1,-2.849851847E0,9.265008926E0,-5.623133183E-1
2.496194178E1,-4.713860750E-1,1.000199890E1,-1.758724689E0
2.497860844E1,-1.004985496E-1,9.973284721E0,-3.182454109E-1
2.499527511E1,-1.339980721E0,9.193224907E0,1.172483116E-1
2.501194178E1,-1.612762451E0,9.145368576E0,4.498506486E-1
2.502860844E1,7.848458290E-1,1.051167011E1,-1.770688742E-1
2.504527511E1,1.813759565E0,1.031306553E1,6.412764788E-1
2.506194177E1,3.732803345E0,1.073180962E1,1.304088354E0
2.507860844E1,2.065006018E0,1.108355427E1,-6.101697683E-1
2.509527511E1,-3.349951655E-2,1.280160141E1,2.402393818E0
2.511194177E1,-1.002592683E0,1.306002617E1,2.105684042E0
2.512860844E1,-1.117448211E0,1.252881908E1,1.986042857E-1
2.514527510E1,-7.130611539E-1,1.220100307E1,3.701696634E0
2.516194177E1,-2.057827413E-1,1.512742519E1,6.405586243E0
2.517860844E1,3.924229145E-1,1.654876137E1,6.776473522E0
2.519527510E1,8.638089895E-1,1.465125275E1,3.476771355E0
2.521194177E1,1.064806104E0,1.067916775E1,4.163511395E-1
2.522860843E1,1.064806104E0,1.067916775E1,4.163511395E-1
2.524527510E1,4.153940201E0,1.437607861E1,3.527020693E0
2.526194177E1,5.292923450E0,1.573998737E1,-6.747759581E-1
2.527860843E1,4.541577339E0,1.147119141E1,-6.556334019E0
2.529527510E1,-1.674975902E-1,1.423011589E1,2.170290232E0
2.531194176E1,-2.969492912E0,1.080598736E1,1.020778179E1
2.532860843E1,-4.091726840E-1,8.068597794E0,-4.776073933E0
2.534527510E1,1.490728498E0,8.700303078E0,-3.876372576E0
2.536194176E1,1.201196909E0,8.257631302E0,1.674975827E-2
2.537860843E1,-1.091127157E0,4.802394867E0,1.698904037E0
2.539527509E1,-6.029912829E-1,5.659025669E0,7.441678643E-1
2.541194176E1,-1.237089276E0,4.740181446E0,-1.339980662E-1
2.542860843E1,-1.564906001E0,3.668197155E0,-4.307080805E-2
2.544527509E1,-2.239681959E0,1.004985452E0,1.167697430E0
2.546194176E1,-2.770888567E0,7.226324677E-1,1.598405480E0
2.547860842E1,-3.792623997E0,8.183453679E-1,1.447657704E0
2.549527509E1,-4.697110653E0,6.532405615E-1,4.043870270E-1
2.551194176E1,-5.544169903E0,9.092726111E-1,-2.433500528E0
2.552860842E1,-1.768295884E0,2.232503414E0,4.067798331E-2
2.554527509E1,1.852044702E0,1.634297848E0,1.148554897E1
2.556194175E1,1.287338614E0,3.929014683E0,-2.062613010E0
2.557860842E1,3.842873096E0,1.614676666E1,-1.219143105E1
2.559527509E1,8.544769287E0,2.818266487E1,-1.243789196E1
2.561194175E1,1.787438512E0,2.768735123E1,1.452204037E1
2.562860842E1,-8.997012973E-1,1.648415565E1,-2.835494757E0
2.564527508E1,-2.699103832E0,7.386643410E0,3.043670416E0
2.566194175E1,-9.092725813E-2,4.565505505E0,-2.634497643E0
2.567860842E1,4.943571568E0,8.554341316E0,-2.536391973E0
2.569527508E1,3.797409534E0,9.879964828E0,-8.207381964E-1
2.571194175E1,1.196411327E-1,1.088016415E1,-1.000199914E0
2.572860841E1,-1.294517040E0,1.191864967E1,-4.929214716E-1
2.574527508E1,-1.385444283E0,1.086102200E1,-6.173482537E-1
2.576194175E1,-1.194018483E0,1.019342422E1,-1.557727575E0
2.577860841E1,-1.844866276E0,8.257631302E0,-1.665404558E0
2.579527508E1,-2.153540403E-1,7.628318787E0,4.498506486E-1
2.581194174E1,-2.153540403E-1,7.628318787E0,4.498506486E-1
2.582860841E1,-8.063812256E-1,8.898907661E0,1.189232826E0
2.584527508E1,-1.033699393E0,1.031067276E1,-1.028913736E0
2.586194174E1,4.067798555E-1,9.571290970E0,-7.776673436E-1
2.587860841E1,1.100698471E0,8.922835350E0,-2.560320199E-1
2.589527507E1,1.933400750E0,9.678967476E0,-2.009970993E-1
2.591194174E1,1.914258152E-1,1.196172047E1,-1.148554832E-1
2.592860841E1,-6.963114142E-1,1.348116302E1,1.050449133E0
2.594527507E1,-1.012163997E0,1.359123230E1,4.412364960E0
2.596194174E1,-8.470591903E-1,1.380180073E1,4.450650215E0
2.597860840E1,2.440679073E-1,1.376830196E1,8.327022791E-1
2.599527507E1,9.044869542E-1,1.383051491E1,3.345165968E0
2.601194174E1,1.016949654E0,1.404826164E1,4.591826439E0
2.602860840E1,2.495713949E0,1.362951756E1,4.965106964E0
2.604527507E1,4.541577339E0,1.441436386E1,4.756931305E0
2.606194173E1,3.610769272E0,1.341894913E1,2.373680115E0
2.607860840E1,3.031706333E0,1.351944828E1,3.158525944E0
2.609527507E1,2.208575249E0,1.528056526E1,3.445664644E-1
2.611194173E1,3.041277647E0,1.324905872E1,-4.520041943E0
2.612860840E1,4.685146809E0,8.635697365E0,-1.016949654E0
2.614527506E1,3.811766386E0,8.283951759E0,2.596212626E0
2.616194173E1,5.886343718E-1,9.279366493E0,5.180460930E0
2.617860840E1,1.674975902E-1,7.893921852E0,-2.091326952E0
2.619527506E1,2.392822653E-1,1.015992451E1,-3.402593851E0
2.621194173E1,-9.379864931E-1,1.026281643E1,5.048855543E-1
2.622860839E1,-1.129412293E0,8.614161491E0,1.337587833E0
2.624527506E1,-4.546363056E-1,7.022934437E0,-7.537391186E-1
2.626194173E1,-6.699903309E-2,4.711467743E0,9.571290575E-3
2.627860839E1,-7.010970116E-1,3.316452265E0,3.326023519E-1
2.629527506E1,-2.088934183E0,1.002592683E0,-6.628118753E-1
2.631194172E1,-2.876172781E0,1.339980662E-1,2.033899277E-1
2.632860839E1,-2.876172781E0,1.339980662E-1,2.033899277E-1
2.634527506E1,-4.809573650E0,-1.196411371E0,2.196611166E0
2.636194172E1,-5.379065514E0,-9.164510965E-1,1.758724689E0
2.637860839E1,-6.319444656E0,4.977070987E-1,-1.794616938E0
2.639527505E1,-3.804588079E0,3.242274761E0,-4.539184570E0
2.641194172E1,-3.129812002E0,2.682354212E0,2.945564747E0
2.642860839E1,1.954936147E0,2.598605394E0,1.195693493E1
2.644527505E1,1.954936147E0,2.598605394E0,1.195693493E1
2.646194172E1,6.905686378E0,2.922832870E1,-1.467757416E1
2.647860838E1,1.191386414E1,4.161357880E1,1.817588043E1
2.649527505E1,-5.982056856E-1,2.025524330E1,1.048056364E0
2.651194172E1,-2.646461725E0,7.482356548E0,2.261217356E0
2.652860838E1,-2.017149448E0,-6.197410822E-1,-3.661018610E-1
2.654527505E1,1.696511269E0,2.318645239E0,-7.034898758E0
2.656194171E1,5.891129494E0,1.071745300E1,-3.756731510E0
2.657860838E1,3.627519131E0,1.374437332E1,1.318445325E0
2.659527505E1,1.146162033E0,1.488096428E1,-2.727817893E-1
2.661194171E1,-2.947957516E0,1.367258835E1,3.900300860E-1
2.662860838E1,-1.823330879E0,1.079880905E1,-9.690931439E-1
2.664527504E1,9.092725813E-2,9.738788605E0,-1.414158225E0
2.666194171E1,-7.800601721E-1,8.930013657E0,3.158525825E-1
2.667860838E1,-2.285145521E0,6.546762943E0,-1.105484009E0
2.669527504E1,-9.475577474E-1,7.288537979E0,1.579262912E-1
2.671194171E1,-9.475577474E-1,7.288537979E0,1.579262912E-1
2.672860837E1,-2.105684042E0,9.422935486E0,-1.060020447E0
2.674527504E1,-2.366501570E0,8.446663857E0,4.833501875E-1
2.676194171E1,1.842473447E-1,7.173682213E0,-5.958128572E-1
2.677860837E1,1.651047587E0,5.702096462E0,-6.891329288E-1
2.679527504E1,2.203789711E0,5.754738331E0,-1.550549030E0
2.681194170E1,2.555534601E0,6.563512325E0,-8.159525394E-1
2.682860837E1,1.191625714E0,7.958528042E0,-8.973084688E-1
2.684527504E1,1.488335729E0,1.053081226E1,-1.076770186E0
2.686194170E1,1.986042738E0,1.124387360E1,-1.316052437E0
2.687860837E1,2.483749866E0,1.091127110E1,-3.326023519E-1
2.689527503E1,1.581655741E0,1.276331615E1,1.395015597E0
2.691194170E1,-2.488535494E-1,1.407936859E1,7.513462901E-1
2.692860837E1,-9.930213690E-1,1.367498112E1,1.751546144E0
2.694527503E1,-2.249253243E-1,1.115773201E1,4.395615101E0
2.696194170E1,-4.857429862E-1,8.451449394E0,3.113062143E0
2.697860836E1,-4.857429862E-1,8.451449394E0,3.113062143E0
2.699527503E1,-2.005185366E0,1.152622700E1,2.242074728E0
2.701194170E1,1.153340459E0,1.476371574E1,2.225325108E-1
2.702860836E1,7.345965505E-1,1.726421547E1,2.376072884E0
2.704527503E1,-6.987041831E-1,1.116969585E1,-9.355936646E-1
2.706194169E1,7.417750359E-2,1.038485050E1,-2.368894368E-1
2.707860836E1,4.084548473E0,1.257188988E1,1.603191137E0
2.709527503E1,8.831908226E0,1.624008751E1,2.222932339E0
2.711194169E1,8.831908226E0,1.624008751E1,2.222932339E0
2.712860836E1,8.504091263E0,1.530927944E1,1.552941918E0
2.714527502E1,9.518648148E0,1.546959877E1,1.208854008E1
2.716194169E1,4.950749874E0,1.127498055E1,-3.689732552E0
2.717860836E1,4.950749874E0,1.127498055E1,-3.689732552E0
2.719527502E1,6.917650223E0,9.430113792E0,7.601997375E0
2.721194169E1,4.900500774E0,1.012881851E1,1.213161111E0
2.722860835E1,1.555334777E-1,7.609176159E0,-1.397408366E0
2.724527502E1,-1.670190215E0,7.326822758E0,-2.117648125E0
2.726194169E1,-2.866601467E0,6.257231236E0,-7.178468108E-1
2.727860835E1,5.503492355E-1,5.984449387E0,-1.658226132E0
2.729527502E1,-1.942971945E0,4.539184570E0,2.225325108E-1
2.731194168E1,-1.091127157E0,3.644268990E0,-1.550549030E0
2.732860835E1,1.253839016E0,2.897708178E0,-2.033899307E0
2.734527502E1,2.567498684E0,2.462214470E0,-2.189432621E0
2.736194168E1,2.567498684E0,2.462214470E0,-2.189432621E0
2.737860835E1,1.380658627E0,1.220339537E-1,-1.002592683E0
2.739527501E1,-1.383051515E0,-1.198804140E0,1.117448211E0
2.741194168E1,-4.290330887E0,-1.966900229E0,2.163111687E0
2.742860835E1,-6.936792850E0,-1.208375454E0,5.012963295E0
2.744527501E1,-6.618547440E0,1.354337573E0,4.766502857E0
2.746194168E1,-4.409972191E0,8.882157326E0,-7.848458290E-1
2.747860834E1,-2.220539331E0,1.910668945E1,-1.034656525E1
2.749527501E1,-5.173282623E0,2.344487572E1,1.952543259E0
2.751194168E1,-5.656632900E0,2.353341103E1,2.814677238E1
2.752860834E1,3.878765583E0,2.626601410E1,-1.085623646E1
2.754527501E1,-1.028913707E-1,1.952782631E1,1.940579224E1
2.756194167E1,-1.028913707E-1,1.952782631E1,1.940579224E1
2.757860834E1,8.573483467E0,3.756731451E-1,-1.952543259E1
2.759527501E1,8.322237015E0,4.510470867E0,4.275974274E0
2.761194167E1,4.515256405E0,1.178943729E1,-4.101297855E0
2.762860834E1,4.515256405E0,1.178943729E1,-4.101297855E0
2.764527500E1,2.084148407E0,1.266042423E1,6.460621357E-1
2.766194167E1,-1.220339537E0,1.215793228E1,4.960321426E0
2.767860834E1,-2.182254314E0,1.005224800E1,2.615355253E0
2.769527500E1,-2.182254314E0,1.005224800E1,2.615355253E0
2.771194167E1,-9.475577474E-1,7.704888821E0,-3.854837179E0
2.772860833E1,-7.489534616E-1,6.044270039E0,-5.254638672E0
2.774527500E1,-7.226324677E-1,4.998606682E0,-4.328616142E0
2.776194167E1,-1.938186288E-1,5.860022545E0,-2.799602509E0
2.777860833E1,-1.555334777E-1,6.989434719E0,-3.474378586E0
2.779527500E1,-8.925228715E-1,8.729017258E0,-2.857030153E0
2.781194166E1,-1.335195065E0,1.000917721E1,-8.590233326E-1
2.782860833E1,-1.234696507E0,1.042313576E1,1.435693651E-1
2.784527500E1,-1.232303619E0,1.075573826E1,5.067998409E0
2.786194166E1,-4.307080805E-1,8.764909744E0,6.384050846E0
2.787860833E1,-1.050449133E0,9.860821724E0,-3.402593851E0
2.789527499E1,-1.351944804E0,1.032742214E1,4.405186653E0
2.791194166E1,-2.033899307E0,1.061934662E1,8.446664214E-1
2.792860833E1,-9.714859724E-1,1.139222908E1,-3.438486099E0
2.794527499E1,-5.481956482E0,1.103330517E1,4.347758770E0
2.796194166E1,-4.110869408E0,1.240439224E1,1.502692580E0
2.797860832E1,-2.589034081E0,1.299302673E1,1.660618901E0
2.799527499E1,-2.404786825E0,1.184207916E1,8.063812256E-1
2.801194166E1,-2.404786825E0,1.184207916E1,8.063812256E-1
2.802860832E1,2.512463629E-1,1.220578861E1,6.082555294E0
2.804527499E1,7.398607731E0,1.626401520E1,5.335994720E0
2.806194165E1,7.709674358E0,1.962353897E1,2.742174864E0
2.807860832E1,7.709674358E0,1.962353897E1,2.742174864E0
2.809527499E1,-1.337587833E0,1.506281853E1,-5.804987907E0
2.811194165E1,1.586441398E0,2.514377975E1,4.780859470E0
2.812860832E1,1.141376376E0,2.802234650E1,9.001798630E0
2.814527498E1,1.866401672E0,1.620658684E1,1.564906001E0
2.816194165E1,1.095912814E0,1.354098320E1,-8.685946465E-1
2.817860832E1,9.858429432E-1,9.530612946E0,4.881358147E-1
2.819527498E1,1.593619823E0,7.819744587E0,3.091526747E0
2.821194165E1,2.883351326E0,5.525027275E0,-1.244267821E0
2.822860831E1,2.969492912E0,5.297709465E0,-4.563112736E0
2.824527498E1,1.287338614E0,5.259424210E0,-1.883151412E0
2.826194165E1,-1.122233868E0,7.515855789E0,1.275374413E0
2.827860831E1,-8.925228715E-1,3.596412420E0,1.698904037E0
2.829527498E1,-7.058826685E-1,8.949156404E-1,2.443071842E0
2.831194164E1,-2.641676188E0,-3.208775282E0,1.505085468E0
2.832860831E1,-2.641676188E0,-3.208775282E0,1.505085468E0
2.834527498E1,-6.778866768E0,-1.067198873E0,2.816352367E0
2.836194164E1,-6.436692715E0,-7.992027402E-1,4.077369690E0
2.837860831E1,-5.082355499E0,-6.388836503E-1,4.622933388E0
2.839527497E1,-2.110469580E0,9.020941257E-1,1.356730461E0
2.841194164E1,-8.662018180E-1,9.284151793E-1,4.476971149E0
2.842860831E1,3.749552965E0,2.799602509E0,3.342773199E0
2.844527497E1,4.376472473E0,9.949356079E0,-6.199803352E0
2.846194164E1,9.054440498E0,2.734278488E1,-1.147597694E1
2.847860830E1,1.198564816E1,3.649772263E1,-1.467039585E1
2.849527497E1,3.251846075E0,3.014956474E1,-4.383651257E0
2.851194164E1,-3.084348440E0,1.399561977E1,1.070788097E1
2.852860830E1,-2.469393015E0,6.128018856E0,-2.129612207E0
2.854527497E1,-2.584248543E0,3.728017569E0,6.108876228E0
2.856194163E1,4.134797573E0,8.640482903E0,-6.314659119E0
2.857860830E1,3.582055569E0,1.158126163E1,-6.084948063E0
2.859527497E1,-2.163111687E0,1.143529987E1,6.843472719E-1
2.861194163E1,-3.840480328E0,1.271545982E1,-8.111668825E-1
2.862860830E1,-2.964707375E0,1.251206970E1,-1.591227055E0
2.864527496E1,-9.332008362E-1,1.015753174E1,-1.036092162E0
2.866194163E1,-2.309073925E0,7.238288403E0,-2.388036966E0
2.867860830E1,-2.861815929E0,6.010770321E0,-3.397808075E0
2.869527496E1,-2.701496840E0,5.233103275E0,1.411765367E-1
2.871194163E1,-1.682154298E0,7.369893551E0,5.694918036E-1
2.872860829E1,-1.682154298E0,7.369893551E0,5.694918036E-1
2.874527496E1,-1.306481123E0,8.700303078E0,-8.853443712E-2
2.876194163E1,-6.675975323E-1,7.566105366E0,1.837687731E0
2.877860829E1,-1.914258152E-1,7.338787079E0,9.882357717E-1
2.879527496E1,-1.914258152E-1,7.338787079E0,9.882357717E-1
2.881194162E1,2.067398787E0,1.103091240E1,-1.646261930E0
2.882860829E1,2.081755698E-1,1.385204983E1,5.694918036E-1
2.884527496E1,-1.253839016E0,1.515374565E1,-2.392822690E-2
2.886194162E1,-9.236295223E-1,1.542892075E1,1.799402595E0
2.887860829E1,-5.694918036E-1,1.540738487E1,3.122633457E0
2.889527495E1,-6.412764788E-1,1.369412422E1,4.036691666E0
2.891194162E1,-4.666004181E-1,1.358405399E1,2.883351326E0
2.892860829E1,3.007778168E0,1.465125275E1,4.445864677E0
2.894527495E1,4.364508629E0,1.439761353E1,5.032105923E0
2.896194162E1,5.328815937E0,1.566102409E1,6.360122681E0
2.897860828E1,5.328815937E0,1.566102409E1,6.360122681E0
2.899527495E1,7.178468257E-2,1.133001518E1,-3.333201885E0
2.901194162E1,-2.919243574E-1,1.177747345E1,-2.541177750E0
2.902860828E1,-1.531406522E0,1.371805191E1,2.189432621E0
2.904527495E1,3.838087559E0,1.204068375E1,1.600798368E0
2.906194161E1,5.139782906E0,1.051884842E1,-1.861616015E0
2.907860828E1,4.151547432E0,1.076052380E1,-1.631905079E0
2.909527495E1,-1.198804140E0,9.564111710E0,1.612762451E0
2.911194161E1,-9.595218897E-1,8.484949112E0,-1.036092162E0
2.912860828E1,-7.250252366E-1,8.898907661E0,-1.507478207E-1
2.914527494E1,3.469592929E-1,8.207381248E0,1.473978758E0
2.916194161E1,-4.019941986E-1,6.539584160E0,-4.833501875E-1
2.917860828E1,-5.455635786E-1,5.010570526E0,-3.349951804E-1
2.919527494E1,-1.110269666E0,4.962714195E0,6.125625968E-1
2.921194161E1,-2.423929453E0,5.659025669E0,1.538584948E0
2.922860827E1,-3.682554007E0,3.622733593E0,1.244267747E-1
2.924527494E1,-3.931407690E0,1.971685886E0,-6.460621208E-2
2.926194161E1,-3.806980848E0,4.785645306E-1,4.091726840E-1
2.927860827E1,-3.201596737E0,-2.627319336E0,1.399801254E0
2.929527494E1,-2.187039852E0,-2.912065268E0,1.782652855E0
2.931194160E1,-2.187039852E0,-2.912065268E0,1.782652855E0
2.932860827E1,-3.766302824E0,1.450050473E0,7.369893789E-1
2.934527494E1,-5.431707501E-1,4.682754040E0,7.288537979E0
2.936194160E1,1.875972986E0,9.542576790E0,-6.300302029E0
2.937860827E1,4.170690060E0,2.748635292E1,-1.271545982E1
2.939527493E1,6.568298340E0,3.306880951E1,-1.065284634E1
2.941194160E1,1.507478237E0,2.589034081E1,1.746760458E-1
2.942860827E1,-3.854837179E0,1.110509014E1,1.895115495E0
2.944527493E1,-4.938786030E0,6.271588326E0,8.470591903E-1
2.946194160E1,-3.826123476E0,5.015356064E0,-2.665604353E0
2.947860826E1,7.417750359E-1,7.566105366E0,-1.316052437E0
2.949527493E1,2.883351326E0,1.056191921E1,-1.804188251E0
2.951194160E1,-8.374879509E-2,1.083470058E1,-3.062812984E-1
2.952860826E1,-1.014556766E0,1.159083271E1,1.179661512E0
2.954527493E1,-1.730010748E0,1.109551907E1,3.732803464E-1
2.956194159E1,-8.327022791E-1,9.262616158E0,-3.565305769E-1
2.957860826E1,4.307080805E-2,7.448856831E0,-1.184447169E0
2.959527493E1,-2.392822690E-2,6.776473522E0,-1.339980721E0
2.961194159E1,5.024927482E-2,6.711867332E0,2.658426046E0
2.962860826E1,5.144568682E-1,9.061619759E0,-4.378865361E-1
2.964527492E1,8.757730722E-1,1.015035343E1,2.775674164E-1
2.966194159E1,-9.619147182E-1,9.932606697E0,-6.675975323E-1
2.967860826E1,-2.438286304E0,8.827122688E0,3.349951804E-1
2.969527492E1,-1.938186288E0,7.549355507E0,7.537391186E-1
2.971194159E1,-1.524227977E0,7.070790768E0,2.321037948E-1
2.972860825E1,2.725425005E0,9.293723106E0,-1.043270707E0
2.974527492E1,-1.160519004E0,1.112183952E1,-2.847459018E-1
2.976194159E1,-8.422735929E-1,1.442632771E1,9.858429432E-1
2.977860825E1,-5.264210105E-1,1.531167221E1,1.229910851E0
2.979527492E1,1.962114573E-1,1.441675663E1,2.560320139E0
2.981194158E1,1.182054400E0,1.386640739E1,2.165504456E0
2.982860825E1,1.916650891E0,1.402433395E1,2.012363911E0
2.984527492E1,1.490728498E0,1.336391449E1,2.378465652E0
2.986194158E1,1.514656782E0,1.306481171E1,2.225325108E0
2.987860825E1,5.187639713E0,1.414875984E1,6.104090691E0
2.989527491E1,6.211767673E0,1.545763397E1,8.614161491E0
2.991194158E1,3.620340586E0,1.376590824E1,5.871986866E0
2.992860825E1,-1.060020447E0,8.657232285E0,-6.333801746E0
2.994527491E1,-1.533799291E0,1.052602673E1,-3.974478483E0
2.996194158E1,-1.464407444E0,1.244028473E1,9.128618240E0
2.997860824E1,1.110269666E0,1.450050545E1,5.991627693E0
2.999527491E1,3.483949661E0,1.350509071E1,3.876372576E0
3.001194158E1,4.666004181E-1,1.192343521E1,-3.929014683E0
3.002860824E1,1.227517962E0,9.408578873E0,3.797409534E0
3.004527491E1,1.883151412E0,9.200403214E0,-2.641676188E0
3.006194157E1,2.488535643E0,9.006584167E0,-1.739582062E0
3.007860824E1,1.466800332E0,7.948956966E0,1.406979680E0
3.009527491E1,1.466800332E0,7.948956966E0,1.406979680E0
3.011194157E1,-3.507878065E0,4.575077057E0,-1.674975827E-2
3.012860824E1,-3.574877024E0,4.118047714E0,6.939185858E-1
3.014527490E1,-1.701296926E0,2.021935225E0,9.427721500E-1
3.016194157E1,-1.701296926E0,2.021935225E0,9.427721500E-1
3.017860824E1,-9.451649189E-1,1.674975902E-1,2.392822690E-2
3.019527490E1,-3.165704250E0,-2.512463629E-1,5.766702294E-1
3.021194157E1,-3.716053486E0,4.091726840E-1,1.342373490E0
3.022860823E1,-3.716053486E0,4.091726840E-1,1.342373490E0
3.024527490E1,-3.488735437E0,2.488535643E0,-3.218346357E0
3.026194157E1,-1.318445325E0,3.735196114E0,2.411965132E0
3.027860823E1,4.761717021E-1,5.958128452E0,-3.488735437E0
3.029527490E1,2.316252232E0,1.166740322E1,-1.031306553E1
3.031194156E1,5.302495003E0,2.834777069E1,-1.331127262E1
3.032860823E1,3.804588079E0,3.852444458E1,3.048934555E1
3.034527490E1,-2.512463808E0,1.324188042E1,4.575077057E0
3.036194156E1,-3.055634499E0,5.974878311E0,4.010370731E0
3.037860823E1,8.853443712E-2,1.794616938E0,-3.371487141E0
3.039527489E1,2.560320139E0,6.242874146E0,-3.567698479E0
3.041194156E1,4.192225456E0,8.815158844E0,3.560520172E0
3.042860823E1,4.067798615E0,1.081316566E1,2.983849764E0
3.044527489E1,1.098305583E0,1.244507027E1,-5.407779217E-1
3.046194156E1,-1.866401672E0,9.690931320E0,1.603191197E-1
3.047860822E1,-2.222932339E0,7.683353424E0,-2.390429735E0
3.049527489E1,-2.763710260E0,6.702296257E0,-2.675175667E0
3.051194156E1,-4.036691666E0,6.429514408E0,3.268595695E0
3.052860822E1,-2.053041935E0,9.997213364E0,-1.808973908E0
3.054527489E1,-1.153340459E0,1.130608654E1,-1.100698411E-1
3.056194155E1,-2.033899307E0,1.032024384E1,1.239482164E0
3.057860822E1,-9.451649189E-1,8.650053978E0,2.033899307E0
3.059527489E1,1.564906001E0,8.374878883E0,1.713261008E0
3.061194155E1,3.007778168E0,1.129890823E1,-1.052841991E-1
3.062860822E1,2.885744095E0,1.219621658E1,-2.392822653E-1
3.064527488E1,1.983649969E0,1.190429306E1,6.771687865E-1
3.066194155E1,1.878365755E0,1.116012478E1,-8.159525394E-1
3.067860822E1,2.392822644E-3,1.303131199E1,-7.250252366E-1
3.069527488E1,1.292124242E-1,1.333998585E1,8.255237937E-1
3.071194155E1,3.182454109E-1,1.287817192E1,8.925228715E-1
3.072860821E1,1.272981644E0,1.349551964E1,2.811566591E0
3.074527488E1,3.400201082E0,1.631665802E1,7.735995770E0
3.076194155E1,4.926821709E0,1.609651756E1,9.820143700E0
3.077860821E1,3.634697676E0,1.488814259E1,9.205188751E0
3.079527488E1,1.794617027E-1,1.038006496E1,2.031506538E0
3.081194154E1,-8.614161611E-2,1.038724327E1,-7.202396393E-1
3.082860821E1,-2.057827413E-1,1.229671574E1,9.020941257E-1
3.084527488E1,2.024327993E0,1.493121338E1,-1.612762451E0
3.086194154E1,4.438685894E0,1.278006554E1,-3.637090325E-1
3.087860821E1,5.233103275E0,1.163151073E1,3.615555048E0
3.089527487E1,4.575077057E0,1.228235817E1,7.824530005E-1
3.091194154E1,8.614161611E-2,1.037288570E1,8.626125336E0
3.092860821E1,1.026520967E0,7.654639721E0,-6.568298340E0
3.094527487E1,6.987041831E-1,6.946363926E0,-3.931407690E0
3.096194154E1,-4.187439680E-1,6.015556335E0,3.704089403E0
3.097860820E1,-1.308874011E0,7.209574699E0,2.005185366E0
3.099527487E1,-2.864208698E0,6.118447304E0,-8.638089895E-1
3.101194154E1,-3.022135019E0,5.936593056E0,-1.196411327E-1
3.102860820E1,-1.148554921E0,4.522434711E0,1.201196909E0
3.104527487E1,-7.657032609E-1,1.993221283E0,1.050449133E0
3.106194153E1,-1.895115495E0,-4.067798331E-2,1.844866276E0
3.107860820E1,-2.297109842E0,-1.222732425E0,1.548156261E0
3.109527487E1,-2.868994236E0,-1.411765337E0,1.036092162E0
3.111194153E1,-3.838087559E0,4.402793646E-1,-1.617548108E0
3.112860820E1,-3.548556089E0,1.524227977E0,-2.749353170E0
3.114527486E1,-2.553141832E0,1.629512191E0,8.662018180E-1
3.116194153E1,8.638089895E-1,1.718046665E0,2.107598114E1
3.117860820E1,3.050848961E0,1.414158154E1,-1.552941895E1
3.119527486E1,3.050848961E0,1.414158154E1,-1.552941895E1
3.121194153E1,8.707481384E0,3.657429504E1,-1.524227977E0
3.122860819E1,8.039883971E-1,2.167658043E1,-6.388836384E0
3.124527486E1,-4.335794449E0,6.364908218E0,8.248059273E0
3.126194153E1,-4.335794449E0,6.364908218E0,8.248059273E0
3.127860819E1,1.816152334E0,3.802195072E0,-6.470192432E0
3.129527486E1,3.991228104E0,7.676175117E0,4.857429862E-1
3.131194152E1,2.749353170E0,1.049252701E1,-2.273181528E-1
3.132860819E1,2.749353170E0,1.049252701E1,-2.273181528E-1
3.134527486E1,-8.327022791E-1,1.076291656E1,5.910272002E-1
3.136194152E1,-1.493121386E0,9.688538551E0,2.919243574E-1
3.137860819E1,-7.513462901E-1,8.405985832E0,-1.478764415E0
3.139527485E1,-1.935793519E0,6.640082836E0,1.459621787E-1
3.141194152E1,-2.385644197E0,5.867201328E0,3.261417150E0
3.142860819E1,-1.471585870E0,8.480163574E0,4.019941986E-1
3.144527485E1,2.368894368E-1,1.160997581E1,-6.053841114E-1
3.146194152E1,1.619940877E0,1.209811115E1,1.282552958E0
3.147860818E1,-3.948157430E-1,9.954142570E0,5.575276613E-1
3.149527485E1,-1.134197950E0,8.398807526E0,2.797209740E0
3.151194152E1,6.675975323E-1,8.819944382E0,1.808973908E0
3.152860818E1,2.282752752E0,9.578469276E0,1.220339537E0
3.154527485E1,2.723032236E0,1.033699417E1,-1.337587833E0
3.156194151E1,-2.105683982E-1,1.105723381E1,-1.213161111E0
3.157860818E1,-1.789831281E0,1.386401463E1,-1.339980662E-1
3.159527485E1,-1.849651933E0,1.479721546E1,4.546362907E-2
3.161194151E1,-1.308874011E0,1.439043522E1,2.773281336E0
3.162860818E1,-4.067798555E-1,1.310309696E1,2.761317253E0
3.164527484E1,4.426721931E-1,1.476132298E1,4.878965378E0
3.166194151E1,1.174875975E0,1.650808334E1,7.080362320E0
3.167860818E1,6.080162525E0,1.587637806E1,7.034898758E0
3.169527484E1,4.539184570E0,1.327538013E1,6.218945980E0
3.171194151E1,2.541177750E0,1.032263660E1,4.565505505E0
3.172860817E1,2.165504456E0,9.717252731E0,1.076770201E-1
3.174527484E1,2.691925526E0,1.164826107E1,-4.924428940E0
3.176194151E1,2.691925526E0,1.164826107E1,-4.924428940E0
3.177860817E1,1.572084427E0,1.323948765E1,1.574477315E0
3.179527484E1,-3.876372576E-1,1.274417305E1,6.333801746E0
3.181194150E1,-3.651447296E0,1.240678501E1,6.723831892E-1
3.182860817E1,-4.036691666E0,9.710074425E0,5.051248550E0
3.184527484E1,5.886343718E-1,1.013838959E1,-2.014756680E0
3.186194150E1,2.476571321E0,9.176474571E0,-4.510470867E0
3.187860817E1,3.680161238E0,7.496713161E0,-2.043470621E0
3.189527483E1,3.349951804E-1,3.773481369E0,3.792623997E0
3.191194150E1,-2.455035925E0,3.862015724E0,1.478764415E0
3.192860817E1,-2.656033039E0,3.830909014E0,1.256231904E0
3.194527483E1,-2.330609322E0,2.981456995E0,8.422735929E-1
3.196194150E1,-2.498106956E0,1.643869162E0,5.670989752E-1
3.197860816E1,-2.498106956E0,1.643869162E0,5.670989752E-1
3.199527483E1,-2.294716835E0,1.406979680E0,7.106683254E-1
3.201194150E1,-2.273181438E0,1.818545222E0,1.265803218E0
3.202860816E1,-3.991228104E0,2.134397745E0,-2.632105052E-1
3.204527483E1,-4.173082829E0,3.213560820E0,-4.283152580E0
3.206194149E1,-2.651247501E0,3.273381472E0,-3.862015724E0
3.207860816E1,-2.167897224E0,1.770688772E0,7.111468792E0
3.209527483E1,-2.167897224E0,1.770688772E0,7.111468792E0
3.211194149E1,2.531606436E0,1.213400364E1,-1.202393341E1
3.212860816E1,7.472784996E0,3.175754166E1,-1.710628891E1
3.214527482E1,1.926222205E0,3.819902039E1,3.868954849E1
3.216194149E1,-3.503092289E0,1.116730309E1,5.484349728E0
3.217860816E1,-2.945564747E0,2.801995277E0,5.556134224E0
3.219527482E1,2.249253273E0,1.105484009E0,-5.266602516E0
3.221194149E1,4.208974838E0,6.642475605E0,-5.331208706E0
3.222860815E1,3.598805189E0,9.444471359E0,1.215553880E0
3.224527482E1,2.502892494E0,1.146640587E1,2.562713146E0
3.226194149E1,-2.239681959E0,1.294038486E1,5.742774159E-2
3.227860815E1,-3.297309637E0,1.168175983E1,1.505085468E0
3.229527482E1,-2.254039049E0,9.008976936E0,-4.548755646E0
3.231194148E1,-2.007578135E0,7.422535896E0,-5.233103275E0
3.232860815E1,-1.643869162E0,5.285745144E0,-1.706082582E0
3.234527482E1,9.810572863E-1,8.812766075E0,4.022335052E0
3.236194148E1,-1.222732425E0,1.134437180E1,5.479564071E-1
3.237860815E1,-8.446664214E-1,1.180618668E1,2.273181528E-1
3.239527481E1,2.395215511E0,1.062652493E1,-1.483550072E-1
3.241194148E1,6.771687865E-1,9.298508644E0,-5.000999570E-1
3.242860815E1,8.087740541E-1,8.738588333E0,-5.982056633E-2
3.244527481E1,1.519442320E0,9.822537422E0,-1.849651933E0
3.246194148E1,1.433300734E0,1.094955635E1,-1.895115495E0
3.247860814E1,2.967100143E-1,1.154776192E1,4.546363056E-1
3.249527481E1,-7.609176040E-1,1.268674564E1,1.978864312E0
3.251194148E1,-1.261017561E0,1.251206970E1,1.804188251E0
3.252860814E1,-8.446664214E-1,1.178225899E1,2.871387079E-2
3.254527481E1,-8.446664214E-1,1.178225899E1,2.871387079E-2
3.256194147E1,1.478764415E0,1.348834133E1,3.058027267E0
3.257860814E1,2.127219439E0,1.435932827E1,4.620540619E0
3.259527481E1,4.603790760E0,1.613241005E1,7.829315662E0
3.261194147E1,1.763510346E0,1.370608807E1,5.257031441E0
3.262860814E1,5.934200287E-1,1.063609695E1,-1.103091240E0
3.264527480E1,7.274180651E-1,1.093280697E1,-2.823530734E-1
3.266194147E1,4.618147612E-1,1.275374508E1,1.385444283E0
3.267860814E1,2.641676188E0,1.456750393E1,1.244267747E-1
3.269527480E1,4.457828522E0,1.524228001E1,4.570291340E-1
3.271194147E1,6.357729912E0,1.242114258E1,4.015156269E0
3.272860813E1,1.887937069E0,1.001874828E1,1.282552958E0
3.274527480E1,-4.785645381E-2,9.607182503E0,2.909672260E0
3.276194147E1,-3.565305769E-1,8.894122124E0,-7.058826685E-1
3.277860813E1,2.632105052E-1,8.207381248E0,-2.151147604E0
3.279527480E1,-7.393822074E-1,7.590033531E0,1.674975872E0
3.281194146E1,-2.526820660E0,7.190432072E0,2.249253243E-1
3.282860813E1,-2.713460922E0,6.515655994E0,-1.459621787E-1
3.284527480E1,-2.115255117E0,6.151947021E0,4.426721931E-1
3.286194146E1,-1.081555843E0,3.431307554E0,2.751746178E-1
3.287860813E1,-1.081555843E0,3.431307554E0,2.751746178E-1
3.289527479E1,-7.561319470E-1,5.335994363E-1,0.000000000E0
3.291194146E1,-8.877372146E-1,-8.183453679E-1,7.058826685E-1
3.292860813E1,-3.340380430E0,-3.397808075E-1,2.801995277E0
3.294527479E1,-5.685346603E0,-1.866401732E-1,2.246860504E0
3.296194146E1,-6.896114826E0,5.264210105E-1,1.213161111E0
3.297860812E1,-7.771887779E0,2.419143677E0,-4.204189301E0
3.299527479E1,-3.287738323E0,3.756731510E0,-4.163511395E-1
3.301194146E1,-2.871387079E-2,2.974278450E0,9.827322960E0
3.302860812E1,1.988435626E0,3.136990547E0,9.592825890E0
3.304527479E1,4.553541660E0,1.558445358E1,-1.187318611E1
3.306194145E1,1.395254898E1,3.679443359E1,-1.460818195E1
3.307860812E1,1.052842021E0,3.075734138E1,7.901100159E0
3.309527479E1,-3.773481369E0,1.786002731E1,3.022135019E0
3.311194145E1,-2.646461725E0,5.352744102E0,7.537391186E-1
3.312860812E1,-3.086741269E-1,-1.100698411E-1,-6.460621357E-1
3.314527478E1,4.790431023E0,5.709274769E0,-6.814758778E0
3.316194145E1,6.049055576E0,8.425128937E0,-4.127619267E0
3.317860812E1,4.675575256E0,1.277049446E1,6.317051649E-1
3.319527478E1,-2.017149448E0,1.441914940E1,7.082754970E-1
3.321194145E1,-2.017149448E0,1.441914940E1,7.082754970E-1
3.322860811E1,-2.103291035E0,9.444471359E0,-4.211367965E-1
3.324527478E1,-8.087740541E-1,6.465406895E0,-6.747759581E-1
3.326194145E1,-1.148554921E0,5.266602516E0,-8.614161611E-2
3.327860811E1,-1.457229018E0,5.630311489E0,-1.268195987E0
3.329527478E1,-8.518448472E-1,6.733402729E0,-2.526820660E0
3.331194144E1,6.939185411E-2,8.403593063E0,2.273181528E-1
3.332860811E1,-3.203989506E0,8.169096947E0,-6.364908218E-1
3.334527478E1,-3.235096216E0,8.157132149E0,-2.344966233E-1
3.336194144E1,-1.284945726E0,6.932007313E0,6.963114142E-1
3.337860811E1,1.263410330E0,6.867401123E0,5.838487148E-1
3.339527477E1,2.189432621E0,7.456035137E0,1.622333765E0
3.341194144E1,2.428714991E0,7.972885132E0,1.770688772E0
3.342860811E1,5.575276852E0,1.013121128E1,-3.043670416E0
3.344527477E1,1.526620865E0,1.219621658E1,-1.395015597E0
3.346194144E1,3.972085476E0,1.097109222E1,-2.904886723E0
3.347860810E1,2.199003935E0,1.116251755E1,-5.814558864E-1
3.349527477E1,-4.331009090E-1,1.684547234E1,3.505485058E0
3.351194144E1,-7.178468257E-2,1.775713730E1,3.737588882E0
3.352860810E1,1.306481123E0,1.439761353E1,4.821537495E0
3.354527477E1,2.074577332E0,1.219143105E1,4.486542225E0
3.356194143E1,2.553141832E0,8.898907661E0,4.969892502E0
3.357860810E1,-7.633104324E-1,9.370293617E0,-2.206182480E0
3.359527477E1,-2.184647083E0,1.076770210E1,-3.780659676E0
3.361194143E1,-1.600798368E0,1.240199947E1,1.557727575E0
3.362860810E1,-2.935993433E0,1.342612743E1,2.907279491E0
3.364527476E1,-1.655833244E0,1.256710434E1,1.938186288E-1
3.366194143E1,2.895315289E-1,1.419900990E1,1.978864312E0
3.367860810E1,3.055634499E0,1.404586887E1,9.954141974E-1
3.369527476E1,5.517848969E0,1.314377499E1,3.036491871E0
3.371194143E1,5.972485542E0,1.346680546E1,-1.450050473E0
3.372860809E1,5.972485542E0,1.346680546E1,-1.450050473E0
3.374527476E1,5.603990555E0,1.340459251E1,-2.577069998E0
3.376194143E1,1.358644676E1,1.402911949E1,1.413201046E1
3.377860809E1,1.037767220E1,9.190832138E0,7.250252366E-1
3.379527476E1,7.324429989E0,4.046263218E0,-3.213560820E0
3.381194142E1,6.659225464E0,4.443471432E0,-9.690931439E-1
3.382860809E1,2.510071039E0,5.106283665E0,2.057827473E0
3.384527476E1,2.510071039E0,5.106283665E0,2.057827473E0
3.386194142E1,-1.663011789E0,6.786045074E0,-1.026520967E0
3.387860809E1,-1.500299811E0,6.740581512E0,-1.038485050E0
3.389527475E1,-1.454836130E0,5.955735683E0,-9.523434043E-1
3.391194142E1,-1.591227055E0,5.209175110E0,1.435693651E-1
3.392860809E1,-1.521835208E0,5.295316696E0,1.100698411E-1
3.394527475E1,-3.493520916E-1,4.642076015E0,-4.594219327E-1
3.396194142E1,2.608176768E-1,2.914458036E0,-4.474578202E-1
3.397860808E1,-8.805587292E-1,1.586441398E0,8.542376757E-1
3.399527475E1,-2.041077614E0,6.317051649E-1,1.270588875E0
3.401194142E1,-3.034099102E0,-2.177468538E-1,2.242074728E0
3.402860808E1,-5.029713154E0,2.864208698E0,4.567898273E0
3.404527475E1,-6.783652306E0,8.015955925E0,3.287738323E0
3.406194141E1,-7.484749317E0,1.012164021E1,-2.380858421E0
3.407860808E1,-7.776673794E0,1.415833187E1,-7.293323517E0
3.409527475E1,-1.047577763E1,1.477089405E1,-4.161118507E0
3.411194141E1,-1.047577763E1,1.477089405E1,-4.161118507E0
3.412860808E1,3.460021496E0,2.107837486E1,1.139940739E1
3.414527474E1,4.622933388E0,2.109273148E1,5.527420044E-1
3.416194141E1,5.328815937E0,6.699903488E0,-5.103890896E0
3.417860808E1,4.443471432E0,5.974878311E0,6.008377552E0
3.419527474E1,2.998206854E0,6.228517532E0,3.926621914E0
3.421194141E1,1.837687731E0,1.005464077E1,-1.182054400E0
3.422860807E1,1.596012712E0,1.207179070E1,-2.416750938E-1
3.424527474E1,1.596012712E0,1.207179070E1,-2.416750938E-1
3.426194141E1,1.124626622E-1,1.009771156E1,7.537391186E-1
3.427860807E1,-4.402793646E-1,8.949156761E0,1.576870084E0
3.429527474E1,6.460621208E-2,8.573483467E0,-2.440679073E-1
3.431194140E1,2.321037948E-1,7.355536938E0,-7.561319351E0
3.432860807E1,-7.776673436E-1,6.168696880E0,-9.377471924E0
3.434527474E1,-1.229910851E0,5.233103275E0,-5.778666496E0
3.436194140E1,-2.177468538E-1,6.190232277E0,-3.486342669E0
3.437860807E1,1.196411345E-2,8.432307243E0,-1.356730461E0
3.439527473E1,-3.948157430E-1,9.700503349E0,-8.542376757E-1
3.441194140E1,-6.747759581E-1,1.153340530E1,4.905286431E-1
3.442860807E1,-6.747759581E-1,1.153340530E1,4.905286431E-1
3.444527473E1,-2.153540403E-2,8.906085968E0,1.503649712E1
3.446194140E1,-1.076770201E-1,8.829515457E0,8.350951076E-1
3.447860806E1,6.580262184E-1,1.003549862E1,-1.100698471E0
3.449527473E1,6.580262184E-1,1.003549862E1,-1.100698471E0
3.451194140E1,8.877372146E-1,1.015753174E1,-4.127619267E0
3.452860806E1,-2.055434704E0,1.138504982E1,2.110469580E0
3.454527473E1,-4.228117466E0,1.075813103E1,2.287538528E0
3.456194139E1,-4.228117466E0,1.075813103E1,2.287538528E0
3.457860806E1,-1.974078655E0,9.796216011E0,7.657032609E-1
3.459527473E1,-1.799402595E0,9.190832138E0,-9.714859724E-1
3.461194139E1,-2.146361828E0,1.015035343E1,-2.560320199E-1
3.462860806E1,-2.146361828E0,1.015035343E1,-2.560320199E-1
3.464527472E1,-3.393022537E0,1.091605663E1,1.902294040E0
