"Time (s)","Gyroscope x (rad/s)","Gyroscope y (rad/s)","Gyroscope z (rad/s)"
4.183631700E-2,2.802342176E-1,2.132681608E-1,1.205694377E-1
5.617819200E-2,2.014326602E-1,3.449858725E-1,1.128572673E-1
7.284485800E-2,0.000000000E0,0.000000000E0,0.000000000E0
8.951152400E-2,0.000000000E0,0.000000000E0,0.000000000E0
1.061781900E-1,0.000000000E0,0.000000000E0,0.000000000E0
1.228448560E-1,0.000000000E0,0.000000000E0,0.000000000E0
1.395115220E-1,-3.280344009E-1,6.019308567E-1,1.018617004E-1
1.561781880E-1,-2.129627317E-1,4.710530937E-1,6.398808211E-2
1.728448540E-1,-2.129627317E-1,4.710530937E-1,6.398808211E-2
1.895115200E-1,6.169734150E-2,4.150062501E-1,1.981492639E-1
2.061781860E-1,6.169734150E-2,4.150062501E-1,1.981492639E-1
2.228448520E-1,-1.115591824E-1,7.002801299E-1,3.718639314E-1
2.395115180E-1,-1.115591824E-1,7.002801299E-1,3.718639314E-1
2.561781840E-1,-1.115591824E-1,7.002801299E-1,3.718639314E-1
2.728448500E-1,-1.115591824E-1,7.002801299E-1,3.718639314E-1
2.895115160E-1,-1.115591824E-1,7.002801299E-1,3.718639314E-1
3.061781820E-1,1.128572673E-1,3.501018882E-1,5.648971796E-1
3.228448480E-1,1.128572673E-1,3.501018882E-1,5.648971796E-1
3.395115140E-1,-1.343902498E-1,3.248273432E-1,1.010828495E0
3.561781800E-1,-1.343902498E-1,3.248273432E-1,1.010828495E0
3.728448460E-1,-1.343902498E-1,3.248273432E-1,1.010828495E0
3.895115120E-1,-1.343902498E-1,3.248273432E-1,1.010828495E0
4.061781780E-1,-1.343902498E-1,3.248273432E-1,1.010828495E0
4.228448440E-1,-1.343902498E-1,3.248273432E-1,1.010828495E0
4.395115100E-1,-1.343902498E-1,3.248273432E-1,1.010828495E0
4.561781760E-1,-1.343902498E-1,3.248273432E-1,1.010828495E0
4.728448420E-1,-1.343902498E-1,3.248273432E-1,1.010828495E0
4.895115080E-1,-1.343902498E-1,3.248273432E-1,1.010828495E0
5.061781740E-1,-3.428478539E-1,1.715002805E-1,1.268231630E0
5.228448400E-1,-3.428478539E-1,1.715002805E-1,1.268231630E0
5.395115060E-1,2.290742996E-4,-5.609265566E-1,1.328096390E0
5.561781720E-1,2.290742996E-4,-5.609265566E-1,1.328096390E0
5.728448380E-1,2.290742996E-4,-5.609265566E-1,1.328096390E0
5.895115040E-1,2.290742996E-4,-5.609265566E-1,1.328096390E0
6.061781700E-1,2.290742996E-4,-5.609265566E-1,1.328096390E0
6.228448360E-1,2.290742996E-4,-5.609265566E-1,1.328096390E0
6.395115020E-1,-1.528383732E0,-4.485274553E-1,5.066359639E-1
6.561781680E-1,-1.397811294E0,-5.513818264E-1,8.778890371E-1
6.728448340E-1,-8.339831233E-1,-4.662425518E-1,1.235626698E0
6.895115000E-1,-8.339831233E-1,-4.662425518E-1,1.235626698E0
7.061781660E-1,-8.339831233E-1,-4.662425518E-1,1.235626698E0
7.228448320E-1,-8.339831233E-1,-4.662425518E-1,1.235626698E0
7.395114980E-1,-8.339831233E-1,-4.662425518E-1,1.235626698E0
7.561781640E-1,8.874338269E-1,-1.016020894E0,8.019127250E-1
7.728448300E-1,7.531962991E-1,-1.117424369E0,7.086794972E-1
7.895114960E-1,7.531962991E-1,-1.117424369E0,7.086794972E-1
8.061781620E-1,7.531962991E-1,-1.117424369E0,7.086794972E-1
8.228448280E-1,7.531962991E-1,-1.117424369E0,7.086794972E-1
8.395114940E-1,-1.628718227E-1,-1.082757786E-1,2.242331982E0
8.561781600E-1,-2.919933498E-1,1.229365356E-2,2.597244263E0
8.728448260E-1,-2.919933498E-1,1.229365356E-2,2.597244263E0
8.895114920E-1,-2.919933498E-1,1.229365356E-2,2.597244263E0
9.061781580E-1,-2.919933498E-1,1.229365356E-2,2.597244263E0
9.228448240E-1,-2.919933498E-1,1.229365356E-2,2.597244263E0
9.395114900E-1,-1.896735191E0,1.196913123E0,4.187554359E0
9.561781560E-1,-1.896735191E0,1.196913123E0,4.187554359E0
9.728448220E-1,-2.852738619E0,1.794186234E0,4.637761593E0
9.895114880E-1,-2.852738619E0,1.794186234E0,4.637761593E0
1.006178154E0,-2.852738619E0,1.794186234E0,4.637761593E0
1.022844820E0,-2.852738619E0,1.794186234E0,4.637761593E0
1.039511486E0,-2.852738619E0,1.794186234E0,4.637761593E0
1.056178152E0,-6.155837059E0,1.783954263E0,3.104872942E0
1.072844818E0,-6.442332745E0,1.416442752E0,2.937877893E0
1.089511484E0,-6.442332745E0,1.416442752E0,2.937877893E0
1.106178150E0,-6.442332745E0,1.416442752E0,2.937877893E0
1.122844816E0,-6.442332745E0,1.416442752E0,2.937877893E0
1.139511482E0,-4.733132839E0,-4.198168218E-1,1.802509189E0
1.156178148E0,-4.733132839E0,-4.198168218E-1,1.802509189E0
1.172844814E0,-4.733132839E0,-4.198168218E-1,1.802509189E0
1.189511480E0,-4.733132839E0,-4.198168218E-1,1.802509189E0
1.206178146E0,-1.523496747E0,-1.243873358E0,1.320231557E-1
1.222844812E0,-1.106886983E0,-1.462563038E0,1.808923334E-1
1.239511478E0,-5.259546041E-1,-1.690415502E0,1.298087649E-3
1.256178144E0,2.950477004E-1,-1.800371170E0,-5.124391913E-1
1.272844810E0,7.244856358E-1,-1.654985428E0,-6.486620307E-1
1.289511476E0,1.282205224E0,-1.195004225E0,-1.392008066E-1
1.306178142E0,1.420260668E0,-7.228057384E-1,-4.098139107E-1
1.322844808E0,1.375056624E0,-1.089324594E0,-7.219657898E-1
1.339511474E0,2.180787325E0,-2.672686100E0,-1.282128811E0
1.356178140E0,2.180787325E0,-2.672686100E0,-1.282128811E0
1.372844806E0,2.595564365E0,-4.432587624E0,-1.289459229E0
1.389511472E0,2.485608816E0,-4.383718491E0,-1.150792837E0
1.406178138E0,1.153923512E0,-2.345873356E0,-7.738893032E-1
1.422844804E0,-6.352993846E-2,-4.986183643E-1,-5.112174749E-1
1.439511470E0,-6.352993846E-2,-4.986183643E-1,-5.112174749E-1
1.456178136E0,6.169734150E-2,6.174315810E-1,-2.448804229E-1
1.472844802E0,4.080576599E-1,4.170679152E-1,-2.367100911E-3
1.489511468E0,6.633991599E-1,-1.907425225E-1,1.589011997E-1
1.506178134E0,8.087849617E-1,-4.583013058E-1,2.584721744E-1
1.522844800E0,9.871574640E-1,-1.284343153E-1,2.224311382E-1
1.539511466E0,1.062293887E0,7.005091906E-1,1.839466542E-1
1.556178132E0,1.062293887E0,7.005091906E-1,1.839466542E-1
1.572844798E0,2.846629918E-1,1.784183264E0,7.441096306E-1
1.589511464E0,1.142317131E-1,2.098167896E0,1.022053123E0
1.606178130E0,-1.771507859E-1,2.710865259E0,1.480201721E0
1.622844796E0,-5.216785073E-1,3.225213289E0,1.843055367E0
1.639511462E0,-5.216785073E-1,3.225213289E0,1.843055367E0
1.656178128E0,-8.533781171E-1,2.950935125E0,2.137492180E0
1.672844794E0,-7.819069028E-1,2.558759928E0,2.176587582E0
1.689511460E0,-6.414080262E-1,2.078620195E0,2.357403517E0
1.706178126E0,-6.414080262E-1,2.078620195E0,2.357403517E0
1.722844792E0,-1.026252806E-1,1.693164468E0,2.528445721E0
1.739511458E0,-1.026252806E-1,1.693164468E0,2.528445721E0
1.756178124E0,-2.748891525E-2,9.057597518E-1,2.505232811E0
1.772844790E0,-2.748891525E-2,9.057597518E-1,2.505232811E0
1.789511456E0,6.175842881E-1,6.699659228E-1,2.815552235E0
1.806178122E0,1.032361507E0,9.088140726E-1,2.894964457E0
1.822844788E0,1.601076603E0,8.709404469E-1,2.828380346E0
1.839511454E0,1.601076603E0,8.709404469E-1,2.828380346E0
1.856178120E0,2.529591084E0,1.440113783E-1,2.894964457E0
1.872844786E0,2.529591084E0,1.440113783E-1,2.894964457E0
1.889511452E0,3.514915943E0,1.572213173E0,3.212614298E0
1.906178118E0,3.415344954E0,2.081674337E0,3.505218506E0
1.922844784E0,3.266904831E0,2.239277601E0,3.828976870E0
1.939511450E0,3.353036880E0,1.288161159E0,3.406869173E0
1.956178116E0,3.451996803E0,5.636754632E-1,2.748967886E0
1.972844782E0,3.394575596E0,8.929315805E-1,2.518060923E0
1.989511448E0,2.917490244E0,2.495229959E0,2.227289438E0
2.006178114E0,2.295018911E0,4.333322048E0,2.327471256E0
2.022844780E0,2.295018911E0,4.333322048E0,2.327471256E0
2.039511446E0,7.849612236E-1,4.385245323E0,2.220569849E0
2.056178112E0,7.849612236E-1,4.385245323E0,2.220569849E0
2.072844778E0,-5.583304167E-1,2.010814190E0,1.420336962E0
2.089511444E0,-5.583304167E-1,2.010814190E0,1.420336962E0
2.106178110E0,5.406153202E-1,2.487288713E0,4.179078639E-1
2.122844776E0,1.193629742E0,2.534325361E0,-5.545888543E-1
2.139511442E0,1.285870314E0,1.878256440E0,-1.390251875E0
2.156178108E0,1.285870314E0,1.878256440E0,-1.390251875E0
2.172844774E0,7.214313149E-1,1.114064693E0,-1.889328361E0
2.189511440E0,6.969966888E-1,4.444041103E-2,-1.952247500E0
2.206178106E0,8.026763201E-1,-4.326449931E-1,-1.332219720E0
2.222844772E0,7.806851864E-1,2.674060464E-1,-6.199513674E-1
2.239511438E0,3.781253099E-1,4.622719288E-1,-4.305832982E-1
2.256178104E0,-6.682860851E-1,2.037692070E0,-1.324812919E-1
2.272844770E0,-1.227227330E0,3.622275352E0,-1.251509190E-1
2.289511436E0,-1.009759426E0,3.542862892E0,1.106428802E-1
2.306178102E0,-9.053016305E-1,3.117090225E0,3.067304790E-1
2.322844768E0,-9.437860847E-1,2.423147917E0,7.215076685E-1
2.339511434E0,-9.437860847E-1,2.423147917E0,7.215076685E-1
2.356178100E0,-1.141095400E0,5.093085170E-1,1.825951219E0
2.372844766E0,-9.401208758E-1,1.348484010E-1,1.665904641E0
2.389511432E0,-5.913171172E-1,-1.091157198E0,1.478369117E0
2.406178098E0,-5.913171172E-1,-1.091157198E0,1.478369117E0
2.422844764E0,-1.893680841E-1,-2.659247160E0,1.426445603E0
2.439511430E0,1.325576603E-1,-2.439946651E0,1.558392406E0
2.456178096E0,6.224712133E-1,-2.661690474E0,1.498527646E0
2.472844762E0,9.944878817E-1,-3.413665056E0,1.487532139E0
2.489511428E0,9.944878817E-1,-3.413665056E0,1.487532139E0
2.506178094E0,8.998038173E-1,-3.811949015E0,1.810068727E0
2.522844760E0,6.658425927E-2,-2.738659620E0,7.948114276E-1
2.539511426E0,1.099556591E-2,-1.146745920E0,3.995819092E-1
2.556178092E0,9.712749720E-2,-2.493855506E-1,3.250564337E-1
2.572844758E0,-1.588248461E-1,1.262962967E-1,-3.835467100E-1
2.589511424E0,-2.498437017E-1,-9.213368297E-1,-1.106199741E0
2.606178090E0,-2.498437017E-1,-9.213368297E-1,-1.106199741E0
2.622844756E0,5.021308661E-1,-1.933539748E0,-8.361974955E-1
2.639511422E0,2.083048970E-1,-2.231641769E0,-7.751110196E-1
2.656178088E0,-2.028071135E-1,-1.870620728E0,-5.985711217E-1
2.672844754E0,-2.028071135E-1,-1.870620728E0,-5.985711217E-1
2.689511420E0,2.871064469E-2,-4.998401105E-1,-7.017309219E-2
2.706178086E0,1.606574357E-1,-2.212857604E-1,3.794997558E-2
2.722844752E0,1.606574357E-1,-2.212857604E-1,3.794997558E-2
2.739511418E0,-1.631008983E-1,-1.828012913E-1,9.041562080E-1
2.756178084E0,-3.109301627E-1,9.208786488E-2,1.102687240E0
2.772844750E0,-2.840521336E-1,1.372918636E-1,1.018387914E0
2.789511416E0,-5.497782957E-3,-6.001746282E-2,7.202859521E-1
2.806178082E0,2.883281708E-1,6.765327603E-2,2.053269297E-1
2.822844748E0,2.755000293E-1,4.079049528E-1,1.185841262E-1
2.839511414E0,2.101374865E-1,1.906967163E0,3.110065162E-1
2.856178080E0,2.101374865E-1,1.906967163E0,3.110065162E-1
2.872844746E0,-1.832594350E-2,3.973522663E0,-2.448804229E-1
2.889511412E0,-2.186895907E-1,3.952142477E0,-8.868992925E-1
2.906178078E0,-4.080576599E-1,2.723082542E0,-1.872835040E0
2.922844744E0,-4.080576599E-1,2.723082542E0,-1.872835040E0
2.939511410E0,-4.080576599E-1,2.723082542E0,-1.872835040E0
2.956178076E0,8.368847519E-2,9.118683934E-1,-2.469038963E0
2.972844742E0,5.253437161E-2,6.546943188E-1,-2.572885990E0
2.989511408E0,5.253437161E-2,6.546943188E-1,-2.572885990E0
3.006178074E0,5.253437161E-2,6.546943188E-1,-2.572885990E0
3.022844740E0,5.253437161E-2,6.546943188E-1,-2.572885990E0
3.039511406E0,7.422007322E-1,-1.138804674E0,6.860775352E-1
3.056178072E0,7.422007322E-1,-1.138804674E0,6.860775352E-1
3.072844738E0,7.422007322E-1,-1.138804674E0,6.860775352E-1
3.089511404E0,-4.147771895E-1,-4.874242783E0,4.017734051E0
3.106178070E0,2.174678594E-1,-3.879755020E0,5.941347122E0
3.122844736E0,2.174678594E-1,-3.879755020E0,5.941347122E0
3.139511402E0,-6.230820715E-2,-2.552956581E0,6.236394882E0
3.156178068E0,-8.765909672E-1,-3.466810226E0,4.584005833E0
3.172844734E0,-5.400044918E-1,-2.757596254E0,3.676260710E0
3.189511400E0,-5.400044918E-1,-2.757596254E0,3.676260710E0
3.206178066E0,5.045742989E-1,-1.033125043E0,3.771555424E0
3.222844732E0,6.096430421E-1,7.860302329E-1,3.875402451E0
3.239511398E0,1.093447953E-1,2.280816317E0,3.594404697E0
3.256178064E0,1.093447953E-1,2.280816317E0,3.594404697E0
3.272844730E0,-5.015199780E-1,7.121156454E-1,3.303022146E0
3.289511396E0,-4.276053514E-3,-7.362447977E-1,2.961548805E0
3.306178062E0,1.315802693E0,-3.419773817E0,2.866253853E0
3.322844728E0,1.315802693E0,-3.419773817E0,2.866253853E0
3.339511394E0,2.610836029E0,-5.368432522E0,3.034241676E0
3.356178060E0,3.288285017E0,-4.730689526E0,3.630445719E0
3.372844726E0,3.579056740E0,-3.226129532E0,4.516810417E0
3.389511392E0,3.486816168E0,-2.277456522E0,4.711676598E0
3.406178058E0,3.334100008E0,-1.923765898E0,4.673192024E0
3.422844724E0,2.819140911E0,-9.653190970E-1,4.516199589E0
3.439511390E0,1.894902587E0,-4.291325063E-2,4.124635220E0
3.456178056E0,1.894902587E0,-4.291325063E-2,4.124635220E0
3.472844722E0,-1.543655276E0,-1.832136154E0,2.413679510E-1
3.489511388E0,-1.543655276E0,-1.832136154E0,2.413679510E-1
3.506178054E0,1.085506678E0,4.313774586E0,-3.483074665E0
3.522844720E0,1.085506678E0,4.313774586E0,-3.483074665E0
3.539511386E0,6.743947268E-1,3.962985277E-1,1.424078494E-1
3.556178052E0,-1.127656341E0,-1.873064160E0,1.309770465E0
3.572844718E0,-1.127656341E0,-1.873064160E0,1.309770465E0
3.589511384E0,7.269290835E-2,-7.284562290E-2,4.161516204E-2
3.606178050E0,4.862483740E-1,5.673406720E-1,-1.379790753E-1
3.622844716E0,7.764091492E-1,8.403972387E-1,-4.208094776E-1
3.639511382E0,7.764091492E-1,8.403972387E-1,-4.208094776E-1
3.656178048E0,5.693259835E-1,5.062541962E-1,-4.678460658E-1
3.672844714E0,2.706131041E-1,6.217076182E-1,-3.988183439E-1
3.689511380E0,-2.736674249E-1,3.174969554E-1,-3.890444934E-1
3.706178046E0,-2.736674249E-1,3.174969554E-1,-3.890444934E-1
3.722844712E0,-2.260199636E-1,-3.300196826E-1,-4.049269855E-1
3.739511378E0,-1.588248461E-2,-1.534797698E-1,-3.279580176E-1
3.756178044E0,-1.588248461E-2,-1.534797698E-1,-3.279580176E-1
3.772844710E0,2.663370371E-1,7.498364896E-2,-2.937496006E-1
3.789511376E0,2.510654330E-1,1.128572673E-1,-2.448804229E-1
3.806178042E0,2.070831656E-1,2.399171442E-1,-1.703549176E-1
3.822844708E0,2.431241870E-1,2.784016132E-1,-1.666897237E-1
3.839511374E0,2.431241870E-1,2.784016132E-1,-1.666897237E-1
3.856178040E0,4.141663313E-1,3.749182522E-1,-8.300124854E-2
3.872844706E0,4.557051361E-1,4.860956371E-1,-5.062541738E-2
3.889511372E0,4.557051361E-1,4.860956371E-1,-5.062541738E-2
3.906178038E0,5.247328281E-1,3.529271185E-1,4.352411721E-3
3.922844704E0,5.656607747E-1,2.790125012E-1,4.711294547E-2
3.939511370E0,5.907062292E-1,1.446222365E-1,1.014799103E-1
3.956178036E0,5.540543795E-1,1.501200199E-1,1.503490955E-1
3.972844702E0,5.540543795E-1,1.501200199E-1,1.503490955E-1
3.989511368E0,4.740310609E-1,1.708894223E-1,9.842558950E-2
4.006178034E0,3.543015718E-1,-5.513054505E-2,-4.810560029E-3
4.022844700E0,2.632827163E-1,-2.072358727E-1,-2.619082667E-2
4.039511366E0,2.632827163E-1,-2.072358727E-1,-2.619082667E-2
4.056178032E0,3.347539008E-1,2.582430840E-1,-7.864884101E-3
4.072844698E0,2.724456787E-1,1.556178033E-1,-5.490147322E-2
4.089511364E0,1.704312712E-1,-2.762635946E-1,-1.013271958E-1
4.106178030E0,1.704312712E-1,-2.762635946E-1,-1.013271958E-1
4.122844696E0,1.771507859E-1,-8.750637621E-2,-1.337030232E-1
4.139511362E0,2.638935745E-1,1.177441850E-1,-3.596466407E-2
4.156178028E0,4.276053309E-1,1.269071549E-1,5.199986324E-2
4.172844694E0,4.276053309E-1,1.269071549E-1,5.199986324E-2
4.189511360E0,4.929678738E-1,3.315468729E-1,1.020907760E-1
4.206178026E0,4.929678738E-1,3.315468729E-1,1.020907760E-1
4.222844692E0,3.750709891E-1,-4.841103405E-2,2.816850245E-1
4.239511358E0,3.029889166E-1,-3.294088244E-1,2.297615111E-1
4.256178024E0,2.419024557E-1,-4.381427765E-1,2.248746008E-1
4.272844690E0,1.472184062E-1,-5.780308247E-1,2.572504282E-1
4.289511356E0,1.472184062E-1,-5.780308247E-1,2.572504282E-1
4.306178022E0,1.472184062E-1,-5.780308247E-1,2.572504282E-1
4.322844688E0,4.886918142E-2,-7.460185885E-1,3.245219216E-2
4.339511354E0,1.014035568E-1,-8.229875565E-1,5.871937796E-2
4.356178020E0,1.014035568E-1,-8.229875565E-1,5.871937796E-2
4.372844686E0,3.457494676E-1,-6.018545032E-1,1.656970754E-2
4.389511352E0,4.575377107E-1,-3.086394370E-1,8.376483619E-2
4.406178018E0,3.659079969E-1,-3.171915412E-1,2.151007652E-1
4.422844684E0,3.659079969E-1,-3.171915412E-1,2.151007652E-1
4.439511350E0,2.700022459E-1,-4.546361268E-1,3.061196208E-1
4.456178016E0,3.152062297E-1,-2.897026241E-1,3.329976499E-1
4.472844682E0,3.152062297E-1,-2.897026241E-1,3.329976499E-1
4.489511348E0,3.152062297E-1,-2.897026241E-1,3.329976499E-1
4.506178014E0,3.335321844E-1,-2.151771188E-1,3.592648506E-1
4.522844680E0,4.263836145E-1,-2.371682525E-1,3.604865670E-1
4.539511346E0,4.263836145E-1,-2.371682525E-1,3.604865670E-1
4.556178012E0,4.178315103E-1,2.441931963E-1,5.602393746E-1
4.572844678E0,3.500255048E-1,3.798051775E-1,5.596284866E-1
4.589511344E0,8.063415438E-2,4.415025115E-1,5.822305083E-1
4.606178010E0,8.063415438E-2,4.415025115E-1,5.822305083E-1
4.622844676E0,-8.112284541E-1,2.124282271E-1,7.080686092E-1
4.639511342E0,-1.146593213E0,2.344193608E-1,7.251728773E-1
4.656178008E0,-1.804494500E0,-3.130681813E-2,5.944477916E-1
4.672844674E0,-1.804494500E0,-3.130681813E-2,5.944477916E-1
4.689511340E0,-1.804494500E0,-3.130681813E-2,5.944477916E-1
4.706178006E0,-3.635256290E0,-5.493201613E-1,-7.372374535E-1
4.722844672E0,-3.635256290E0,-5.493201613E-1,-7.372374535E-1
4.739511338E0,-3.618762970E0,-4.106538594E-1,-1.783648849E0
4.756178004E0,-3.618762970E0,-4.106538594E-1,-1.783648849E0
4.772844670E0,-2.097709656E0,5.911644101E-1,-1.922315121E0
4.789511336E0,-3.042106628E-1,9.808961153E-1,-2.539288521E0
4.806178002E0,-1.069013357E0,5.697841048E-1,-3.222846270E0
4.822844668E0,-1.069013357E0,5.697841048E-1,-3.222846270E0
4.839511334E0,-2.303570986E0,1.125671029E0,-2.633972645E0
4.856178000E0,-1.389106512E0,2.295477152E0,-1.598556757E0
4.872844666E0,-1.037248373E0,1.652236462E0,-1.227151036E0
4.889511332E0,-1.037248373E0,1.652236462E0,-1.227151036E0
4.906177998E0,-1.045800447E0,-8.565851450E-1,-1.252196431E0
4.922844664E0,-1.090393662E0,-2.297615051E0,-1.134910345E0
4.939511330E0,-7.220421433E-1,-2.755152941E0,-1.099480271E0
4.956177996E0,-6.139190793E-1,-2.391688347E0,-1.089706421E0
4.972844662E0,-5.027416945E-1,-1.143691540E0,-9.479857683E-1
4.989511328E0,-2.321286127E-2,-6.556106210E-1,-5.417606831E-1
5.006177994E0,-2.321286127E-2,-6.556106210E-1,-5.417606831E-1
5.022844660E0,6.328558922E-1,-8.425352573E-1,-3.322340846E-1
5.039511326E0,6.328558922E-1,-8.425352573E-1,-3.322340846E-1
5.056177992E0,1.455079913E0,-9.531017542E-1,-1.580612548E-2
5.072844658E0,1.455079913E0,-9.531017542E-1,-1.580612548E-2
5.089511324E0,1.629787207E0,-1.554803610E0,1.815031916E-1
5.106177990E0,7.550288439E-1,-1.922544122E0,4.222602770E-2
5.122844656E0,7.550288439E-1,-1.922544122E0,4.222602770E-2
5.139511322E0,-2.547306120E-1,-5.511527658E-1,-3.075627804E0
5.156177988E0,-3.097084463E-1,-6.856957078E-2,-2.839223146E0
5.172844654E0,-5.076286197E-1,-1.325118423E0,-1.582674265E0
5.189511320E0,-8.368847519E-2,-1.296407819E0,-1.256472468E0
5.206177986E0,-8.368847519E-2,-1.296407819E0,-1.256472468E0
5.222844652E0,1.386052132E0,1.800523996E-1,-4.189768732E-1
5.239511318E0,1.948658705E0,6.601921320E-1,9.664644599E-1
5.256177984E0,1.618791699E0,8.904881477E-1,1.876652956E0
5.272844650E0,1.618791699E0,8.904881477E-1,1.876652956E0
5.289511316E0,8.478803039E-1,-1.135750294E0,1.039157391E0
5.306177982E0,7.116574645E-1,-1.445458770E0,7.887027860E-1
5.322844648E0,7.116574645E-1,-1.445458770E0,7.887027860E-1
5.339511314E0,4.404335022E-1,-7.808378935E-1,1.601152897E0
5.356177980E0,3.170388341E-1,-7.557924390E-1,1.883372426E0
5.372844646E0,1.777616441E-1,-1.168737054E0,2.271882534E0
5.389511312E0,1.777616441E-1,-1.168737054E0,2.271882534E0
5.389511312E0,4.520399272E-1,-1.759443283E0,2.234619617E0
5.422844644E0,2.661537886E0,1.914908409E0,1.790521026E0
5.439511310E0,2.661537886E0,1.914908409E0,1.790521026E0
5.456177976E0,2.257756233E0,-2.163988501E-1,1.726380229E0
5.472844642E0,2.257756233E0,-2.163988501E-1,1.726380229E0
5.489511308E0,1.982867122E0,5.465712547E-1,1.177212834E0
5.506177974E0,1.606574416E0,7.457131743E-1,6.243801713E-1
5.522844640E0,7.666352987E-1,1.684459597E-1,6.201041341E-1
5.539511306E0,7.666352987E-1,1.684459597E-1,6.201041341E-1
5.556177972E0,2.626718581E-2,-1.078329086E0,5.229766369E-1
5.572844638E0,2.626718581E-2,-1.078329086E0,5.229766369E-1
5.589511304E0,6.175842881E-1,1.745546162E-1,6.849320978E-2
5.606177970E0,6.707295179E-1,4.932733253E-2,6.360629201E-2
5.622844636E0,8.735366464E-1,-3.379609287E-1,3.268890083E-1
5.639511302E0,9.969313145E-1,-6.122392416E-1,8.583413959E-1
5.656177968E0,7.910698652E-1,-4.118755758E-1,9.346994758E-1
5.672844634E0,6.579013467E-1,-8.704823442E-3,8.754456043E-1
5.689511300E0,6.579013467E-1,-8.704823442E-3,8.754456043E-1
5.706177966E0,4.324922562E-1,2.686277926E-1,8.956041336E-1
5.722844632E0,4.324922562E-1,2.686277926E-1,8.956041336E-1
5.739511298E0,-8.918625861E-2,4.549415410E-1,9.933425188E-1
5.756177964E0,-8.918625861E-2,4.549415410E-1,9.933425188E-1
5.772844630E0,-6.572905183E-1,1.170875072E0,6.555342674E-1
5.789511296E0,-6.572905183E-1,1.170875072E0,6.555342674E-1
5.806177962E0,-2.079383612E0,7.915280461E-1,4.405862093E-2
5.822844628E0,-2.079383612E0,7.915280461E-1,4.405862093E-2
5.839511294E0,-3.506974697E0,-9.934188724E-1,-1.857563496E0
5.856177960E0,-3.506974697E0,-9.934188724E-1,-1.857563496E0
5.872844626E0,-3.570504665E0,-1.920100689E0,-3.665112257E0
5.889511292E0,-3.718944788E0,-3.237125158E0,-4.090885162E0
5.906177958E0,-3.718944788E0,-3.237125158E0,-4.090885162E0
5.922844624E0,-3.718944788E0,-3.237125158E0,-4.090885162E0
5.939511290E0,-3.718944788E0,-3.237125158E0,-4.090885162E0
5.956177956E0,6.291907430E-1,-1.803578287E-1,-3.285154343E0
5.972844622E0,6.291907430E-1,-1.803578287E-1,-3.285154343E0
5.989511288E0,6.291907430E-1,-1.803578287E-1,-3.285154343E0
6.006177954E0,-1.722638726E0,1.431714296E0,-1.250974655E0
6.022844620E0,-5.357283950E-1,1.262962967E-1,-1.035950303E0
6.039511286E0,-5.180133581E-1,-1.538921118E0,-1.306563377E0
6.056177952E0,-1.066569924E0,-2.554178476E0,-1.390251875E0
6.072844618E0,-1.216231823E0,-2.667188406E0,-1.282739639E0
6.089511284E0,-6.328558922E-1,-2.564563036E0,-1.101923704E0
6.106177950E0,2.883281708E-1,-1.779601812E0,-1.196607709E0
6.122844616E0,2.883281708E-1,-1.779601812E0,-1.196607709E0
6.139511282E0,4.789179862E-1,-1.925751269E-1,-9.803616405E-1
6.156177948E0,4.789179862E-1,-1.925751269E-1,-9.803616405E-1
6.172844614E0,4.789179862E-1,-1.925751269E-1,-9.803616405E-1
6.189511280E0,1.268766165E0,-1.499214888E0,3.397171795E-1
6.206177946E0,1.885128736E0,-2.407570839E0,7.410553098E-1
6.222844612E0,1.885128736E0,-2.407570839E0,7.410553098E-1
6.239511278E0,1.885128736E0,-2.407570839E0,7.410553098E-1
6.256177944E0,1.037248373E0,-1.795484304E0,6.836340427E-1
6.272844610E0,2.136194229E0,1.490357399E0,-2.435823344E-2
6.289511276E0,2.136194229E0,1.490357399E0,-2.435823344E-2
6.306177942E0,5.326740742E-1,3.823860884E0,-2.472093344E0
6.322844608E0,-4.746419191E-1,1.765246511E0,-2.461097956E0
6.339511274E0,-2.046397030E-1,2.600756884E-1,-1.238146544E0
6.356177940E0,8.906408548E-1,3.541488647E-1,1.845575273E-1
6.372844606E0,8.906408548E-1,3.541488647E-1,1.845575273E-1
6.389511272E0,2.557690859E0,-6.673697382E-2,2.143600941E0
6.406177938E0,2.557690859E0,-6.673697382E-2,2.143600941E0
6.422844604E0,5.314523578E-1,-3.408778191E0,1.789910197E0
6.439511270E0,5.314523578E-1,-3.408778191E0,1.789910197E0
6.456177936E0,3.579667509E-1,3.376707792E0,9.902881384E-1
6.472844602E0,-1.166751757E-1,2.245386124E0,5.675697327E-1
6.489511268E0,-6.273581386E-1,2.374736816E-1,1.802814752E-1
6.506177934E0,-6.273581386E-1,2.374736816E-1,1.802814752E-1
6.522844600E0,-1.421482325E0,-2.435670614E0,3.690386713E-1
6.539511266E0,-1.421482325E0,-2.435670614E0,3.690386713E-1
6.556177932E0,-1.421482325E0,-2.435670614E0,3.690386713E-1
6.572844598E0,-1.421482325E0,-2.435670614E0,3.690386713E-1
6.589511264E0,9.773836285E-2,-3.479638577E0,9.200387001E-1
6.606177930E0,9.773836285E-2,-3.479638577E0,9.200387001E-1
6.622844596E0,1.255327106E0,-1.314733744E0,6.915752888E-1
6.639511262E0,1.255327106E0,-1.314733744E0,6.915752888E-1
6.656177928E0,1.627343774E0,1.206916094E0,-2.802342176E-2
6.672844594E0,1.740964651E0,2.148258686E0,-5.179370046E-1
6.689511260E0,1.943160892E0,2.013257504E0,-9.913572073E-1
6.706177926E0,1.943160892E0,2.013257504E0,-9.913572073E-1
6.722844592E0,3.244302750E0,2.382830858E0,-6.859247684E-1
6.739511258E0,3.396408081E0,2.111606836E0,2.756527252E-2
6.756177924E0,3.396408081E0,2.111606836E0,2.756527252E-2
6.772844590E0,9.193515182E-1,2.217286348E0,1.256014347E0
6.789511256E0,9.193515182E-1,2.217286348E0,1.256014347E0
6.806177922E0,-6.927206516E-1,-1.944077164E-1,1.185764909E0
6.822844588E0,-6.927206516E-1,-1.944077164E-1,1.185764909E0
6.839511254E0,5.253437161E-2,-5.212203860E-1,1.022663951E0
6.856177920E0,4.434878230E-1,2.790125012E-1,9.670752883E-1
6.872844586E0,2.547306120E-1,3.932442069E-1,9.878447056E-1
6.889511252E0,2.547306120E-1,3.932442069E-1,9.878447056E-1
6.906177918E0,5.455022454E-1,9.656245112E-1,8.418480158E-1
6.922844584E0,1.590691924E0,2.430478334E0,-9.086613543E-3
6.939511250E0,1.362839341E0,4.410291195E0,-6.608793139E-1
6.956177916E0,1.362839341E0,4.410291195E0,-6.608793139E-1
6.972844582E0,-4.624246597E0,1.585041404E0,-1.694462538E0
6.989511248E0,-3.695121050E0,3.297142684E-1,-2.790354013E0
7.006177914E0,-2.875951290E0,1.867718995E-1,-4.079278469E0
7.022844580E0,-2.470947981E0,6.272054315E-1,-5.058495045E0
7.039511246E0,-2.695746183E0,3.278816640E-1,-4.965643406E0
7.056177912E0,-3.139234066E0,3.083339930E-1,-4.337063789E0
7.072844578E0,-1.751349330E0,8.587231636E-1,-3.524613380E0
7.089511244E0,-1.751349330E0,8.587231636E-1,-3.524613380E0
7.106177910E0,-2.251036644E0,5.166388750E-1,-3.453142166E0
7.122844576E0,-2.251036644E0,5.166388750E-1,-3.453142166E0
7.139511242E0,-3.252243996E0,3.358229101E-1,-1.980347276E0
7.156177908E0,-2.439793825E0,5.380191803E-1,-1.251585603E0
7.172844574E0,-2.183841705E0,5.543597788E-2,-1.283350587E0
7.189511240E0,-2.960861683E0,-1.344055176E0,-1.761046767E0
7.206177906E0,-2.960861683E0,-1.344055176E0,-1.761046767E0
7.222844572E0,-2.367100954E0,1.892153621E-1,-1.638262987E0
7.239511238E0,-2.123976946E0,5.441278219E-1,-1.665751934E0
7.256177904E0,-1.458745122E0,2.735147178E-1,-1.674304008E0
7.272844570E0,-1.458745122E0,2.735147178E-1,-1.674304008E0
7.289511236E0,-1.458745122E0,2.735147178E-1,-1.674304008E0
7.306177902E0,-1.458745122E0,2.735147178E-1,-1.674304008E0
7.322844568E0,-5.583304167E-1,-1.001360059E0,-2.809214294E-1
7.339511234E0,-1.649334840E-2,-9.666935354E-2,-7.017309219E-2
7.356177900E0,-1.649334840E-2,-9.666935354E-2,-7.017309219E-2
7.372844566E0,-1.649334840E-2,-9.666935354E-2,-7.017309219E-2
7.389511232E0,7.965676785E-1,-1.644753367E-1,-1.123227626E-1
7.406177898E0,7.965676785E-1,-1.644753367E-1,-1.123227626E-1
7.422844564E0,1.207068801E0,-6.177369952E-1,1.534797717E-2
7.439511230E0,1.293811560E0,-8.138245940E-1,2.829067409E-1
7.456177896E0,1.293811560E0,-8.138245940E-1,2.829067409E-1
7.472844562E0,1.293811560E0,-8.138245940E-1,2.829067409E-1
7.489511228E0,1.293811560E0,-8.138245940E-1,2.829067409E-1
7.506177894E0,1.229059935E0,7.194460034E-1,7.887027860E-1
7.522844560E0,1.229059935E0,7.194460034E-1,7.887027860E-1
7.539511226E0,2.128252983E0,-1.094975099E-1,2.127718449E0
7.556177892E0,1.856418014E0,6.669116020E-1,2.259665251E0
7.572844558E0,2.373209715E0,1.949116826E0,2.057468891E0
7.589511224E0,2.373209715E0,1.949116826E0,2.057468891E0
7.606177890E0,4.012770653E0,5.112174511E0,1.594433427E0
7.622844556E0,3.227809429E0,5.685776711E0,1.371467829E0
7.639511222E0,1.651167512E0,2.906952858E0,9.163735509E-1
7.656177888E0,1.001207352E0,-5.650499370E-3,1.119180679E0
7.672844554E0,1.001207352E0,-5.650499370E-3,1.119180679E0
7.689511220E0,1.042746186E0,6.485856771E-1,2.391000986E0
7.706177886E0,1.042746186E0,6.485856771E-1,2.391000986E0
7.722844552E0,3.555232882E-1,8.575014472E-1,3.735514402E0
7.739511218E0,3.640754223E-1,4.659371078E-1,3.773998976E0
7.756177884E0,4.208858311E-1,3.346011937E-1,3.762392521E0
7.772844550E0,4.208858311E-1,3.346011937E-1,3.762392521E0
7.789511216E0,4.208858311E-1,3.346011937E-1,3.762392521E0
7.806177882E0,4.208858311E-1,3.346011937E-1,3.762392521E0
7.822844548E0,4.208858311E-1,3.346011937E-1,3.762392521E0
7.839511214E0,4.208858311E-1,3.346011937E-1,3.762392521E0
7.856177880E0,4.208858311E-1,3.346011937E-1,3.762392521E0
7.872844546E0,4.208858311E-1,3.346011937E-1,3.762392521E0
7.889511212E0,4.208858311E-1,3.346011937E-1,3.762392521E0
7.906177878E0,-1.899789423E-1,1.660024971E-1,-7.933606207E-2
7.922844544E0,-1.899789423E-1,1.660024971E-1,-7.933606207E-2
7.939511210E0,-1.899789423E-1,1.660024971E-1,-7.933606207E-2
7.956177876E0,-3.262017965E-1,7.530435324E-1,-4.550178945E-1
7.972844542E0,5.925388262E-2,3.865246773E-1,-2.650389671E-1
7.972844542E0,5.925388262E-2,3.865246773E-1,-2.650389671E-1
8.006177874E0,-8.246674389E-2,-2.023489624E-1,-4.573849961E-2
8.022844540E0,-2.736674249E-1,1.996000707E-1,-6.406444311E-2
8.022844540E0,-8.246674389E-2,-2.023489624E-1,-4.573849961E-2
8.056177872E0,-8.747583628E-1,5.948295593E-1,-5.967385173E-1
8.072844538E0,-1.076954603E0,7.799215913E-1,-8.080977201E-1
8.089511204E0,-1.601687431E0,1.440266490E0,-1.415297389E0
8.106177870E0,-1.601687431E0,1.440266490E0,-1.415297389E0
8.122844536E0,-1.601687431E0,1.440266490E0,-1.415297389E0
8.139511202E0,-1.734245062E0,3.262475967E0,-3.123275280E0
8.156177868E0,-1.488677502E0,1.774409413E0,-3.257665396E0
8.172844534E0,-1.488677502E0,1.774409413E0,-3.257665396E0
8.189511200E0,2.895499170E-1,4.512763619E-1,-2.992550135E0
8.206177866E0,2.492328286E-1,3.229947388E-1,-2.980943680E0
8.222844532E0,-1.103832603E0,8.536835015E-2,-2.719493628E0
8.239511198E0,-1.836259484E0,2.032652497E-1,-3.004156590E0
8.239511198E0,-1.836259484E0,2.032652497E-1,-3.004156590E0
8.272844530E0,-4.312705398E-1,1.495244265E0,-2.339535713E0
8.289511196E0,-4.355465770E-1,6.595812440E-1,-1.639484763E0
8.306177862E0,-4.355465770E-1,6.595812440E-1,-1.639484763E0
8.322844528E0,-4.355465770E-1,6.595812440E-1,-1.639484763E0
8.339511194E0,-1.618180752E0,-6.855430007E-1,-1.455003500E0
8.356177860E0,-1.618180752E0,-6.855430007E-1,-1.455003500E0
8.372844526E0,-1.340237379E0,-4.925097227E-1,-2.644280791E-1
8.389511192E0,-1.340237379E0,-4.925097227E-1,-2.644280791E-1
8.406177858E0,-7.318159938E-1,-4.509709179E-1,9.829577804E-1
8.422844524E0,-7.318159938E-1,-4.509709179E-1,9.829577804E-1
8.439511190E0,1.190575480E0,8.031344414E-1,1.602985501E0
8.456177856E0,1.190575480E0,8.031344414E-1,1.602985501E0
8.472844522E0,2.678031206E0,1.045036912E0,2.262108564E0
8.489511188E0,2.678031206E0,1.045036912E0,2.262108564E0
8.506177854E0,2.678031206E0,1.045036912E0,2.262108564E0
8.522844520E0,2.678031206E0,1.045036912E0,2.262108564E0
8.539511186E0,1.803883672E0,-2.936579704E0,2.824104309E0
8.556177852E0,2.016464710E0,-5.071704984E-1,2.020817041E0
8.572844518E0,2.016464710E0,-5.071704984E-1,2.020817041E0
8.589511184E0,2.016464710E0,-5.071704984E-1,2.020817041E0
8.606177850E0,2.205221891E0,1.849545836E0,2.129550934E0
8.622844516E0,1.747073233E-1,3.590357602E-1,1.835114121E0
8.639511182E0,1.747073233E-1,3.590357602E-1,1.835114121E0
8.656177848E0,-1.946826100E0,-2.072358727E-1,1.466839015E-1
8.672844514E0,-2.315177441E0,3.596466482E-1,-3.187950552E-1
8.689511180E0,-1.326187491E0,-6.734783947E-2,6.213258505E-1
8.706177846E0,-1.326187491E0,-6.734783947E-2,6.213258505E-1
8.722844512E0,-2.840521336E-1,-5.199986696E-1,1.698891282E0
8.739511178E0,-1.435532272E-1,-2.634354234E-1,1.787466645E0
8.756177844E0,-1.435532272E-1,-2.634354234E-1,1.787466645E0
8.772844510E0,6.670643687E-1,-1.852447391E-1,1.695837021E0
8.789511176E0,1.337793827E0,-4.277580678E-1,1.349476695E0
8.806177842E0,1.829540014E0,-1.127809048E0,9.597449303E-1
8.822844508E0,1.694538951E0,-4.326449931E-1,8.852193952E-1
8.839511174E0,1.694538951E0,-4.326449931E-1,8.852193952E-1
8.856177840E0,8.038980365E-1,1.208748698E0,1.003727198E0
8.872844506E0,8.038980365E-1,1.208748698E0,1.003727198E0
8.889511172E0,1.392771751E-1,2.122755162E-2,8.265764117E-1
8.906177838E0,1.392771751E-1,2.122755162E-2,8.265764117E-1
8.922844504E0,-3.042106628E-1,2.851211429E-1,9.518036842E-1
8.939511170E0,-3.463603258E-1,5.740602016E-1,4.056905806E-1
8.956177836E0,-4.819723070E-1,9.925025702E-1,-5.142717957E-1
8.972844502E0,-4.819723070E-1,9.925025702E-1,-5.142717957E-1
8.989511168E0,-2.255312681E0,7.622065544E-1,-2.409174442E0
9.006177834E0,-2.255312681E0,7.622065544E-1,-2.409174442E0
9.022844500E0,-2.255312681E0,7.622065544E-1,-2.409174442E0
9.039511166E0,-2.255312681E0,7.622065544E-1,-2.409174442E0
9.056177832E0,-2.255312681E0,7.622065544E-1,-2.409174442E0
9.072844498E0,-4.599811733E-1,7.628173828E-1,-3.544771910E0
9.089511164E0,-4.599811733E-1,7.628173828E-1,-3.544771910E0
9.106177830E0,-4.599811733E-1,7.628173828E-1,-3.544771910E0
9.122844496E0,-3.408625424E-1,-8.590285778E-1,-3.042030334E0
9.139511162E0,-5.027416945E-1,2.247218847E0,-3.708483696E0
9.156177828E0,-5.027416945E-1,2.247218847E0,-3.708483696E0
9.172844494E0,-1.012813807E0,-6.702713966E-1,-2.184376001E0
9.189511160E0,-8.765909672E-1,7.177661173E-3,-1.914373875E0
9.206177826E0,-8.765909672E-1,7.177661173E-3,-1.914373875E0
9.222844492E0,-8.765909672E-1,7.177661173E-3,-1.914373875E0
9.239511158E0,-1.005483389E0,-5.474875569E-1,-1.137353897E0
9.256177824E0,-1.265711784E0,-4.576904476E-1,-5.509236455E-1
9.272844490E0,-1.092226267E0,-3.843866587E-1,1.601229310E-1
9.289511156E0,-1.092226267E0,-3.843866587E-1,1.601229310E-1
9.306177822E0,-5.375609919E-2,-2.764163166E-2,1.328096390E0
9.322844488E0,9.486730099E-1,-2.017380893E-1,1.606039882E0
9.339511154E0,2.129474640E0,-9.653190970E-1,1.777081966E0
9.356177820E0,2.129474640E0,-9.653190970E-1,1.777081966E0
9.372844486E0,2.728733063E0,6.272054315E-1,2.877860308E0
9.389511152E0,2.568686485E0,1.377958179E0,3.375104189E0
9.406177818E0,2.568686485E0,1.377958179E0,3.375104189E0
9.422844484E0,1.112384796E0,-4.282925606E0,3.444742918E0
9.439511150E0,1.044578791E0,-4.634783745E0,3.136867046E0
9.456177816E0,2.874118805E0,3.804160357E-1,2.248058796E0
9.472844482E0,2.793484688E0,1.570991516E0,2.076405764E0
9.489511148E0,2.793484688E0,1.570991516E0,2.076405764E0
9.506177814E0,2.046396971E0,2.979034901E0,2.329914570E0
9.522844480E0,7.305942774E-1,1.764024734E0,1.303050876E0
9.539511146E0,-4.190532267E-1,2.405280024E-1,4.130209386E-1
9.556177812E0,-4.190532267E-1,2.405280024E-1,4.130209386E-1
9.572844478E0,-8.600975871E-1,-6.354520917E-1,1.104519844E0
9.589511144E0,-6.872228980E-1,-9.714277387E-1,1.769751668E0
9.606177810E0,-5.467239618E-1,-1.443626165E0,1.994549870E0
9.622844476E0,-5.192350745E-1,-1.406363487E0,1.907807112E0
9.639511142E0,-5.564978123E-1,-1.246316910E0,1.747760534E0
9.656177808E0,-3.738492429E-1,-6.611084342E-1,1.229136348E0
9.672844474E0,-3.738492429E-1,-6.611084342E-1,1.229136348E0
9.689511140E0,1.032972336E0,-5.499309897E-1,3.201695085E-1
9.706177806E0,1.380554438E0,-2.182314396E-1,2.541961074E-1
9.722844472E0,1.384219646E0,3.877464235E-1,1.851683855E-1
9.739511138E0,5.876519084E-1,3.229947388E-1,2.041051984E-1
9.756177804E0,5.876519084E-1,3.229947388E-1,2.041051984E-1
9.772844470E0,-3.115410507E-1,-7.166970968E-1,9.230930209E-1
9.789511136E0,-3.115410507E-1,-7.166970968E-1,9.230930209E-1
9.806177802E0,-9.370665550E-1,-1.080772519E0,5.810851231E-2
9.822844468E0,-9.608902931E-1,-1.319009781E0,-1.837939471E-1
9.839511134E0,-8.478803039E-1,-1.645822406E0,-8.752928972E-1
9.856177800E0,-1.028696299E0,-3.727802336E-1,-1.394527912E0
9.872844466E0,-1.028696299E0,-3.727802336E-1,-1.394527912E0
9.889511132E0,-2.241873741E0,2.893513680E0,-2.065257549E0
9.906177798E0,-1.980423570E0,4.608211040E0,-3.228954792E0
9.922844464E0,-1.253494501E0,4.861720085E0,-4.020024776E0
9.939511130E0,-4.673115611E-1,3.280191183E0,-3.809887171E0
9.956177796E0,-9.468404204E-2,1.584430575E0,-3.438481569E0
9.972844462E0,9.144645929E-1,-1.286023021E0,-2.852051258E0
9.989511128E0,9.144645929E-1,-1.286023021E0,-2.852051258E0
1.000617779E1,-1.888793945E0,-6.220130324E-1,-3.588143349E0
1.002284446E1,-1.850920320E0,-1.033888608E-1,-3.475133419E0
1.003951113E1,-8.466585875E-1,3.649916872E-2,-2.389015913E0
1.005617779E1,-8.466585875E-1,3.649916872E-2,-2.389015913E0
1.007284446E1,-8.466585875E-1,3.649916872E-2,-2.389015913E0
1.008951112E1,-5.338957906E-1,7.481566668E-1,-1.853898287E0
1.010617779E1,-7.238747478E-1,2.032652497E-1,-1.927201986E0
1.012284446E1,-9.786053896E-1,-3.434587121E-1,-1.409188747E0
1.013951112E1,-1.034804940E0,-5.267181396E-1,-6.504946351E-1
1.015617779E1,-1.046411395E0,-6.910407543E-1,-2.534325123E-1
1.017284445E1,-8.381064534E-1,-7.619010806E-1,7.135664225E-1
1.018951112E1,-8.381064534E-1,-7.619010806E-1,7.135664225E-1
1.020617779E1,7.648026943E-1,2.771798968E-1,1.755701780E0
1.022284445E1,1.034804940E0,4.641045034E-1,2.063577652E0
1.023951112E1,1.387884736E0,-4.265363216E-1,2.593808174E0
1.025617778E1,2.273027897E0,-7.551816106E-1,3.059287071E0
1.027284445E1,2.273027897E0,-7.551816106E-1,3.059287071E0
1.028951112E1,3.776365995E0,-7.667880058E-1,2.912068844E0
1.030617778E1,2.457509041E0,-1.761275887E0,1.994549870E0
1.032284445E1,2.728121996E0,2.685208797E0,1.331761599E0
1.033951111E1,2.728121996E0,2.685208797E0,1.331761599E0
1.035617778E1,1.527161956E0,1.949116826E0,2.167424679E0
1.037284445E1,-4.404335022E-1,-6.152935624E-1,2.021427870E0
1.038951111E1,-1.445306063E0,-1.579238176E0,1.223027706E0
1.040617778E1,-1.445306063E0,-1.579238176E0,1.223027706E0
1.042284444E1,-1.656665325E0,-3.068068326E-1,1.595120728E-1
1.043951111E1,-1.142928004E0,-2.512181401E-1,6.811906099E-1
1.045617778E1,-1.142928004E0,-2.512181401E-1,6.811906099E-1
1.047284444E1,-4.392117858E-1,-6.446150541E-1,1.844277143E0
1.048951111E1,-4.483747482E-1,-1.546251416E0,2.172922373E0
1.050617777E1,2.486219704E-1,-1.345887780E0,2.289597511E0
1.052284444E1,2.486219704E-1,-1.345887780E0,2.289597511E0
1.053951111E1,5.259546041E-1,-1.056948781E0,1.538844705E0
1.055617777E1,8.106175661E-1,-7.796161771E-1,9.212604165E-1
1.057284444E1,1.081230640E0,-4.399753511E-1,7.001274228E-1
1.058951110E1,1.081230640E0,-4.399753511E-1,7.001274228E-1
1.060617777E1,1.225394726E0,1.843284518E-1,4.881573021E-1
1.062284444E1,1.034804940E0,1.916588247E-1,4.557814896E-1
1.063951110E1,1.034804940E0,1.916588247E-1,4.557814896E-1
1.065617777E1,1.539379209E-1,-9.048434496E-1,8.149699569E-1
1.067284443E1,1.007926911E-1,-7.258600593E-1,5.700132251E-1
1.068951110E1,-9.101885557E-2,-2.072358727E-1,-5.209913254E-1
1.070617777E1,-9.101885557E-2,-2.072358727E-1,-5.209913254E-1
1.072284443E1,-9.101885557E-2,-2.072358727E-1,-5.209913254E-1
1.073951110E1,-2.227823734E0,1.046869516E0,-2.016388178E0
1.075617776E1,-2.745837212E0,2.142150164E0,-2.483088970E0
1.077284443E1,-2.745837212E0,2.142150164E0,-2.483088970E0
1.078951110E1,-1.943771720E0,4.346761227E0,-3.961381674E0
1.080617776E1,-1.345735073E0,3.034012556E0,-4.054233074E0
1.082284443E1,-2.999345958E-1,3.944659233E-1,-3.458029270E0
1.083951109E1,6.230821013E-1,-1.753334641E0,-2.745760918E0
1.085617776E1,6.230821013E-1,-1.753334641E0,-2.745760918E0
1.087284443E1,-7.202095985E-1,1.635590494E-1,-3.465359449E0
1.088951109E1,-7.501419783E-1,2.299142361E0,-3.350517035E0
1.090617776E1,-1.948658675E-1,5.955931731E-3,-2.282114506E0
1.092284442E1,-1.948658675E-1,5.955931731E-3,-2.282114506E0
1.093951109E1,-1.036026716E0,4.134027362E-1,-1.286404848E0
1.095617776E1,-4.349357188E-1,5.679515004E-1,-2.159330606E0
1.097284442E1,-4.349357188E-1,5.679515004E-1,-2.159330606E0
1.098951109E1,-4.349357188E-1,5.679515004E-1,-2.159330606E0
1.100617775E1,-4.349357188E-1,5.679515004E-1,-2.159330606E0
1.102284442E1,-8.338304162E-1,-8.749110699E-1,-1.043815166E-1
1.103951109E1,-8.338304162E-1,-8.749110699E-1,-1.043815166E-1
1.105617775E1,-5.552760959E-1,-6.488910913E-1,8.882737756E-1
1.107284442E1,-6.597339362E-2,-4.546361268E-1,1.297553182E0
1.108951108E1,6.359102130E-1,-4.088212550E-1,1.621922374E0
1.110617775E1,6.359102130E-1,-4.088212550E-1,1.621922374E0
1.112284442E1,1.105665207E0,1.878409274E-2,2.799058676E0
1.113951108E1,2.164294004E0,-2.640463114E-1,3.281641960E0
1.115617775E1,3.503920317E0,7.732021213E-1,3.206505537E0
1.117284441E1,2.029903650E0,-1.449734807E0,2.828380346E0
1.118951108E1,1.234557748E0,-1.388037443E0,2.240117550E0
1.120617775E1,1.613293886E0,1.384677768E0,1.629863620E0
1.122284441E1,1.613293886E0,1.384677768E0,1.629863620E0
1.123951108E1,2.024405956E0,8.446732759E-1,2.918788195E0
1.125617774E1,1.341459036E0,1.514181018E0,3.077613115E0
1.127284441E1,-3.848448023E-2,4.201222658E-1,2.502789259E0
1.128951108E1,-3.848448023E-2,4.201222658E-1,2.502789259E0
1.130617774E1,-9.505056143E-1,-4.955640435E-1,2.865719497E-1
1.132284441E1,-8.698714375E-1,-3.904953003E-1,3.824777007E-1
1.133951107E1,-3.659079969E-1,-1.339320987E-1,9.249256253E-1
1.135617774E1,-3.659079969E-1,-1.339320987E-1,9.249256253E-1
1.137284441E1,-3.659079969E-1,-1.339320987E-1,9.249256253E-1
1.138951107E1,4.257727563E-1,-1.416748166E0,1.414228320E0
1.140617774E1,4.257727563E-1,-1.416748166E0,1.414228320E0
1.142284440E1,-2.290742993E-1,-4.033234715E-1,1.143004417E0
1.143951107E1,-2.290742993E-1,-4.033234715E-1,1.143004417E0
1.145617774E1,-6.108647794E-4,-1.083215952E0,5.278635025E-1
1.147284440E1,3.952295184E-1,-2.982547283E-1,7.838158607E-1
1.148951107E1,4.587594569E-1,4.054614902E-1,9.304234385E-1
1.150617773E1,4.587594569E-1,4.054614902E-1,9.304234385E-1
1.152284440E1,1.692095399E-1,3.095557392E-1,5.932260752E-1
1.153951107E1,-3.353647590E-1,-2.671006322E-1,7.331140637E-1
1.155617773E1,-3.353647590E-1,-2.671006322E-1,7.331140637E-1
1.157284440E1,-3.353647590E-1,-2.671006322E-1,7.331140637E-1
1.158951106E1,-2.419024557E-1,-6.378955245E-1,1.356883347E-1
1.160617773E1,-4.923570156E-1,-5.621483326E-1,-4.971675575E-1
1.162284440E1,-4.923570156E-1,-5.621483326E-1,-4.971675575E-1
1.163951106E1,-1.698814988E0,6.693550944E-1,-1.514257431E0
1.165617773E1,-1.851531148E0,1.172096848E0,-1.973627687E0
1.167284439E1,-1.861915827E0,2.618013620E0,-2.959563494E0
1.168951106E1,-1.861915827E0,2.618013620E0,-2.959563494E0
1.170617773E1,-2.126420259E0,3.490328550E0,-4.077445984E0
1.172284439E1,-1.948658705E0,2.625954866E0,-4.132423878E0
1.173951106E1,-1.948658705E0,2.625954866E0,-4.132423878E0
1.175617772E1,5.436696410E-1,-1.039844513E0,-2.905196428E0
1.177284439E1,7.696896195E-1,-6.220130324E-1,-2.806847334E0
1.178951106E1,-3.726275265E-1,8.135191798E-1,-2.841666698E0
1.180617772E1,-3.726275265E-1,8.135191798E-1,-2.841666698E0
1.182284439E1,-3.726275265E-1,8.135191798E-1,-2.841666698E0
1.183951105E1,-4.923570156E-1,-5.650499370E-3,-2.552727461E0
1.185617772E1,-4.923570156E-1,-5.650499370E-3,-2.552727461E0
1.187284439E1,-3.970620930E-1,-1.498145908E-1,-2.020664215E0
1.188951105E1,-3.970620930E-1,-1.498145908E-1,-2.020664215E0
1.190617772E1,-7.031053901E-1,-5.114465356E-1,-1.811748624E0
1.192284438E1,-6.951641440E-1,-8.425352573E-1,-1.209435940E0
1.192284438E1,-6.951641440E-1,-8.425352573E-1,-1.209435940E0
1.195617772E1,-6.951641440E-1,-8.425352573E-1,-1.209435940E0
1.197284438E1,1.087339297E-1,-8.382592201E-1,7.954223156E-1
1.198951105E1,1.023198485E0,-5.390881747E-2,1.257236123E0
1.200617771E1,1.023198485E0,-5.390881747E-2,1.257236123E0
1.202284438E1,1.023198485E0,-5.390881747E-2,1.257236123E0
1.203951105E1,2.208887100E0,1.081077933E0,3.046458960E0
1.205617771E1,3.284008980E0,5.532907844E-1,3.532096624E0
1.207284438E1,3.284008980E0,5.532907844E-1,3.532096624E0
1.208951104E1,1.706145287E0,-4.108218193E0,3.055011034E0
1.210617771E1,2.541808367E0,1.067486182E-1,2.664668560E0
1.212284438E1,2.877173185E0,2.047466040E0,2.592586517E0
1.213951104E1,3.342041254E0,1.128725410E0,2.356792688E0
1.215617771E1,3.342041254E0,1.128725410E0,2.356792688E0
1.217284437E1,1.905898154E-1,3.211621642E-1,1.594433427E0
1.218951104E1,-1.322522283E0,-1.450956583E0,4.667770565E-1
1.220617771E1,-1.832594395E0,-9.422589093E-2,-5.466476083E-1
1.222284437E1,-1.832594395E0,-9.422589093E-2,-5.466476083E-1
1.223951104E1,-1.459966779E0,6.418661475E-1,2.065486610E-1
1.225617770E1,-7.037162185E-1,-5.574141070E-2,1.656130791E0
1.227284437E1,4.764745384E-2,-8.872810751E-2,2.037310362E0
1.228951104E1,1.313359290E-1,-3.404043913E-1,2.064799309E0
1.230617770E1,-3.970621154E-2,-1.660483241E0,2.029369116E0
1.232284437E1,-3.970621154E-2,-1.660483241E0,2.029369116E0
1.233951103E1,1.611461282E0,-9.873101711E-1,1.399567604E0
1.235617770E1,1.549153090E0,-6.220130324E-1,1.227303743E0
1.237284437E1,1.245553255E0,9.008728266E-1,1.097800374E0
1.238951103E1,9.144645929E-1,1.464090109E0,1.063591957E0
1.240617770E1,9.144645929E-1,1.464090109E0,1.063591957E0
1.242284436E1,3.359756172E-1,1.519526094E-1,6.854666471E-1
1.243951103E1,-2.864955962E-1,-5.377137065E-1,6.897426844E-1
1.245617770E1,-4.783071280E-1,-6.385064125E-1,3.549887836E-1
1.247284436E1,-4.783071280E-1,-6.385064125E-1,3.549887836E-1
1.248951103E1,6.365211010E-1,-4.216494262E-1,-8.368083835E-1
1.250617769E1,9.303470850E-1,1.687055826E0,-1.226540089E0
1.252284436E1,-8.545998335E-1,2.511112452E0,-1.803807378E0
1.253951103E1,-8.545998335E-1,2.511112452E0,-1.803807378E0
1.255617769E1,-2.516762972E0,1.568548083E0,-3.388390541E0
1.257284436E1,-2.067777395E0,3.150687933E0,-4.440910816E0
1.258951102E1,-1.252883673E0,4.050491810E0,-4.855687618E0
1.260617769E1,-9.474512935E-1,2.161086798E0,-3.778733253E0
1.262284436E1,-1.271209598E0,1.255174398E0,-2.996215343E0
1.263951102E1,-2.510654211E0,-2.860374451E-1,-1.952247500E0
1.265617769E1,-2.367711782E0,5.238165334E-2,-2.412839413E0
1.267284435E1,-2.367711782E0,5.238165334E-2,-2.412839413E0
1.268951102E1,-2.113592178E-1,3.174511433E0,-2.837390661E0
1.270617769E1,-5.235111117E-1,9.778417945E-1,-2.411006927E0
1.272284435E1,-1.394604325E0,1.005941629E0,-2.469650030E0
1.273951102E1,-1.394604325E0,1.005941629E0,-2.469650030E0
1.275617768E1,-1.626732945E0,5.422952175E-1,-2.539288521E0
1.277284435E1,-1.744629860E0,-7.406735420E-2,-1.960799575E0
1.278951102E1,-1.744629860E0,-7.406735420E-2,-1.960799575E0
1.280617768E1,-1.654832721E0,-7.154753804E-1,-7.030289769E-1
1.282284435E1,-1.313970089E0,-5.853611827E-1,-4.214203358E-1
1.283951101E1,-1.313970089E0,-5.853611827E-1,-4.214203358E-1
1.285617768E1,2.559523284E-1,-1.797469556E-1,5.394699574E-1
1.287284435E1,5.656607747E-1,-2.157879770E-1,9.615775347E-1
1.288951101E1,1.287092090E0,-2.689332068E-1,1.764864683E0
1.290617768E1,1.287092090E0,-2.689332068E-1,1.764864683E0
1.292284434E1,1.287092090E0,-2.689332068E-1,1.764864683E0
1.293951101E1,2.571129799E0,1.244789720E0,3.598069906E0
1.295617768E1,4.559494495E0,4.024224281E0,2.804556608E0
1.297284434E1,3.025002480E0,9.269873053E-2,1.626809239E0
1.298951101E1,5.607738495E-1,2.979492843E-1,8.406262994E-1
1.300617767E1,-2.864955962E-1,-8.327614069E-1,8.442915082E-1
1.302284434E1,-4.416552484E-1,-1.331837893E0,8.931606412E-1
1.302284434E1,-4.416552484E-1,-1.331837893E0,8.931606412E-1
1.305617767E1,-4.416552484E-1,-1.331837893E0,8.931606412E-1
1.307284434E1,1.698204130E-1,2.393062711E-1,9.353103638E-1
1.308951100E1,1.698204130E-1,2.393062711E-1,9.353103638E-1
1.310617767E1,-1.802051067E-1,-2.548833191E-1,1.080085278E0
1.312284434E1,-1.802051067E-1,-2.548833191E-1,1.080085278E0
1.313951100E1,1.546098709E0,1.034652233E0,1.945680737E0
1.315617767E1,1.342680812E0,4.060723484E-1,1.717217207E0
1.317284433E1,1.230892539E0,3.833176568E-2,1.447214961E0
1.318951100E1,1.230892539E0,3.833176568E-2,1.447214961E0
1.320617767E1,1.663384795E0,1.629634500E0,1.411784887E0
1.322284433E1,1.382387042E0,1.801898360E0,1.279227257E0
1.323951100E1,1.382387042E0,1.801898360E0,1.279227257E0
1.325617766E1,1.182634234E0,1.111621141E0,1.309770465E0
1.327284433E1,1.351843715E0,1.388342977E0,1.381852508E0
1.328951100E1,1.243109822E0,1.475696564E0,1.208366871E0
1.330617766E1,1.130099893E0,1.910021424E0,8.332959414E-1
1.332284433E1,1.130099893E0,1.910021424E0,8.332959414E-1
1.333951099E1,6.933315396E-1,1.732870698E0,5.095375776E-1
1.335617766E1,5.174024701E-1,1.478139997E0,3.458258212E-1
1.337284433E1,3.268126547E-1,9.430224895E-1,1.705076247E-1
1.338951099E1,3.268126547E-1,9.430224895E-1,1.705076247E-1
1.340617766E1,4.838049114E-1,3.052796721E-1,2.206749097E-2
1.342284432E1,9.627228975E-1,4.543306828E-1,-2.985601686E-2
1.343951099E1,9.627228975E-1,4.543306828E-1,-2.985601686E-2
1.345617766E1,3.616319597E-1,1.649793029E0,3.623191714E-1
1.347284432E1,1.429423541E-1,1.710879564E0,3.116174042E-1
1.348951099E1,-4.996874034E-1,5.532907844E-1,5.138900131E-2
1.350617765E1,-4.996874034E-1,5.532907844E-1,5.138900131E-2
1.352284432E1,-5.693259835E-1,1.533728719E0,-1.599702090E-1
1.353951099E1,-8.002328873E-1,2.207512617E0,-3.242928386E-1
1.355617765E1,-8.912517428E-1,2.974147797E0,-1.486157656E0
1.357284432E1,-8.912517428E-1,2.974147797E0,-1.486157656E0
1.358951098E1,-5.155698657E-1,5.174482822E0,-4.296135426E0
1.360617765E1,-1.642615438E0,3.772548199E0,-3.498346329E0
1.362284432E1,-1.642615438E0,3.772548199E0,-3.498346329E0
1.363951098E1,-1.642615438E0,3.772548199E0,-3.498346329E0
1.365617765E1,-1.072067738E0,2.936885118E0,-3.296760798E0
1.367284431E1,-1.301141977E-1,3.499491692E0,-3.458029270E0
1.368951098E1,-1.301141977E-1,3.499491692E0,-3.458029270E0
1.370617765E1,-1.651167512E0,2.792110205E0,-1.822744131E0
1.372284431E1,-2.136805058E0,2.300364017E0,-1.603443742E0
1.373951098E1,-2.419635296E0,1.702327371E0,-1.133077860E0
1.375617764E1,-2.419635296E0,1.702327371E0,-1.133077860E0
1.377284431E1,-1.626121998E0,1.760359526E0,-3.591121435E-1
1.378951098E1,-1.518609881E0,1.573434949E0,-3.175733387E-1
1.380617764E1,-1.580918074E0,1.494022489E0,-5.130500793E-1
1.382284431E1,-1.580918074E0,1.494022489E0,-5.130500793E-1
1.383951097E1,-1.580918074E0,1.494022489E0,-5.130500793E-1
1.385617764E1,-1.246164203E0,1.296713233E0,-6.388881803E-1
1.387284431E1,-1.246164203E0,1.296713233E0,-6.388881803E-1
1.388951097E1,-7.867938280E-1,6.149880886E-1,3.018435538E-1
1.390617764E1,-7.867938280E-1,6.149880886E-1,3.018435538E-1
1.392284430E1,-9.162971750E-3,-3.837758005E-1,8.400154114E-1
1.393951097E1,7.336485982E-1,-1.681405306E-1,1.409341455E0
1.395617764E1,7.336485982E-1,-1.681405306E-1,1.409341455E0
1.397284430E1,1.324354887E0,3.117701054E0,2.419711828E0
1.398951097E1,1.182023406E0,3.001025915E0,2.507676363E0
1.400617763E1,8.057306409E-1,2.107330799E0,2.235841513E0
1.402284430E1,8.057306409E-1,2.107330799E0,2.235841513E0
1.403951097E1,8.057306409E-1,2.107330799E0,2.235841513E0
1.405617763E1,1.021976829E0,9.330959618E-2,4.789943397E-1
1.407284430E1,1.985310555E0,2.893971801E-1,-3.481165767E-1
1.408951096E1,1.985310555E0,2.893971801E-1,-3.481165767E-1
1.410617763E1,1.278540015E0,2.944215536E0,-1.429347277E0
1.412284430E1,1.607185245E0,4.540405273E0,-1.702403784E0
1.413951096E1,1.607185245E0,4.540405273E0,-1.702403784E0
1.415617763E1,-7.556397319E-1,-1.044731498E0,1.979965419E-1
1.417284429E1,-1.211955667E0,-1.413693786E0,3.745364547E-1
1.418951096E1,-1.818544507E0,-1.642157197E0,5.749000907E-1
1.420617763E1,-1.818544507E0,-1.642157197E0,5.749000907E-1
1.422284429E1,-1.624289393E0,-1.399033070E0,9.939533472E-1
1.423951096E1,-1.370780587E0,-1.176678300E0,1.029994369E0
1.425617762E1,-7.342594862E-1,-4.644099474E-1,1.055039883E0
1.427284429E1,-7.342594862E-1,-4.644099474E-1,1.055039883E0
1.428951096E1,2.913824916E-1,1.878867388E0,1.528460026E0
1.430617762E1,3.384190798E-1,2.100000381E0,1.717217207E0
1.432284429E1,3.200931549E-1,1.426216602E0,1.967671871E0
1.433951095E1,3.200931549E-1,1.426216602E0,1.967671871E0
1.435617762E1,1.111773849E0,-1.214551926E0,1.799684048E0
1.437284429E1,2.180787325E0,1.024725661E-1,1.973780513E0
1.438951095E1,3.911978006E0,3.390757561E0,2.348240614E0
1.440617762E1,3.911978006E0,3.390757561E0,2.348240614E0
1.442284428E1,3.431838274E0,4.597826481E0,1.621922374E0
1.443951095E1,3.668853760E0,5.061472893E0,1.081917882E0
1.445617762E1,3.360367060E0,4.291783333E0,2.713003159E-1
1.447284428E1,3.360367060E0,4.291783333E0,2.713003159E-1
1.448951095E1,-1.389717340E0,-7.857248187E-1,6.634755135E-1
1.450617761E1,-1.553429127E0,-3.680460155E-2,4.221839309E-1
1.452284428E1,-6.585122347E-1,7.518218160E-1,-1.899025887E-1
1.453951095E1,-6.585122347E-1,7.518218160E-1,-1.899025887E-1
1.455617761E1,-1.924224049E-1,1.434157729E0,-7.207440734E-1
1.457284428E1,-8.319978118E-1,1.864817500E0,-8.392518759E-1
1.458951094E1,-1.737299442E0,2.770118952E0,-1.174005747E0
1.460617761E1,-1.737299442E0,2.770118952E0,-1.174005747E0
1.462284428E1,-1.737299442E0,2.770118952E0,-1.174005747E0
1.463951094E1,-1.777005672E0,3.988794327E0,-2.221028090E0
1.465617761E1,-1.777005672E0,3.988794327E0,-2.221028090E0
1.467284427E1,-1.892459035E0,1.674227595E0,-3.546604633E0
1.468951094E1,-1.892459035E0,1.674227595E0,-3.546604633E0
1.470617761E1,-7.110465765E-1,5.655080676E-1,-4.027355194E0
1.472284427E1,-7.110465765E-1,5.655080676E-1,-4.027355194E0
1.472284427E1,-8.411607742E-1,9.918916821E-1,-3.510563612E0
1.475617760E1,-1.885739565E0,6.595812440E-1,-2.520962477E0
1.477284427E1,-1.485012293E0,2.824486017E0,-2.968115568E0
1.478951094E1,-6.163625717E-1,2.635728836E0,-3.081125498E0
1.480617760E1,-4.905244112E-1,1.234405041E0,-2.585103273E0
1.482284427E1,-8.423825502E-1,7.683151960E-1,-2.376187563E0
1.483951093E1,-1.341459036E0,7.009673119E-2,-1.919871688E0
1.485617760E1,-1.563813806E0,-3.013090491E-1,-1.563737512E0
1.487284427E1,-1.583972335E0,-5.303833485E-1,-1.379256368E0
1.488951093E1,-1.538768411E0,-8.688024282E-1,-1.169118881E0
1.490617760E1,-1.318857074E0,-1.319009781E0,-4.385245442E-1
1.492284426E1,-1.318857074E0,-1.319009781E0,-4.385245442E-1
1.493951093E1,-1.318857074E0,-1.319009781E0,-4.385245442E-1
1.495617760E1,8.613193035E-2,-8.321505189E-1,1.163773775E0
1.497284426E1,8.613193035E-2,-8.321505189E-1,1.163773775E0
1.498951093E1,1.762344837E0,6.986765862E-1,2.547993422E0
1.500617759E1,1.762344837E0,6.986765862E-1,2.547993422E0
1.502284426E1,2.758665323E0,2.220951557E0,3.868072033E0
1.503951093E1,3.527133226E0,1.413999200E0,3.960312605E0
1.505617759E1,2.302960157E0,-1.961639524E0,3.464290619E0
1.507284426E1,2.302960157E0,-1.961639524E0,3.464290619E0
1.508951092E1,1.070845962E0,2.320522547E0,1.142393470E0
1.510617759E1,1.801440239E0,-3.375028074E-2,1.931630850E0
1.512284426E1,1.801440239E0,-3.375028074E-2,1.931630850E0
1.513951092E1,4.679224193E-1,2.105956376E-1,2.754465580E0
1.515617759E1,-1.276707351E-1,1.721111536E-1,2.255389214E0
1.517284425E1,-6.322450638E-1,-3.069595434E-2,1.056872368E0
1.518951092E1,-6.322450638E-1,-3.069595434E-2,1.056872368E0
1.520617759E1,-6.322450638E-1,-3.069595434E-2,1.056872368E0
1.522284425E1,-2.761108875E-1,-5.963567495E-1,1.251127481E0
1.523951092E1,-3.451386094E-1,-4.760163724E-1,1.309770465E0
1.525617758E1,-3.451386094E-1,-4.760163724E-1,1.309770465E0
1.527284425E1,-3.451386094E-1,-4.760163724E-1,1.309770465E0
1.528951092E1,-1.484401375E-1,-6.067414284E-1,9.915099144E-1
1.530617758E1,7.086031139E-2,-5.615374446E-1,9.273691177E-1
1.532284425E1,7.086031139E-2,-5.615374446E-1,9.273691177E-1
1.533951091E1,2.706131041E-1,-1.088866442E-1,7.825941443E-1
1.535617758E1,5.076286197E-1,1.989891976E-1,5.413025618E-1
1.537284425E1,8.167262077E-1,5.299251899E-2,4.362338185E-1
1.538951091E1,1.081841469E0,-4.718930274E-2,3.384954333E-1
1.540617758E1,1.164308310E0,9.147699922E-2,3.409388959E-1
1.542284424E1,1.164308310E0,9.147699922E-2,3.409388959E-1
1.543951091E1,1.029918075E0,4.775435328E-1,5.553524494E-1
1.545617758E1,1.029918075E0,4.775435328E-1,5.553524494E-1
1.547284424E1,4.795288444E-1,1.831067204E-1,7.813724279E-1
1.548951091E1,4.795288444E-1,1.831067204E-1,7.813724279E-1
1.550617757E1,-2.596175373E-1,-1.486386776E0,4.887681901E-1
1.552284424E1,-2.596175373E-1,-1.486386776E0,4.887681901E-1
1.553951091E1,-7.941241860E-1,-9.873101711E-1,-6.822596192E-1
1.555617757E1,-1.415373683E0,-6.220130324E-1,-1.174616575E0
1.557284424E1,-2.199723959E0,-3.324631453E-1,-1.445840597E0
1.558951090E1,-2.199723959E0,-3.324631453E-1,-1.445840597E0
1.560617757E1,-2.767217398E0,2.008370638E0,-2.160552263E0
1.562284424E1,-2.404363871E0,4.847059250E0,-2.977278471E0
1.563951090E1,-2.404363871E0,4.847059250E0,-2.977278471E0
1.565617757E1,-1.728747338E-1,2.231947184E0,-2.981554747E0
1.567284423E1,3.518581092E-1,8.831577301E-1,-2.931463718E0
1.568951090E1,-3.481929377E-2,-4.442514181E-1,-3.029813051E0
1.570617757E1,-3.481929377E-2,-4.442514181E-1,-3.029813051E0
1.572284423E1,-1.528383732E0,-4.631882310E-1,-2.958952665E0
1.573951090E1,-1.965762854E0,-5.994110703E-1,-3.023093462E0
1.575617756E1,-1.792888165E0,-5.035052896E-1,-2.919857264E0
1.577284423E1,-1.792888165E0,-5.035052896E-1,-2.919857264E0
1.578951090E1,-1.034804940E0,-2.738201320E-1,-1.795255184E0
1.580617756E1,-1.034804940E0,-2.738201320E-1,-1.795255184E0
1.582284423E1,-5.674933791E-1,3.938550651E-1,-2.084194183E0
1.583951089E1,-5.674933791E-1,3.938550651E-1,-2.084194183E0
1.585617756E1,-5.674933791E-1,3.938550651E-1,-2.084194183E0
1.587284423E1,-5.674933791E-1,3.938550651E-1,-2.084194183E0
1.588951089E1,-5.845975876E-1,-8.248201609E-1,-7.946587205E-1
1.590617756E1,-5.845975876E-1,-8.248201609E-1,-7.946587205E-1
1.592284422E1,-4.001164436E-1,-1.403309107E0,2.456440032E-1
1.593951089E1,1.166751757E-1,-1.002581835E0,7.422770858E-1
1.595617756E1,8.216131330E-1,-4.167625010E-1,1.107574224E0
1.597284422E1,1.557094336E0,2.490801066E-1,1.770973325E0
1.598951089E1,1.855196357E0,6.479747891E-1,2.152763844E0
1.600617755E1,2.410472393E0,1.331532478E0,3.056843758E0
1.602284422E1,3.678016901E0,1.657734275E0,3.847302675E0
1.603951089E1,3.678016901E0,1.657734275E0,3.847302675E0
1.605617755E1,3.302335024E0,-1.259145021E0,3.978027821E0
1.607284422E1,2.226602077E0,-2.976438701E-1,3.091052055E0
1.608951088E1,2.226602077E0,-2.976438701E-1,3.091052055E0
1.610617755E1,2.557690859E0,1.356577992E0,2.731252670E0
1.612284422E1,1.038470149E0,8.281798959E-1,2.530278206E0
1.613951088E1,-4.324922562E-1,-1.392924428E0,1.797240496E0
1.615617755E1,-4.324922562E-1,-1.392924428E0,1.797240496E0
1.617284421E1,-1.395825982E0,-3.685041666E-1,5.437459946E-1
1.618951088E1,-1.466075420E0,-4.841103405E-2,2.877936661E-1
1.620617755E1,-1.141095400E0,-2.707658112E-1,4.020253718E-1
1.622284421E1,-5.998691916E-1,-7.405208349E-1,9.963968396E-1
1.623951088E1,-3.762927055E-1,-9.738711715E-1,1.475925684E0
1.625617754E1,-3.329212964E-1,-1.038012028E0,1.579772711E0
1.627284421E1,-3.329212964E-1,-1.038012028E0,1.579772711E0
1.628951088E1,1.325576603E-1,-9.414953589E-1,1.381852508E0
1.630617754E1,1.325576603E-1,-9.414953589E-1,1.381852508E0
1.632284421E1,3.579667509E-1,-2.591593862E-1,1.127121925E0
1.633951087E1,3.579667509E-1,-2.591593862E-1,1.127121925E0
1.635617754E1,9.071341753E-1,-4.918988645E-1,7.410553098E-1
1.637284421E1,1.169806004E0,-4.002691507E-1,7.129555345E-1
1.638951087E1,1.084285021E0,-1.766926348E-1,7.221185565E-1
1.640617754E1,5.882627964E-1,1.440113783E-1,6.964622140E-1
1.642284420E1,5.882627964E-1,1.440113783E-1,6.964622140E-1
1.643951087E1,5.882627964E-1,1.440113783E-1,6.964622140E-1
1.645617754E1,-2.076940238E-2,-7.948877811E-1,6.182715297E-1
1.647284420E1,-2.076940238E-2,-7.948877811E-1,6.182715297E-1
1.648951087E1,-1.685986817E-1,-1.022740364E0,-8.849903196E-2
1.650617753E1,-1.685986817E-1,-1.022740364E0,-8.849903196E-2
1.652284420E1,-3.897317350E-1,-8.376483321E-1,-3.389535844E-1
1.653951087E1,-1.017700672E0,7.620538026E-2,-5.368737578E-1
1.655617753E1,-1.017700672E0,7.620538026E-2,-5.368737578E-1
1.657284420E1,-1.770897031E0,7.512109876E-1,-1.219209790E0
1.658951086E1,-1.770897031E0,7.512109876E-1,-1.219209790E0
1.660617753E1,-1.770897031E0,3.445735455E0,-2.673067808E0
1.662284420E1,-1.770897031E0,3.445735455E0,-2.673067808E0
1.663951086E1,-1.474016666E0,4.024835110E0,-3.148931503E0
1.665617753E1,-5.009090900E-1,1.839771986E0,-3.079903841E0
1.667284419E1,-5.009090900E-1,1.839771986E0,-3.079903841E0
1.668951086E1,-8.429934084E-2,-8.235984445E-1,-2.880761862E0
1.670617753E1,-3.885099888E-1,-5.254964232E-1,-2.969337225E0
1.672284419E1,-7.874047160E-1,5.807796717E-1,-3.181307316E0
1.673951086E1,-7.874047160E-1,5.807796717E-1,-3.181307316E0
1.675617752E1,-7.874047160E-1,5.807796717E-1,-3.181307316E0
1.677284419E1,-7.281508446E-1,2.912297845E-1,-2.480034590E0
1.677284419E1,-7.281508446E-1,2.912297845E-1,-2.480034590E0
1.680617752E1,-7.281508446E-1,2.912297845E-1,-2.480034590E0
1.682284419E1,-7.281508446E-1,2.912297845E-1,-2.480034590E0
1.683951085E1,-5.980366468E-1,-5.085449293E-2,-1.849011302E0
1.685617752E1,-5.980366468E-1,-5.085449293E-2,-1.849011302E0
1.687284419E1,-4.367683232E-1,-5.902481079E-1,-8.826232553E-1
1.688951085E1,-4.367683232E-1,-5.902481079E-1,-8.826232553E-1
1.690617752E1,-2.528980076E-1,-8.865175247E-1,4.075231552E-1
1.692284418E1,-2.528980076E-1,-8.865175247E-1,4.075231552E-1
1.693951085E1,1.160032272E0,-3.031416535E-1,1.370856881E0
1.695617752E1,1.160032272E0,-3.031416535E-1,1.370856881E0
1.697284418E1,2.045175314E0,1.260061383E0,2.577925682E0
1.698951085E1,2.948033333E0,1.050534725E0,3.487503290E0
1.700617751E1,4.141052246E0,-3.092502952E-1,3.643884659E0
1.702284418E1,4.141052246E0,-3.092502952E-1,3.643884659E0
1.703951085E1,2.598007917E0,-3.141372204E-1,2.471024275E0
1.705617751E1,3.247357130E0,9.466876984E-1,2.479576588E0
1.707284418E1,3.247357130E0,9.466876984E-1,2.479576588E0
1.708951084E1,3.247357130E0,9.466876984E-1,2.479576588E0
1.710617751E1,3.247357130E0,9.466876984E-1,2.479576588E0
1.712284418E1,-1.444695234E0,-5.658134818E-1,8.082504869E-1
1.713951084E1,-1.444695234E0,-5.658134818E-1,8.082504869E-1
1.715617751E1,-1.766010046E0,-7.008146048E-1,8.730021119E-1
1.717284417E1,-9.334014058E-1,-7.564033270E-1,8.943824172E-1
1.718951084E1,-2.987128794E-1,-3.550651670E-1,1.129565358E0
1.720617751E1,-2.987128794E-1,-3.550651670E-1,1.129565358E0
1.722284417E1,-2.834412456E-1,-3.985892609E-2,1.467984438E0
1.723951084E1,-1.795942485E-1,-1.931859851E-1,1.696447849E0
1.725617750E1,-1.795942485E-1,-1.931859851E-1,1.696447849E0
1.727284417E1,1.182023406E0,-1.766162753E0,1.985386848E0
1.728951084E1,1.274874806E0,-2.157116175E0,1.559003234E0
1.730617750E1,1.285870314E0,-1.514486551E0,8.754456043E-1
1.732284417E1,9.425643682E-1,2.057087123E-1,7.862593532E-1
1.733951083E1,8.759800792E-1,1.247843981E0,5.950586796E-1
1.735617750E1,9.566142559E-1,1.246622324E0,3.934732676E-1
1.737284417E1,9.566142559E-1,1.246622324E0,3.934732676E-1
1.738951083E1,4.642572403E-1,5.482511222E-2,1.918879002E-1
1.740617750E1,4.642572403E-1,5.482511222E-2,1.918879002E-1
1.742284416E1,2.333503515E-1,-2.805396616E-1,8.192460537E-1
1.743951083E1,-1.044578776E-1,-7.924443483E-1,1.016555309E0
1.745617750E1,-1.044578776E-1,-7.924443483E-1,1.016555309E0
1.747284416E1,-1.569922417E-1,-1.085048556E0,2.151007652E-1
1.748951083E1,-9.285144508E-2,-5.358811021E-1,-2.839757502E-1
1.750617749E1,-9.517273307E-1,1.250745654E-1,-1.100091100E0
1.752284416E1,-9.517273307E-1,1.250745654E-1,-1.100091100E0
1.753951083E1,-9.517273307E-1,1.250745654E-1,-1.100091100E0
1.755617749E1,-2.326173067E0,2.425591230E0,-2.575940371E0
1.757284416E1,-2.326173067E0,2.425591230E0,-2.575940371E0
1.758951082E1,-1.422093153E0,5.063916206E0,-4.290027142E0
1.760617749E1,-1.637117565E-1,2.091448307E0,-3.635179996E0
1.762284416E1,-3.604102135E-2,6.027708054E-1,-3.204520226E0
1.763951082E1,-8.637627959E-1,-1.609170556E0,-2.503858328E0
1.765617749E1,-8.637627959E-1,-1.609170556E0,-2.503858328E0
1.767284415E1,-1.133764982E0,1.672394991E0,-3.206963778E0
1.768951082E1,-8.106175661E-1,2.402989388E0,-3.054247618E0
1.770617749E1,-8.423825502E-1,5.160280466E-1,-2.223471403E0
1.772284415E1,-8.423825502E-1,5.160280466E-1,-2.223471403E0
1.773951082E1,-7.208204269E-1,4.665479660E-1,-1.874667645E0
1.775617748E1,-6.524035931E-1,6.058251262E-1,-2.012723207E0
1.777284415E1,-7.586940527E-1,1.348484010E-1,-2.059759617E0
1.778951082E1,-7.586940527E-1,1.348484010E-1,-2.059759617E0
1.780617748E1,-7.507528067E-1,-4.735729098E-1,-1.312672019E0
1.782284415E1,-5.406153202E-1,-8.089376688E-1,-5.374846458E-1
1.783951081E1,-2.901607752E-1,-8.706350327E-1,1.399643868E-1
1.785617748E1,2.364046723E-1,-7.600684762E-1,6.665298343E-1
1.787284415E1,5.534434915E-1,-6.042979956E-1,8.797216415E-1
1.788951081E1,1.307250619E0,8.964440972E-2,1.376965523E0
1.790617748E1,1.676823854E0,1.190422773E0,2.316475630E0
1.792284414E1,1.676823854E0,1.190422773E0,2.316475630E0
1.793951081E1,2.762941360E0,5.777253509E-1,3.539426804E0
1.795617748E1,3.830733061E0,6.339249015E-1,3.789270639E0
1.797284414E1,2.637714148E0,-3.477195024E0,3.246211767E0
1.798951081E1,2.637714148E0,-3.477195024E0,3.246211767E0
1.800617747E1,2.637714148E0,-3.477195024E0,3.246211767E0
1.802284414E1,3.816072226E0,9.326378107E-1,2.814330339E0
1.803951081E1,3.816072226E0,9.326378107E-1,2.814330339E0
1.805617747E1,-6.444623470E-1,-1.834579706E0,1.754480004E0
1.807284414E1,-1.163697362E0,-1.795484304E0,1.293887973E0
1.808951080E1,-1.601076603E0,-6.433933377E-1,4.679987729E-1
1.810617747E1,-1.601076603E0,-6.433933377E-1,4.679987729E-1
1.812284414E1,-1.601076603E0,-6.433933377E-1,4.679987729E-1
1.813951080E1,-7.788525820E-1,-1.400407553E-1,1.192484379E0
1.815617747E1,-7.257073522E-1,-6.721040010E-1,1.467373610E0
1.817284413E1,-7.257073522E-1,-6.721040010E-1,1.467373610E0
1.818951080E1,-7.257073522E-1,-6.721040010E-1,1.467373610E0
1.820617747E1,9.529490769E-2,-1.750891209E0,1.821064234E0
1.822284413E1,9.462295175E-1,-1.810755968E0,1.243186235E0
1.823951080E1,9.462295175E-1,-1.810755968E0,1.243186235E0
1.825617746E1,9.462295175E-1,-1.810755968E0,1.243186235E0
1.827284413E1,6.676751971E-1,1.647807807E-1,5.272526741E-1
1.828951080E1,7.507528067E-1,6.076577306E-1,4.374555349E-1
1.830617746E1,6.921098232E-1,4.763218164E-1,2.432005405E-1
1.832284413E1,6.921098232E-1,4.763218164E-1,2.432005405E-1
1.833951079E1,2.419024557E-1,2.576322258E-1,2.175442129E-1
1.835617746E1,2.419024557E-1,2.576322258E-1,2.175442129E-1
1.837284413E1,-2.357937992E-1,-1.180496216E-1,7.715985775E-1
1.838951079E1,-3.060432673E-1,-2.872591615E-1,8.265764117E-1
1.840617746E1,-3.762927055E-1,-7.105884552E-1,3.971384764E-1
1.842284412E1,-3.762927055E-1,-7.105884552E-1,3.971384764E-1
1.843951079E1,-7.153226733E-1,1.269071549E-1,-8.575778008E-1
1.845617746E1,-1.162475705E0,4.689914286E-1,-1.089706421E0
1.847284412E1,-1.987753987E0,9.130901098E-1,-1.590615511E0
1.848951079E1,-1.945604324E0,2.637561321E0,-2.345644474E0
1.850617745E1,-1.945604324E0,2.637561321E0,-2.345644474E0
1.852284412E1,-1.722027779E0,3.841575861E0,-3.425653219E0
1.853951079E1,-8.686497211E-1,2.900233269E0,-3.810498238E0
1.853951079E1,-8.686497211E-1,2.900233269E0,-3.810498238E0
1.857284412E1,-8.686497211E-1,2.900233269E0,-3.810498238E0
1.858951078E1,2.553414702E-1,-1.518762589E0,-2.687728643E0
1.860617745E1,2.553414702E-1,-1.518762589E0,-2.687728643E0
1.862284412E1,-5.711585879E-1,1.525787473E0,-3.737805128E0
1.863951078E1,-5.711585879E-1,1.525787473E0,-3.737805128E0
1.865617745E1,-9.645555019E-1,-4.570795596E-1,-2.288223028E0
1.867284411E1,-9.334014058E-1,-8.078686893E-2,-1.742110014E0
1.868951078E1,-3.988946974E-1,5.587885380E-1,-2.155665398E0
1.870617745E1,-3.988946974E-1,5.587885380E-1,-2.155665398E0
1.872284411E1,-4.764745235E-1,-4.718930274E-2,-1.984623313E0
1.873951078E1,-5.644390583E-1,-4.039343297E-1,-1.332830548E0
1.875617744E1,-5.644390583E-1,-4.039343297E-1,-1.332830548E0
1.877284411E1,-2.076940238E-1,-7.606793642E-1,2.951240540E-1
1.878951078E1,-2.076940238E-1,-7.606793642E-1,2.951240540E-1
1.880617744E1,6.560688019E-1,-3.342957497E-1,1.160108566E0
1.882284411E1,6.560688019E-1,-3.342957497E-1,1.160108566E0
1.883951077E1,1.605963469E0,6.278162599E-1,2.455142021E0
1.885617744E1,1.571144223E0,6.125446558E-1,2.938335896E0
1.887284411E1,1.571144223E0,6.125446558E-1,2.938335896E0
1.888951077E1,3.258963585E0,-9.666935354E-2,3.343339205E0
1.890617744E1,3.258963585E0,-9.666935354E-2,3.343339205E0
1.892284410E1,1.718362570E0,-1.655596256E0,2.530278206E0
1.893951077E1,1.718362570E0,-1.655596256E0,2.530278206E0
1.895617744E1,3.013396025E0,9.069814682E-1,2.286543131E0
1.897284410E1,3.013396025E0,9.069814682E-1,2.286543131E0
1.898951077E1,2.052505612E-1,-8.200860023E-2,2.183917999E0
1.900617743E1,2.052505612E-1,-8.200860023E-2,2.183917999E0
1.902284410E1,-1.444695234E0,-7.777835727E-1,6.378191710E-1
1.903951077E1,-1.456301689E0,-5.151117444E-1,5.437459946E-1
1.905617743E1,-1.526551127E0,-6.898190379E-1,9.194278717E-1
1.907284410E1,-1.526551127E0,-6.898190379E-1,9.194278717E-1
1.908951076E1,-3.952295184E-1,1.873827726E-1,1.501582026E0
1.910617743E1,-1.069013327E-1,6.131555438E-1,1.378798127E0
1.912284410E1,-3.384190798E-1,7.070759684E-2,1.351920128E0
1.913951076E1,-3.384190798E-1,7.070759684E-2,1.351920128E0
1.915617743E1,1.179579854E0,-2.083201647E0,1.113682866E0
1.917284409E1,1.384219646E0,-2.336710453E0,8.931606412E-1
1.918951076E1,1.178358197E0,-1.054505348E0,6.628646255E-1
1.920617743E1,1.178358197E0,-1.054505348E0,6.628646255E-1
1.922284409E1,1.178358197E0,-1.054505348E0,6.628646255E-1
1.923951076E1,7.312051654E-1,1.272278666E0,2.120464295E-1
1.925617742E1,7.312051654E-1,1.272278666E0,2.120464295E-1
1.927284409E1,4.605920315E-1,3.578140438E-1,1.796706021E-1
1.928951076E1,4.605920315E-1,3.578140438E-1,1.796706021E-1
1.930617742E1,-7.330377400E-2,-3.098611534E-1,5.706240535E-1
1.932284409E1,7.941242307E-2,-5.395463109E-1,8.693369627E-1
1.933951075E1,7.941242307E-2,-5.395463109E-1,8.693369627E-1
1.935617742E1,7.941242307E-2,-5.395463109E-1,8.693369627E-1
1.937284409E1,-1.227838174E-1,-1.925751269E-1,1.601229310E-1
1.938951075E1,-1.185077652E-1,6.643154472E-2,-5.411498547E-1
1.940617742E1,-5.913171172E-1,5.899426341E-1,-6.810378432E-1
1.942284408E1,-5.913171172E-1,5.899426341E-1,-6.810378432E-1
1.943951075E1,-5.913171172E-1,5.899426341E-1,-6.810378432E-1
1.945617742E1,-1.594357133E0,1.669340730E0,-1.278463602E0
1.947284408E1,-1.594357133E0,1.669340730E0,-1.278463602E0
1.948951075E1,-1.594357133E0,1.669340730E0,-1.278463602E0
1.950617741E1,-2.012799501E0,2.993084669E0,-3.122053623E0
1.952284408E1,-1.207679629E0,1.305265307E0,-3.400607824E0
1.953951075E1,-1.207679629E0,1.305265307E0,-3.400607824E0
1.955617741E1,-2.736674249E-1,5.177079141E-2,-3.217348337E0
1.957284408E1,-1.551596522E-1,1.046258688E0,-3.144044638E0
1.958951074E1,-1.272431374E0,1.531285286E0,-2.671235323E0
1.960617741E1,-1.272431374E0,1.531285286E0,-2.671235323E0
1.962284408E1,-1.343291640E0,5.777253509E-1,-2.514243126E0
1.963951074E1,5.497783050E-2,1.806174397E0,-2.593044519E0
1.965617741E1,2.028071135E-1,2.041968346E0,-2.238743067E0
1.967284407E1,2.028071135E-1,2.041968346E0,-2.238743067E0
1.968951074E1,-1.051298261E0,-1.907425225E-1,-2.026772976E0
1.970617741E1,-1.517998934E0,-7.759509683E-1,-1.801974773E0
1.972284407E1,-1.455690742E0,-8.419243693E-1,-1.267468095E0
1.973951074E1,-1.455690742E0,-8.419243693E-1,-1.267468095E0
1.975617740E1,-1.086117625E0,-9.146173000E-1,-2.919169962E-1
1.977284407E1,-3.408625424E-1,-6.342303753E-1,2.462548614E-1
1.978951074E1,-3.408625424E-1,-6.342303753E-1,2.462548614E-1
1.980617740E1,1.363450170E0,4.524980783E-1,1.449658513E0
1.982284407E1,1.707367063E0,5.765036345E-1,1.704999924E0
1.983951073E1,2.145967960E0,8.061888218E-1,2.197967768E0
1.985617740E1,2.490495682E0,6.901245117E-1,2.689103127E0
1.987284407E1,3.473988056E0,1.168431640E0,3.034852505E0
1.988951073E1,3.673740864E0,-2.267835438E-1,2.985983372E0
1.990617740E1,3.856389284E0,1.070082426E0,2.375729561E0
1.992284406E1,4.579653263E0,3.756665707E0,1.815566540E0
1.993951073E1,4.579653263E0,3.756665707E0,1.815566540E0
1.995617740E1,9.541707635E-1,1.146440506E0,1.376965523E0
1.997284406E1,9.541707635E-1,1.146440506E0,1.376965523E0
1.998951073E1,9.541707635E-1,1.146440506E0,1.376965523E0
2.000617739E1,-2.018908024E0,4.524980783E-1,9.945642352E-1
2.002284406E1,-2.029292822E0,3.174969554E-1,7.404444814E-1
2.003951073E1,-1.150258422E0,-3.678933084E-1,5.290852785E-1
2.005617739E1,-4.489856064E-1,-6.507236958E-1,9.933425188E-1
2.007284406E1,-1.582139730E-1,2.000582218E-2,1.412395716E0
2.008951072E1,1.832594275E-1,9.540180564E-1,1.590768218E0
2.010617739E1,2.883281708E-1,1.512959361E0,1.775860310E0
2.012284406E1,2.883281708E-1,1.512959361E0,1.775860310E0
2.013951072E1,2.883281708E-1,1.512959361E0,1.775860310E0
2.015617739E1,4.495964646E-1,5.178605914E-1,1.579161763E0
2.017284405E1,1.260214090E0,1.141553521E0,1.415450096E0
2.018951072E1,1.505170822E0,1.176372886E0,1.007392406E0
2.020617739E1,1.505170822E0,1.176372886E0,1.007392406E0
2.022284405E1,1.715308309E0,2.256992579E0,7.911462188E-1
2.023951072E1,1.430034399E0,2.197127819E0,4.796051979E-1
2.025617738E1,1.430034399E0,2.197127819E0,4.796051979E-1
2.027284405E1,9.786053896E-1,-3.678933084E-1,-2.937496006E-1
2.028951072E1,7.000510097E-1,-3.697259128E-1,-2.436586916E-1
2.030617738E1,6.536253095E-1,4.268417656E-1,1.155297980E-1
2.032284405E1,6.536253095E-1,4.268417656E-1,1.155297980E-1
2.033951071E1,1.061072111E0,3.620901108E-1,8.858302832E-1
2.035617738E1,8.203914165E-1,5.447386503E-1,1.521129608E0
2.037284405E1,2.217439115E-1,1.517846227E0,1.598709464E0
2.038951071E1,-8.124501258E-2,2.443306446E0,1.008614063E0
2.040617738E1,-4.098902643E-1,2.572809696E0,7.147881389E-1
2.042284404E1,-9.431751966E-1,1.893528104E0,6.185005885E-3
2.043951071E1,-1.637117565E-1,1.360854030E0,-1.538691998E0
2.045617738E1,-2.761108875E-1,1.747531414E0,-2.434830666E0
2.047284404E1,-4.740310609E-1,1.467755318E0,-2.710941553E0
2.048951071E1,-8.863648176E-1,6.901245117E-1,-3.326082468E0
2.050617737E1,-1.204014540E0,7.860302329E-1,-4.162967205E0
2.052284404E1,-1.439197421E0,9.094249606E-1,-4.773221016E0
2.053951071E1,-1.486233950E0,7.786998749E-1,-4.857520580E0
2.055617737E1,-1.876576662E0,-1.225547433E0,-3.878915071E0
2.057284404E1,-2.241262913E0,-2.020893335E0,-1.661475897E0
2.058951070E1,-1.277318239E0,1.773187757E0,-1.250974655E0
2.060617737E1,-6.982184649E-1,2.902065754E0,-1.568624377E0
2.062284404E1,-8.912517428E-1,2.965595722E0,-1.563737512E0
2.063951070E1,-1.849087715E0,4.799411774E0,-1.125747442E0
2.065617737E1,-1.649945736E0,3.632660151E0,-1.563126564E0
2.067284403E1,-1.563813806E0,2.758512735E0,-1.558239698E0
2.068951070E1,-2.045175314E0,2.884961605E0,-1.153236389E0
2.070617737E1,-2.470947981E0,3.110981703E0,-5.295433998E-1
2.072284403E1,-1.915061116E0,2.293033600E0,-2.913061380E-1
2.073951070E1,-1.783114314E0,2.122602463E0,-1.379790753E-1
2.075617736E1,-1.714697480E0,1.844658971E0,2.126573026E-1
2.077284403E1,-1.714697480E0,1.844658971E0,2.126573026E-1
2.078951070E1,-7.757982612E-1,1.481805205E0,7.447205186E-1
2.080617736E1,-5.082395077E-1,1.457370639E0,7.722094655E-1
2.082284403E1,-1.563813835E-1,1.679114580E0,1.014111876E0
2.083951069E1,-1.563813835E-1,1.679114580E0,1.014111876E0
2.085617736E1,3.378082216E-1,2.170860767E0,1.621922374E0
2.087284403E1,1.012813807E0,7.970257998E-1,1.728823662E0
2.088951069E1,1.901622057E0,-8.425352573E-1,2.166202784E0
2.090617736E1,1.901622057E0,-8.425352573E-1,2.166202784E0
2.092284402E1,5.171581268E0,-3.642281294E-1,4.973126411E0
2.093951069E1,5.171581268E0,-3.642281294E-1,4.973126411E0
2.095617736E1,4.504517078E0,4.894706726E0,2.131383657E0
2.097284402E1,4.504517078E0,4.894706726E0,2.131383657E0
2.098951069E1,1.102610946E0,-3.642281294E-1,-2.737208605E0
2.100617735E1,-2.502102137E0,-1.346498728E0,-3.076238632E0
2.102284402E1,-1.702480197E0,7.102830410E-1,-2.913137674E0
2.103951069E1,-1.547931314E0,4.195113778E-1,-2.398789644E0
2.105617735E1,-1.830761790E0,3.352120519E-1,-1.914984703E0
2.107284402E1,-2.130085468E0,8.110756874E-1,-1.013348341E0
2.108951068E1,-2.130085468E0,8.110756874E-1,-1.013348341E0
2.110617735E1,-9.877683520E-1,1.941786408E0,-3.242928386E-1
2.112284402E1,-6.664534807E-1,2.021198750E0,-3.817141354E-1
2.113951068E1,2.755000293E-1,2.654665709E0,-2.546542585E-1
2.115617735E1,2.755000293E-1,2.654665709E0,-2.546542585E-1
2.117284401E1,1.490510106E0,1.800065756E0,7.245619893E-1
2.118951068E1,1.417206287E0,9.876156449E-1,8.907172084E-1
2.120617735E1,1.043967962E0,-5.707004070E-1,1.132008791E0
2.122284401E1,1.043967962E0,-5.707004070E-1,1.132008791E0
2.123951068E1,1.043967962E0,-5.707004070E-1,1.132008791E0
2.125617734E1,-1.563813835E-1,-2.359465212E-1,1.659185052E0
2.127284401E1,-2.687804960E-2,-4.497492015E-1,1.992717266E0
2.128951068E1,-2.687804960E-2,-4.497492015E-1,1.992717266E0
2.130617734E1,3.783696413E0,3.701076984E0,2.781954527E0
2.132284401E1,3.415344954E0,3.200778723E0,2.569373608E0
2.133951067E1,2.371987820E0,1.494022489E0,1.945680737E0
2.135617734E1,2.371987820E0,1.494022489E0,1.945680737E0
2.137284401E1,1.109330416E0,2.503782034E0,6.475930214E-1
2.138951067E1,2.449567765E-1,1.679725409E0,3.067304790E-1
2.140617734E1,-6.444623470E-1,1.239291906E0,9.659299254E-2
2.142284400E1,-7.183769941E-1,1.473253131E0,2.634354308E-2
2.143951067E1,-5.699368119E-1,1.381012559E0,5.322159454E-2
2.145617734E1,-3.384190798E-1,1.556330800E0,-6.643154658E-3
2.147284400E1,-5.619956255E-1,2.224005938E0,-3.102429509E-1
2.148951067E1,-5.619956255E-1,2.224005938E0,-3.102429509E-1
2.150617733E1,-1.092837095E0,3.433518171E0,-7.812197208E-1
2.152284400E1,-1.092837095E0,3.433518171E0,-7.812197208E-1
2.153951067E1,-2.820973635E0,2.443917274E0,-3.106781960E0
2.155617733E1,-2.820973635E0,2.443917274E0,-3.106781960E0
2.157284400E1,-3.172220707E0,3.304625750E0,-4.859963894E0
2.158951066E1,-2.750113249E0,2.611294270E0,-4.968697548E0
2.160617733E1,-1.838092089E0,1.793346286E0,-4.831253052E0
2.162284400E1,-1.838092089E0,1.793346286E0,-4.831253052E0
2.163951066E1,-2.182008982E0,1.401171088E0,-3.889910460E0
2.165617733E1,-3.892430305E0,6.956222653E-1,-3.235063553E0
2.167284399E1,-3.001789570E0,2.276998460E-1,-2.981554747E0
2.168951066E1,-3.001789570E0,2.276998460E-1,-2.981554747E0
2.170617733E1,-2.238208532E0,1.403614521E0,-2.509356260E0
2.172284399E1,-2.314566612E0,3.101665974E-1,-2.949789762E0
2.173951066E1,-2.772715330E0,-2.402225733E-1,-3.212461472E0
2.175617732E1,-2.772715330E0,-2.402225733E-1,-3.212461472E0
2.177284399E1,-2.733009100E0,-4.802924395E-1,-2.455600023E0
2.178951066E1,-2.274860382E0,-1.438128352E0,-1.869169831E0
2.180617732E1,-2.274860382E0,-1.438128352E0,-1.869169831E0
2.182284399E1,-9.755510688E-1,-2.218202829E0,-2.021198869E-1
2.183951065E1,-6.499601007E-1,-2.309832335E0,1.168278884E-2
2.185617732E1,1.655443609E-1,-2.079536438E0,3.391063213E-1
2.187284399E1,1.655443609E-1,-2.079536438E0,3.391063213E-1
2.188951065E1,1.655443609E-1,-2.079536438E0,3.391063213E-1
2.190617732E1,2.673144341E0,-1.091768026E0,9.487493634E-1
2.192284398E1,2.664592266E0,1.519526094E-1,1.080085278E0
2.193951065E1,2.313344955E0,1.188590169E0,1.645135164E0
2.195617732E1,3.673130035E0,1.898414969E0,1.733099699E0
2.197284398E1,4.100735188E0,2.250884056E0,1.687284827E0
2.198951065E1,2.096487999E0,5.783362389E-1,1.898033261E0
2.200617731E1,2.096487999E0,5.783362389E-1,1.898033261E0
2.202284398E1,2.096487999E0,5.783362389E-1,1.898033261E0
2.203951065E1,2.439793825E0,3.143968344E0,1.929187298E0
2.205617731E1,2.820362568E0,1.372460485E0,2.601138592E0
2.207284398E1,2.820362568E0,1.372460485E0,2.601138592E0
2.208951064E1,1.056796089E-1,-2.292270064E-1,2.027536631E0
2.210617731E1,-5.919279456E-1,-2.982547283E-1,1.638415694E0
2.212284398E1,-2.712239623E-1,-1.907425225E-1,1.693393469E0
2.213951064E1,2.858847082E-1,-1.107192412E-1,1.898033261E0
2.215617731E1,4.343248606E-1,-6.734783947E-2,2.118555307E0
2.217284397E1,2.547306120E-1,-1.320995092E-1,2.535776138E0
2.218951064E1,-3.481929377E-2,-8.883501291E-1,2.787452459E0
2.220617731E1,-3.481929377E-2,-8.883501291E-1,2.787452459E0
2.222284397E1,1.038470149E0,-3.599520624E-1,3.174740553E0
2.223951064E1,1.194851518E0,-3.049742281E-1,2.915734053E0
2.225617730E1,1.286481261E0,-7.101303339E-2,2.307923555E0
2.227284397E1,1.259603143E0,3.547597229E-1,1.430721641E0
2.228951064E1,1.189964533E0,6.791289449E-1,1.139950037E0
2.230617730E1,1.018922448E0,1.448818564E0,7.416661978E-1
2.232284397E1,1.018922448E0,1.448818564E0,7.416661978E-1
2.233951063E1,7.012727857E-1,1.217911601E0,2.254854590E-1
2.235617730E1,4.300487936E-1,9.051488638E-1,1.870009750E-1
2.237284397E1,-5.131264031E-2,8.568905592E-1,3.018435538E-1
2.238951063E1,-8.002328873E-2,8.452841640E-1,4.380663931E-1
2.240617730E1,-8.002328873E-2,8.452841640E-1,4.380663931E-1
2.242284396E1,-2.406807244E-1,5.054906011E-2,8.131373525E-1
2.243951063E1,-4.453204274E-1,3.572031856E-1,7.300597429E-1
2.245617730E1,-5.534434915E-1,3.785834610E-1,1.595120728E-1
2.247284396E1,-8.069523573E-1,4.891499579E-1,-5.173261166E-1
2.248951063E1,-1.017700672E0,6.809614897E-1,-9.620356560E-1
2.250617729E1,-1.395825982E0,1.406057954E0,-2.130620003E0
2.252284396E1,-1.403767228E0,2.855640173E0,-3.017595768E0
2.253951063E1,-1.403767228E0,2.855640173E0,-3.017595768E0
2.255617729E1,-1.733023405E0,3.233765364E0,-3.691990376E0
2.257284396E1,-1.502727389E0,1.790291905E0,-3.632125616E0
2.258951062E1,-3.732383847E-1,1.043204308E0,-3.151985884E0
2.260617729E1,2.443459071E-2,-3.501782417E-1,-2.784245253E0
2.262284396E1,-4.135554433E-1,-4.247037470E-1,-2.611981392E0
2.263951062E1,-1.203403592E0,7.823650837E-1,-2.742706537E0
2.265617729E1,-7.703005075E-1,1.590539217E0,-3.167868376E0
2.267284395E1,-5.338957906E-1,1.748142242E0,-2.941237450E0
2.268951062E1,-7.666352987E-1,8.666644096E-1,-1.933310628E0
2.270617729E1,-1.021976829E0,6.101012230E-1,-1.559461474E0
2.272284395E1,-9.999856353E-1,4.641045034E-1,-1.896658778E0
2.273951062E1,-1.129488945E0,4.140135944E-1,-1.926591158E0
2.275617728E1,-1.294422507E0,-4.535670951E-2,-1.646815062E0
2.277284395E1,-1.294422507E0,-4.535670951E-2,-1.646815062E0
2.278951062E1,-1.436143041E0,-8.101593852E-1,-3.975966275E-1
2.280617728E1,-1.362228513E0,-8.168789148E-1,1.908952487E-3
2.282284395E1,-1.017089844E0,-6.507236958E-1,8.277981281E-1
2.283951061E1,-2.180787325E-1,-2.903134823E-1,1.258457780E0
2.285617728E1,-2.180787325E-1,-2.903134823E-1,1.258457780E0
2.287284395E1,1.489288330E0,6.834049821E-1,1.374522090E0
2.288951061E1,2.623053312E0,1.503185511E0,1.598709464E0
2.290617728E1,2.872897148E0,2.807992697E0,2.086179495E0
2.292284394E1,2.872897148E0,2.807992697E0,2.086179495E0
2.293951061E1,2.666424751E0,6.003273726E-1,2.832656384E0
2.295617728E1,2.274249554E0,-3.947713673E-1,2.956051111E0
2.297284394E1,2.313955784E0,5.948295593E-1,3.073337078E0
2.298951061E1,2.265697479E0,-2.848156989E-1,2.818606377E0
2.300617727E1,1.991419196E0,-2.066250145E-1,2.453309298E0
2.302284394E1,5.674933791E-1,2.124282271E-1,1.486921191E0
2.303951061E1,5.674933791E-1,2.124282271E-1,1.486921191E0
2.305617727E1,5.674933791E-1,2.124282271E-1,1.486921191E0
2.307284394E1,-1.649945736E0,-5.627591610E-1,5.541307330E-1
2.308951060E1,-1.431256175E0,-7.417425513E-1,9.475276470E-1
2.310617727E1,-1.048854828E0,-1.421635032E0,1.284114122E0
2.312284394E1,-1.048854828E0,-1.421635032E0,1.284114122E0
2.313951060E1,-5.375609994E-1,-1.683696032E0,1.301218390E0
2.315617727E1,4.642572254E-2,-5.939132571E-1,1.183321476E0
2.317284393E1,3.500255048E-1,2.264781147E-1,1.310381293E0
2.318951060E1,1.857028902E-1,-2.261726856E-1,1.551672935E0
2.320617727E1,5.009090900E-1,-3.031416535E-1,1.458210588E0
2.322284393E1,1.627954602E0,-4.718930274E-2,1.111850262E0
2.323951060E1,1.627954602E0,-4.718930274E-2,1.111850262E0
2.325617726E1,1.430034399E0,3.816377819E-1,1.058094144E0
2.327284393E1,1.263879180E0,8.306233883E-1,1.092302561E0
2.328951060E1,1.030528903E0,1.154992580E0,1.053818107E0
2.330617726E1,6.945532560E-1,8.000801206E-1,8.082504869E-1
2.332284393E1,4.245510101E-1,5.086976290E-1,6.469821334E-1
2.333951059E1,-8.063415438E-2,1.104138121E-1,6.310997009E-1
2.335617726E1,-8.063415438E-2,1.104138121E-1,6.310997009E-1
2.337284393E1,-2.846629918E-1,-3.184132576E-1,8.937715292E-1
2.338951059E1,-2.406807244E-1,-5.694786906E-1,8.387936950E-1
2.340617726E1,-2.419024557E-1,-8.193224072E-1,6.482039094E-1
2.342284392E1,-2.419024557E-1,-8.193224072E-1,6.482039094E-1
2.343951059E1,-8.026763201E-1,-2.029598206E-1,-6.309469342E-1
2.345617726E1,-1.273042202E0,2.209803313E-1,-1.125136614E0
2.347284392E1,-2.452622175E0,1.611155868E-1,-1.889939308E0
2.348951059E1,-2.452622175E0,1.611155868E-1,-1.889939308E0
2.350617725E1,-2.363435745E0,3.587456226E0,-3.557600021E0
2.352284392E1,-2.251036644E0,4.469544888E0,-3.885023594E0
2.353951059E1,-1.728136420E0,3.907549381E0,-3.974209785E0
2.355617725E1,4.331031144E-1,1.394451618E0,-3.528889418E0
2.357284392E1,1.114217401E0,-6.311760545E-1,-3.105560064E0
2.358951058E1,6.743947268E-1,-1.381317973E0,-3.189859629E0
2.360617725E1,-7.629700899E-1,-8.987348080E-1,-3.590586901E0
2.362284392E1,-7.629700899E-1,-8.987348080E-1,-3.590586901E0
2.363951058E1,-9.902117848E-1,-7.773254067E-2,-2.965061188E0
2.365617725E1,-7.593049407E-1,-1.266017258E-1,-2.436052322E0
2.367284391E1,-1.062293887E0,-2.542724609E-1,-1.604054570E0
2.368951058E1,-1.017089844E0,4.260781780E-2,-1.587561250E0
2.370617725E1,-7.391464114E-1,1.145371422E-2,-1.711566806E0
2.372284391E1,-7.269290686E-1,-1.986837685E-1,-1.624823928E0
2.373951058E1,-6.395754218E-1,-5.401571989E-1,-1.212490201E0
2.375617724E1,-5.558869243E-1,-6.012436748E-1,-6.987529397E-1
2.377284391E1,-5.558869243E-1,-6.012436748E-1,-6.987529397E-1
2.378951058E1,-3.866774142E-1,-7.722858191E-1,7.819832563E-1
2.380617724E1,-3.866774142E-1,-7.722858191E-1,7.819832563E-1
2.382284391E1,1.515555501E0,3.889681399E-1,1.499138474E0
2.383951057E1,1.515555501E0,3.889681399E-1,1.499138474E0
2.385617724E1,2.423911333E0,6.125446558E-1,2.526612997E0
2.387284391E1,2.872286081E0,1.134834051E0,3.318904638E0
2.388951057E1,3.577224255E0,1.578932762E0,3.758727312E0
2.390617724E1,3.522857189E0,5.642863512E-1,3.871126413E0
2.392284390E1,3.522857189E0,5.642863512E-1,3.871126413E0
2.393951057E1,1.560759544E0,-3.135721684E0,2.710483313E0
2.395617724E1,1.560759544E0,-3.135721684E0,2.710483313E0
2.397284390E1,2.853349447E0,2.479958296E0,2.626183987E0
2.398951057E1,1.461799383E0,2.259436131E0,2.709872484E0
2.400617723E1,-3.610210717E-1,-3.898844421E-1,1.641470075E0
2.402284390E1,-3.610210717E-1,-3.898844421E-1,1.641470075E0
2.403951057E1,-1.470962405E0,-4.503600597E-1,4.289034307E-1
2.405617723E1,-1.213177443E0,7.559451461E-2,5.767326951E-1
2.407284390E1,-7.281508446E-1,2.906189263E-1,1.045266032E0
2.408951056E1,-5.357283950E-1,-1.039997265E-1,1.282281518E0
2.410617723E1,-5.351175666E-1,-5.682569742E-1,1.395902395E0
2.412284390E1,-2.712239623E-1,-1.509599566E0,1.603596449E0
2.413951056E1,3.866774142E-1,-1.720958829E0,1.449047565E0
2.415617723E1,3.866774142E-1,-1.720958829E0,1.449047565E0
2.417284389E1,7.141009569E-1,-3.141372204E-1,1.033659577E0
2.418951056E1,1.123991251E0,1.623373181E-1,7.373901606E-1
2.420617723E1,1.130710721E0,-4.474584386E-2,6.805797219E-1
2.422284389E1,1.130710721E0,-4.474584386E-2,6.805797219E-1
2.423951056E1,3.280344009E-1,-3.080285788E-1,7.942005992E-1
2.425617722E1,-5.803215504E-2,-1.192713454E-1,9.634101391E-1
2.427284389E1,-4.960221946E-1,8.746056557E-1,8.730021119E-1
2.428951056E1,-4.960221946E-1,8.746056557E-1,8.730021119E-1
2.430617722E1,-1.087950230E0,6.620246768E-1,1.796706021E-1
2.432284389E1,-8.051197529E-1,7.023417950E-1,-8.581886292E-1
2.433951055E1,-8.051197529E-1,7.023417950E-1,-8.581886292E-1
2.435617722E1,-1.294422507E0,2.045022488E0,-3.394499302E0
2.437284389E1,-1.663995624E0,2.149480343E0,-3.761628866E0
2.438951055E1,-2.074496746E0,2.862359524E0,-4.211836338E0
2.440617722E1,-1.149036646E0,3.618610144E0,-4.296135426E0
2.442284388E1,5.913171172E-1,1.855043650E0,-4.032853127E0
2.443951055E1,1.224173069E0,-2.127336562E-1,-3.870973825E0
2.445617722E1,2.254091054E-1,-2.659857988E0,-3.589975834E0
2.447284388E1,2.254091054E-1,-2.659857988E0,-3.589975834E0
2.448951055E1,-1.954767257E-1,2.193462610E0,-3.167868376E0
2.450617721E1,8.307760954E-2,3.627009690E-1,-2.484921455E0
2.452284388E1,-2.834412456E-1,-4.088212550E-1,-1.663308382E0
2.453951055E1,-2.834412456E-1,-4.088212550E-1,-1.663308382E0
2.455617721E1,-4.214966893E-1,9.027054310E-1,-2.434219837E0
2.457284388E1,-6.041452885E-1,1.878409274E-2,-1.969351649E0
2.458951054E1,-6.896663308E-1,-4.045451880E-1,-1.254029036E0
2.460617721E1,-6.896663308E-1,-4.045451880E-1,-1.254029036E0
2.462284388E1,-6.163625717E-1,-8.407026529E-1,-1.043815166E-1
2.463951054E1,-1.551596522E-1,-5.291616321E-1,9.102649093E-1
2.465617721E1,5.534434915E-1,7.315105945E-2,1.739208341E0
2.467284387E1,5.534434915E-1,7.315105945E-2,1.739208341E0
2.468951054E1,1.227227330E0,1.098029464E-1,2.601749420E0
2.470617721E1,1.193629742E0,1.634063199E-2,3.195509911E0
2.472284387E1,1.962708592E0,-1.908952370E-2,3.326235056E0
2.473951054E1,1.962708592E0,-1.908952370E-2,3.326235056E0
2.475617720E1,2.315788269E0,-1.499214888E0,3.813094378E0
2.477284387E1,1.552207351E0,-2.760650635E0,3.233994484E0
2.478951054E1,2.441015720E0,4.213439822E-1,1.849164009E0
2.480617720E1,2.441015720E0,4.213439822E-1,1.849164009E0
2.482284387E1,1.406821609E0,2.197738647E0,1.620089769E0
2.483951053E1,5.974257588E-1,1.875813007E0,1.923078656E0
2.485617720E1,1.221729559E-3,-5.039634649E-3,1.280448914E0
2.487284387E1,1.221729559E-3,-5.039634649E-3,1.280448914E0
2.488951053E1,-9.902117848E-1,-3.391826749E-1,7.123447061E-1
2.490617720E1,-9.902117848E-1,-3.391826749E-1,7.123447061E-1
2.492284386E1,-1.072067738E0,-1.281746984E0,1.870544314E0
2.493951053E1,-1.072067738E0,-1.281746984E0,1.870544314E0
2.495617720E1,-7.287616730E-1,-1.526092887E0,2.039143085E0
2.497284386E1,-4.398226440E-1,-2.033110619E0,1.519907951E0
2.498951053E1,-4.398226440E-1,-2.033110619E0,1.519907951E0
2.500617719E1,6.181951761E-1,-5.713112950E-1,5.944477916E-1
2.502284386E1,9.162971973E-1,-1.876882017E-1,5.394699574E-1
2.503951053E1,1.411708474E0,2.588539422E-1,2.370918989E-1
2.505617719E1,1.411708474E0,2.588539422E-1,2.370918989E-1
2.507284386E1,5.619956255E-1,4.433351159E-1,2.682459950E-1
2.508951052E1,8.307760954E-2,1.214093715E-1,6.103302836E-1
2.510617719E1,-5.455022454E-1,1.403461844E-1,1.192484379E0
2.512284386E1,-5.455022454E-1,1.403461844E-1,1.192484379E0
2.513951052E1,-9.578359723E-1,4.433351159E-1,6.720275879E-1
2.515617719E1,-9.224058390E-1,5.111411214E-1,-3.920988441E-1
2.517284385E1,-9.456186891E-1,1.763413906E0,-1.626045704E0
2.518951052E1,-9.523382187E-1,2.003483772E0,-3.124496937E0
2.520617719E1,-1.220507860E0,1.924682260E0,-3.695655584E0
2.522284385E1,-1.739742875E0,1.845269799E0,-4.192288399E0
2.523951052E1,-1.739742875E0,1.845269799E0,-4.192288399E0
2.525617718E1,-4.037816226E-1,2.144593477E0,-4.225275517E0
2.527284385E1,5.436696485E-2,4.280634820E-1,-3.839819670E0
2.528951052E1,-3.738492429E-1,-2.696509838E0,-3.080514669E0
2.530617718E1,-1.736077666E0,5.911644101E-1,-3.667555809E0
2.532284385E1,-3.744601011E-1,2.885572433E0,-3.422599077E0
2.533951051E1,-1.038470119E-1,1.363297462E0,-2.789743185E0
2.535617718E1,-6.230821013E-1,-1.027780026E-1,-1.778761864E0
2.537284385E1,-7.049379349E-1,1.038928270E0,-2.236910582E0
2.538951051E1,-9.321796298E-1,5.887209177E-1,-1.914373875E0
2.540617718E1,-1.079398036E0,2.026543915E-1,-1.652923703E0
2.542284384E1,-1.282205224E0,-4.906771481E-1,-9.608139396E-1
2.543951051E1,-1.158199668E0,-7.930551767E-1,-3.279580176E-1
2.545617718E1,-6.597339511E-1,-7.765618563E-1,4.356229603E-1
2.547284384E1,-6.597339511E-1,-7.765618563E-1,4.356229603E-1
2.548951051E1,7.525854111E-1,9.819651395E-2,1.217529893E0
2.550617717E1,1.270598769E0,9.424116611E-1,1.823507667E0
2.552284384E1,1.320689678E0,1.324202180E0,2.791728497E0
2.553951051E1,1.583361506E0,1.143386126E0,3.168632030E0
2.555617717E1,3.227198601E0,8.220712543E-1,3.506440163E0
2.557284384E1,3.135568857E0,-5.456549525E-1,3.714745045E0
2.558951050E1,3.135568857E0,-5.456549525E-1,3.714745045E0
2.560617717E1,5.375609994E-1,-3.873035431E0,2.719035387E0
2.562284384E1,1.814879298E0,2.158643484E0,1.709275961E0
2.563951050E1,2.117257357E0,4.042397738E-1,1.918191791E0
2.565617717E1,2.117257357E0,4.042397738E-1,1.918191791E0
2.567284383E1,9.853248596E-1,1.744477153E0,2.466748238E0
2.568951050E1,-1.802051067E-1,1.324049383E-1,1.403232813E0
2.570617717E1,-7.562506199E-1,-2.402225733E-1,5.639045238E-1
2.572284383E1,-7.562506199E-1,-2.402225733E-1,5.639045238E-1
2.573951050E1,-1.130710721E0,-4.986183643E-1,1.012890220E0
2.575617716E1,-9.700532556E-1,-7.429642677E-1,1.504025459E0
2.577284383E1,-8.979712129E-1,-1.058781385E0,1.566944480E0
2.578951050E1,-8.265000582E-1,-1.103985429E0,1.561446786E0
2.580617716E1,-4.050033391E-1,-9.891427755E-1,1.375743866E0
2.582284383E1,-7.513637096E-2,-6.586649418E-1,9.927316308E-1
2.583951049E1,6.750055552E-1,5.502364635E-1,7.465531230E-1
2.585617716E1,1.105665207E0,6.986765862E-1,6.463713050E-1
2.587284383E1,1.757457972E0,-3.924806044E-2,3.769799173E-1
2.588951049E1,1.537546635E0,-1.082757786E-1,3.916406929E-1
2.590617716E1,1.537546635E0,-1.082757786E-1,3.916406929E-1
2.592284382E1,5.632173419E-1,-4.424188137E-1,9.976185560E-1
2.593951049E1,2.852738500E-1,-6.525563002E-1,1.447825909E0
2.595617716E1,2.626718581E-2,4.470002949E-1,1.392848015E0
2.597284382E1,-3.249800503E-1,1.465311885E0,7.844267488E-1
2.598951049E1,-6.041452885E-1,1.355967045E0,2.902371287E-1
2.600617715E1,-8.955277801E-1,1.032819629E0,-9.437097311E-1
2.602284382E1,-1.041524410E0,1.475696564E0,-2.103741884E0
2.603951049E1,-1.299920201E0,2.270431757E0,-3.162981510E0
2.605617715E1,-1.378110886E0,2.683987141E0,-3.662057877E0
2.607284382E1,-1.541822672E0,2.836703300E0,-4.323624611E0
2.608951048E1,-1.481957912E0,2.508058071E0,-4.256429195E0
2.610617715E1,-1.481957912E0,2.508058071E0,-4.256429195E0
2.612284382E1,-1.415373683E0,-9.506583214E-1,-3.319973707E0
2.613951048E1,-1.604130864E0,-1.424689412E0,-2.609538078E0
2.615617715E1,-1.205847025E0,1.173929334E0,-2.524016857E0
2.617284381E1,-6.536252797E-2,2.828151226E0,-3.002324104E0
2.618951048E1,8.857539296E-2,2.250273228E0,-2.824562311E0
2.620617715E1,-6.041452885E-1,6.363683939E-1,-2.311435938E0
2.622284381E1,-8.222240210E-1,1.383455992E0,-2.406730890E0
2.623951048E1,-8.222240210E-1,1.383455992E0,-2.406730890E0
2.625617714E1,-1.088561058E0,4.744892120E-1,-2.301051378E0
2.627284381E1,-1.368337154E0,-9.178243577E-2,-1.826409340E0
2.628951048E1,-1.313359261E0,-4.118755758E-1,-9.748638272E-1
2.630617714E1,-1.313359261E0,-4.118755758E-1,-9.748638272E-1
2.632284381E1,-8.790344000E-1,-1.021518588E0,2.896262705E-1
2.633951047E1,-2.822195292E-1,-6.006327868E-1,9.261473417E-1
2.635617714E1,-2.822195292E-1,-6.006327868E-1,9.261473417E-1
2.637284381E1,7.953459620E-1,1.941022873E-1,1.965228319E0
2.638951047E1,1.519831538E0,1.275180280E-1,2.280434608E0
2.640617714E1,1.877187490E0,-7.069232464E-1,2.318308115E0
2.642284380E1,1.877187490E0,-7.069232464E-1,2.318308115E0
2.643951047E1,3.360978127E0,2.647335291E0,2.984761715E0
2.645617714E1,3.207040071E0,1.037706494E0,3.241324902E0
2.647284380E1,1.820376992E0,-2.400851250E0,2.653062105E0
2.648951047E1,2.896109819E0,1.923460484E0,1.129565358E0
2.650617713E1,3.002400398E0,1.838550329E0,1.189430118E0
2.652284380E1,3.136179686E0,1.802509189E0,1.679954529E0
2.653951047E1,1.640171885E0,2.493397236E0,2.354349136E0
2.655617713E1,-5.167915821E-1,-2.664897740E-1,1.759366870E0
2.657284380E1,-1.271820426E0,-5.652026534E-1,1.019609690E0
2.658951046E1,-1.765399218E0,6.566796452E-3,-1.410334110E-1
2.660617713E1,-1.714086533E0,-2.153298259E-2,1.741728187E-1
2.662284380E1,-1.714086533E0,-2.153298259E-2,1.741728187E-1
2.663951046E1,-1.167362571E0,-6.800451875E-1,1.758145213E0
2.665617713E1,-1.083063245E0,-1.405141711E0,1.640248299E0
2.667284379E1,-4.477638900E-1,-8.242093325E-1,1.405676246E0
2.668951046E1,-4.477638900E-1,-8.242093325E-1,1.405676246E0
2.670617713E1,5.009091273E-2,8.597921580E-2,1.335426807E0
2.672284379E1,5.009091273E-2,8.597921580E-2,1.335426807E0
2.673951046E1,7.360920310E-1,1.473253131E0,5.761218667E-1
2.675617712E1,1.259603143E0,1.613752007E0,3.158934414E-1
2.677284379E1,1.430645347E0,1.423773050E0,7.948877662E-2
2.678951046E1,1.559537768E0,1.124449372E0,-4.556287527E-1
2.680617712E1,1.559537768E0,1.124449372E0,-4.556287527E-1
2.682284379E1,5.681042671E-1,3.822486401E-1,-1.960112303E-1
2.683951045E1,3.860665262E-1,2.093739063E-1,3.134499788E-1
2.685617712E1,6.670643687E-1,4.505127668E-2,1.034881353E0
2.687284379E1,1.025641918E0,-8.567378670E-2,1.152778149E0
2.688951045E1,1.025641918E0,-8.567378670E-2,1.152778149E0
2.690617712E1,1.200349331E0,4.518872201E-1,1.543120742E0
2.692284378E1,8.967494965E-1,8.440623879E-1,1.777692914E0
2.693951045E1,5.754346251E-1,1.350469351E0,1.700113058E0
2.695617712E1,3.866774142E-1,1.801898360E0,1.534568667E0
2.697284378E1,3.909534588E-2,2.579529285E0,1.146669507E0
2.698951045E1,-5.595521331E-1,2.180023670E0,5.797870159E-1
2.700617711E1,9.468404204E-2,9.265291691E-1,-3.194059134E-1
2.702284378E1,1.539379209E-1,3.694204688E-1,-9.974658489E-1
2.703951045E1,-1.655443609E-1,1.110246703E-1,-2.236910582E0
2.705617711E1,-4.105011225E-1,9.621120058E-3,-2.776304007E0
2.707284378E1,-8.631519079E-1,-5.757400393E-2,-3.376784086E0
2.708951044E1,-9.657772183E-1,8.597921580E-2,-3.864865065E0
2.710617711E1,-9.975422025E-1,2.136499584E-1,-4.972973824E0
2.712284378E1,-1.601076603E0,-1.596342444E0,-4.579576969E0
2.713951044E1,-1.911395907E0,-4.827359021E-1,-2.671235323E0
2.715617711E1,-1.620013356E0,2.371224403E0,-2.172158718E0
2.717284377E1,-7.806851864E-1,3.939925194E0,-1.717064500E0
2.718951044E1,-7.806851864E-1,3.939925194E0,-1.717064500E0
2.720617711E1,-1.111773849E0,4.674795628E0,-1.990731955E0
2.722284377E1,-1.237612009E0,4.611265659E0,-2.340146542E0
2.723951044E1,-1.510057688E0,3.665035963E0,-2.049985886E0
2.725617710E1,-2.065944672E0,2.748127937E0,-1.471496940E0
2.727284377E1,-2.503934622E0,2.124434948E0,-1.057941437E0
2.728951044E1,-2.621831656E0,2.040746450E0,-1.026787281E0
2.730617710E1,-2.149022341E0,2.119548082E0,-5.057196617E-1
2.732284377E1,-1.954767346E0,1.753029227E0,6.116283685E-2
2.733951043E1,-1.821598768E0,1.914297462E0,4.264599681E-1
2.735617710E1,-1.718362570E0,2.127489328E0,5.419133902E-1
2.737284377E1,-1.718362570E0,2.127489328E0,5.419133902E-1
2.738951043E1,-5.589412451E-1,1.863595724E0,7.447205186E-1
2.740617710E1,3.353647590E-1,1.324813008E0,1.166217208E0
2.742284376E1,8.545998335E-1,8.611665964E-1,1.588324785E0
2.743951043E1,2.412305117E0,-4.399753511E-1,2.887023211E0
2.745617710E1,3.301113367E0,-2.970330119E-1,3.810650826E0
2.747284376E1,2.032347202E0,2.869537175E-1,3.203451157E0
2.748951043E1,1.242498994E0,-6.055197120E-1,2.517450094E0
2.750617709E1,7.709113359E-1,-3.397935331E-1,1.746538758E0
2.752284376E1,4.004218578E0,4.055378437E0,7.667116523E-1
2.753951043E1,4.004218578E0,4.055378437E0,7.667116523E-1
2.755617709E1,4.415941715E0,1.352912784E0,-1.718897104E0
2.757284376E1,4.415941715E0,1.352912784E0,-1.718897104E0
2.758951042E1,-2.410472393E0,-1.291520834E0,6.439278126E-1
2.760617709E1,-3.134347200E0,-4.247037470E-1,6.176606417E-1
2.762284376E1,-3.743379354E0,-8.704823442E-3,-4.892263412E-1
2.763951042E1,-3.276678562E0,-5.474875569E-1,-1.064660907E0
2.765617709E1,-2.221104383E0,-7.221949100E-1,-9.046143889E-1
2.767284375E1,-1.219896913E0,-1.298087649E-2,-5.289325118E-1
2.768951042E1,5.943714380E-1,1.735314131E0,5.180897117E-1
2.770617709E1,8.930842876E-1,2.129321814E0,1.100854635E0
2.772284375E1,6.047561169E-1,1.644906163E0,1.116126299E0
2.773951042E1,5.002982616E-1,1.173318505E0,1.081917882E0
2.775617708E1,5.210676789E-1,1.421787739E-1,1.050152898E0
2.777284375E1,8.179479241E-1,-1.986837685E-1,9.548580050E-1
2.778951042E1,8.167262077E-1,-6.433933377E-1,7.410553098E-1
2.780617708E1,7.849612236E-1,-9.341649413E-1,7.019599676E-1
2.782284375E1,8.741474748E-1,-1.461341262E0,7.783181071E-1
2.783951041E1,1.367115378E0,-1.984241486E0,8.784999251E-1
2.785617708E1,3.521024704E0,1.580612659E-1,9.243147969E-1
2.787284375E1,4.377457142E0,1.490357399E0,9.298125505E-1
2.788951041E1,3.784307241E0,1.558163285E0,1.003727198E0
2.790617708E1,3.235139847E0,4.517803192E0,1.140560865E0
2.792284374E1,8.234457374E-1,5.539780140E0,1.171104193E0
2.793951041E1,-1.021365881E0,2.238055944E0,8.485675454E-1
2.795617708E1,-1.667660832E0,-3.191768378E-2,4.734965563E-1
2.797284374E1,-1.907119870E0,4.042397738E-1,1.454621702E-1
2.798951041E1,-1.907119870E0,4.042397738E-1,1.454621702E-1
2.800617707E1,-1.825263977E0,1.608254194E0,-6.437751055E-1
2.802284374E1,-1.719584346E0,2.213621140E0,-1.596113324E0
2.803951041E1,-1.745851517E0,4.645473957E0,-3.247280836E0
2.805617707E1,-1.745851517E0,4.645473957E0,-3.247280836E0
2.807284374E1,-2.040899277E0,3.593564749E0,-5.866669178E0
2.808951040E1,-2.040899277E0,3.593564749E0,-5.866669178E0
2.810617707E1,-3.681071043E0,5.453495383E-1,-4.819646835E0
2.812284374E1,-3.681071043E0,5.453495383E-1,-4.819646835E0
2.813951040E1,-1.349400282E0,2.205069065E0,-3.903349638E0
2.815617707E1,-1.561370373E0,7.884737253E-1,-3.560043573E0
2.817284373E1,-2.863123178E0,-2.298378795E-1,-3.279045820E0
2.818951040E1,-3.051269531E0,-4.428769462E-3,-2.748815060E0
2.820617707E1,-1.891848207E0,4.812087417E-1,-1.806250811E0
2.822284373E1,-1.002429128E0,1.021824002E0,-1.712177634E0
2.823951040E1,-1.777616501E0,6.278162599E-1,-2.227747440E0
2.825617706E1,-1.949880362E0,3.260490894E-1,-2.349309683E0
2.827284373E1,-1.862526655E0,2.606865466E-1,-2.231412649E0
2.828951040E1,-1.664606571E0,2.612974048E-1,-1.552131057E0
2.830617706E1,-1.664606571E0,2.612974048E-1,-1.552131057E0
2.832284373E1,-1.021365881E0,-1.648876786E0,3.329976499E-1
2.833951039E1,-3.145953715E-1,-2.617097378E0,1.590768218E0
2.835617706E1,4.880809486E-1,-1.796706080E0,2.329914570E0
2.837284373E1,4.880809486E-1,-1.796706080E0,2.329914570E0
2.838951039E1,2.117868185E0,2.631300092E-1,2.711705208E0
2.840617706E1,2.751945734E0,1.702938318E0,2.712926865E0
2.842284372E1,2.751945734E0,1.702938318E0,2.712926865E0
2.843951039E1,3.687179804E0,3.282634497E0,2.639623165E0
2.845617706E1,3.526522398E0,2.209956169E0,2.649396896E0
2.847284372E1,2.249204159E0,-1.663079411E-1,2.389168501E0
2.848951039E1,2.249204159E0,-1.663079411E-1,2.389168501E0
2.850617705E1,2.609003544E0,8.104648590E-1,2.420933485E0
2.852284372E1,4.189921379E0,4.090198040E0,3.128314972E0
2.853951039E1,3.765370607E0,2.914283037E0,3.649993420E0
2.855617705E1,3.765370607E0,2.914283037E0,3.649993420E0
2.857284372E1,2.791652083E-1,2.450025797E0,1.413617492E0
2.858951038E1,-8.081740737E-1,1.200196624E0,4.875464439E-1
2.860617705E1,-1.237001181E0,2.906189263E-1,1.741728187E-1
2.862284372E1,-1.237001181E0,2.906189263E-1,1.741728187E-1
2.863951038E1,-1.267544389E0,-1.258534193E0,1.518686175E0
2.865617705E1,-1.130710721E0,-1.125365615E0,1.430110812E0
2.867284371E1,-8.924734592E-1,-4.546361268E-1,1.345200658E0
2.868951038E1,-7.941241860E-1,-2.286161482E-1,1.458821416E0
2.870617705E1,3.665188793E-3,6.998983026E-1,1.438662887E0
2.872284371E1,5.082395077E-1,7.579304576E-1,1.270064235E0
2.873951038E1,5.082395077E-1,7.579304576E-1,1.270064235E0
2.875617704E1,1.940106511E0,9.185879230E-1,4.087449014E-1
2.877284371E1,1.940106511E0,9.185879230E-1,4.087449014E-1
2.878951038E1,1.708588839E0,2.423758745E0,4.930442274E-1
2.880617704E1,1.708588839E0,2.423758745E0,4.930442274E-1
2.882284371E1,2.370155305E-1,7.481566668E-1,5.742892623E-1
2.883951037E1,1.264490038E-1,1.018617004E-1,6.365974545E-1
2.885617704E1,-3.310887218E-1,2.472475171E-1,8.027526736E-1
2.887284371E1,-4.349357188E-1,3.162752390E-1,6.598103046E-1
2.888951037E1,-1.447749585E-1,6.032289565E-2,1.411861181E-1
2.890617704E1,-1.191186309E-1,1.965457499E-1,-1.514181048E-1
2.892284370E1,-7.092140317E-1,9.784526825E-1,-7.659480572E-1
2.893951037E1,-1.767842650E0,1.222187757E0,-1.646204233E0
2.895617704E1,-1.767842650E0,1.222187757E0,-1.646204233E0
2.897284370E1,-2.181398153E0,2.147037029E0,-2.899087906E0
2.898951037E1,-2.028681993E0,3.403585911E0,-3.548437119E0
2.900617703E1,-1.979812741E0,2.820209980E0,-3.727420568E0
2.902284370E1,-9.981530309E-1,1.263115644E0,-3.670610189E0
2.903951037E1,-3.048215210E-1,8.849903345E-1,-3.408549070E0
2.905617703E1,5.852084756E-1,6.643154472E-2,-2.878929377E0
2.907284370E1,5.852084756E-1,6.643154472E-2,-2.878929377E0
2.908951036E1,-1.122769475E0,6.852375865E-1,-3.508730888E0
2.910617703E1,-1.056796074E0,1.348636746E0,-3.528889418E0
2.912284370E1,-8.753692508E-1,8.593340516E-1,-2.696280718E0
2.913951036E1,-6.444623470E-1,1.103069067E0,-1.930256367E0
2.915617703E1,-5.375609994E-1,1.484248757E0,-1.977292895E0
2.917284369E1,-6.780598760E-1,1.208137870E0,-2.049375057E0
2.918951036E1,-1.116050005E0,2.674060464E-1,-1.888717532E0
2.920617703E1,-1.322522283E0,-7.284562290E-2,-1.547855020E0
2.922284369E1,-1.401323795E0,-2.689332068E-1,-8.985057473E-1
2.923951036E1,-1.458134174E0,-5.096139312E-1,-3.994292021E-1
2.925617702E1,-1.329241753E0,-9.115629792E-1,5.266417861E-1
2.927284369E1,-7.861829996E-1,-6.214022040E-1,1.033659577E0
2.928951036E1,-7.861829996E-1,-6.214022040E-1,1.033659577E0
2.930617702E1,6.145299673E-1,5.787943676E-2,1.621311426E0
2.932284369E1,1.354287267E0,9.008728266E-1,2.282877922E0
2.933951035E1,1.747684121E0,1.925903916E0,2.786230564E0
2.935617702E1,2.899164200E0,2.703534842E0,3.067839384E0
2.937284369E1,2.893666506E0,1.743255377E0,3.455738306E0
2.938951035E1,1.846033335E0,-1.482110620E0,4.072101116E0
2.940617702E1,2.144135475E0,2.435823381E-1,3.522933483E0
2.942284368E1,2.538753986E0,1.646127820E0,3.154582024E0
2.943951035E1,2.438572168E0,-3.630063832E-1,3.141143084E0
2.945617702E1,1.901622057E0,9.491311312E-1,3.226664066E0
2.947284368E1,1.901622057E0,9.491311312E-1,3.226664066E0
2.948951035E1,1.215620935E-1,-5.059487820E-1,1.992106438E0
2.950617701E1,-8.515455127E-1,-6.824886799E-1,4.008036554E-1
2.952284368E1,-1.557705164E0,-3.935496211E-1,-1.966221035E-1
2.953951035E1,-1.340848207E0,-5.511527658E-1,5.138900131E-2
2.955617701E1,-1.147204041E0,-8.046616316E-1,3.494910002E-1
2.957284368E1,-9.395100474E-1,-1.193171620E0,8.772782087E-1
2.958951034E1,-9.480621219E-1,-1.386204958E0,1.018998861E0
2.960617701E1,-9.999856353E-1,-1.162628412E0,1.050763726E0
2.962284368E1,-8.222240210E-1,-5.456549525E-1,1.072754860E0
2.963951034E1,-6.420188546E-1,2.093739063E-1,1.025718331E0
2.965617701E1,-6.420188546E-1,2.093739063E-1,1.025718331E0
2.967284367E1,9.932661057E-1,-7.637336850E-1,7.844267488E-1
2.968951034E1,1.478292823E0,-7.417425513E-1,9.035453796E-1
2.970617701E1,1.783725142E0,7.864884287E-2,1.081917882E0
2.972284367E1,1.525940180E0,7.628173828E-1,1.061759353E0
2.973951034E1,1.353676319E0,-2.322813272E-1,7.019599676E-1
2.975617700E1,1.191186309E0,-6.568323374E-1,9.267582297E-1
2.977284367E1,5.949822664E-1,-6.073523164E-1,1.300607443E0
2.978951034E1,5.949822664E-1,-6.073523164E-1,1.300607443E0
2.980617700E1,-4.013381600E-1,5.849030241E-2,8.149699569E-1
2.982284367E1,-6.328558922E-1,1.513417512E-1,5.199222565E-1
2.983951033E1,-1.023809314E0,6.520981342E-2,-2.625955045E-1
2.985617700E1,-1.023809314E0,6.520981342E-2,-2.625955045E-1
2.987284367E1,-1.538157463E0,6.589703560E-1,-1.713399291E0
2.988951033E1,-1.629176378E0,9.161444306E-1,-2.190484762E0
2.990617700E1,-1.956599832E0,2.542877436E0,-3.042641163E0
2.992284366E1,-2.017686367E0,4.113410473E0,-3.626016855E0
2.993951033E1,-2.015853882E0,2.337015867E0,-3.360290766E0
2.995617700E1,-1.621845961E0,1.126281977E0,-3.159316301E0
2.997284366E1,4.282162189E-1,-2.298378795E-1,-2.544175386E0
2.998951033E1,1.246164203E0,-6.604975462E-1,-2.864879370E0
3.000617699E1,4.092793912E-2,6.461422443E-1,-3.145266294E0
3.002284366E1,-1.873522282E0,1.242346287E0,-3.532554626E0
3.003951033E1,-9.651663303E-1,1.454316378E0,-3.096397161E0
3.005617699E1,-3.933969140E-1,-2.316704690E-1,-2.289444923E0
3.007284366E1,-3.677406013E-1,-1.736383140E-1,-2.208810568E0
3.008951032E1,-3.445277214E-1,8.727730513E-1,-2.711552382E0
3.010617699E1,-3.445277214E-1,8.727730513E-1,-2.711552382E0
3.012284366E1,-7.385355234E-1,-4.393644929E-1,-1.781816244E0
3.013951032E1,-7.605266571E-1,-6.543889046E-1,-1.419573426E0
3.015617699E1,-6.982184649E-1,-9.433279634E-1,-6.877573729E-1
3.017284365E1,-6.982184649E-1,-9.433279634E-1,-6.877573729E-1
3.018951032E1,1.038470119E-1,-7.044798136E-1,6.194932461E-1
3.020617699E1,3.200931549E-1,-5.169443488E-1,1.019609690E0
3.022284365E1,9.181297421E-1,-2.519817278E-2,1.679954529E0
3.023951032E1,9.181297421E-1,-2.519817278E-2,1.679954529E0
3.025617698E1,1.762344837E0,2.545779049E-1,2.930394650E0
3.027284365E1,2.156352758E0,4.818195999E-1,3.066617489E0
3.028951032E1,3.310887098E0,1.228296399E0,3.511937857E0
3.030617698E1,2.441015720E0,-2.083201647E0,3.328678608E0
3.032284365E1,2.441015720E0,-2.083201647E0,3.328678608E0
3.033951031E1,3.153894901E0,1.032208800E0,2.317086458E0
3.035617698E1,2.337779522E0,1.895971537E0,2.000047684E0
3.037284365E1,8.979712129E-1,5.905535221E-1,1.953621864E0
3.038951031E1,8.979712129E-1,5.905535221E-1,1.953621864E0
3.040617698E1,-1.227227330E0,-2.193768024E0,1.469817042E0
3.042284364E1,-1.414151907E0,-1.427132845E0,9.542471170E-1
3.043951031E1,-1.414151907E0,-1.427132845E0,9.542471170E-1
3.045617698E1,-1.109330416E0,-9.422589093E-2,1.025718331E0
3.047284364E1,-9.150754213E-1,-9.056070447E-2,1.455767155E0
3.048951031E1,-8.613193631E-1,-7.814487815E-1,2.133216143E0
3.050617697E1,-8.484911919E-1,-1.838855743E0,2.692768335E0
3.052284364E1,-8.368847519E-2,-2.177885771E0,2.879693031E0
3.053951031E1,6.780599058E-2,-2.392910004E0,2.585866928E0
3.055617697E1,4.538725317E-1,-1.932317972E0,1.450880170E0
3.057284364E1,4.538725317E-1,-1.932317972E0,1.450880170E0
3.058951030E1,1.250440240E0,1.572976820E-2,-9.949459881E-2
3.060617697E1,1.174082160E0,5.429060459E-1,-3.505600393E-1
3.062284364E1,6.511818767E-1,7.102830410E-1,-6.840922236E-1
3.063951030E1,6.511818767E-1,7.102830410E-1,-6.840922236E-1
3.065617697E1,5.681042373E-2,4.561632872E-1,-3.352884054E-1
3.067284363E1,-2.083048970E-1,2.606865466E-1,4.001927972E-1
3.068951030E1,-6.798924804E-1,-3.843866587E-1,9.939533472E-1
3.070617697E1,-6.798924804E-1,-3.843866587E-1,9.939533472E-1
3.072284363E1,-9.834923148E-1,-7.276926637E-1,3.336085379E-1
3.073951030E1,-1.194851518E0,-4.112647176E-1,-4.629591405E-1
3.075617696E1,-9.303470850E-1,9.546289444E-1,-1.568013549E0
3.077284363E1,-1.208290577E0,2.238666773E0,-2.528903723E0
3.078951030E1,-1.638339281E0,2.878853083E0,-2.873431683E0
3.080617696E1,-1.790444613E0,4.179384232E0,-3.360290766E0
3.082284363E1,-9.541707635E-1,3.156796455E0,-3.598528147E0
3.083951029E1,-9.541707635E-1,3.156796455E0,-3.598528147E0
3.085617696E1,2.858847082E-1,-2.457203567E-1,-3.332190990E0
3.087284363E1,2.138026804E-2,-1.865733743E0,-2.918635607E0
3.088951029E1,2.138026804E-2,-1.865733743E0,-2.918635607E0
3.090617696E1,-1.317635298E0,1.029154420E0,-3.275991440E0
3.092284362E1,-6.371319890E-1,1.511737585E0,-3.279656649E0
3.093951029E1,-4.850266278E-1,2.961167097E-1,-2.811123371E0
3.095617696E1,-4.850266278E-1,2.961167097E-1,-2.811123371E0
3.097284362E1,-1.857028902E-1,1.354745388E0,-2.417726517E0
3.098951029E1,-2.254091054E-1,1.176983714E0,-2.520351648E0
3.100617695E1,-7.635809779E-1,-6.261364091E-3,-2.131841660E0
3.102284362E1,-7.635809779E-1,-6.261364091E-3,-2.131841660E0
3.103951029E1,-7.635809779E-1,-6.261364091E-3,-2.131841660E0
3.105617695E1,-9.059124589E-1,-1.004414439E0,-3.829358518E-1
3.107284362E1,-6.701186895E-1,-5.713112950E-1,5.382482409E-1
3.108951028E1,-9.162971750E-3,8.231402934E-2,1.411173940E0
3.110617695E1,-9.162971750E-3,8.231402934E-2,1.411173940E0
3.112284362E1,1.452025533E0,-2.947422490E-2,1.758756042E0
3.113951028E1,1.965762854E0,-4.326449931E-1,2.230343580E0
3.115617695E1,2.991404772E0,1.260672212E0,3.078834772E0
3.117284361E1,2.991404772E0,1.260672212E0,3.078834772E0
3.118951028E1,3.183827162E0,2.496909797E-1,3.854022264E0
3.120617695E1,3.183827162E0,2.496909797E-1,3.854022264E0
3.122284361E1,3.006676435E0,2.694982767E0,2.406272650E0
3.123951028E1,3.051880360E0,2.753625631E0,2.332968950E0
3.125617694E1,2.662148714E0,1.432325244E0,2.577314854E0
3.127284361E1,2.662148714E0,1.432325244E0,2.577314854E0
3.128951028E1,-1.267544389E0,-2.333656073E0,1.709886909E0
3.130617694E1,-1.651778340E0,-2.049603939E0,1.293277144E0
3.132284361E1,-1.855196357E0,-7.979421020E-1,6.317105293E-1
3.133951027E1,-1.859472394E0,-7.423534393E-1,6.219366789E-1
3.135617694E1,-1.319467902E0,-1.095433235E0,1.146058679E0
3.137284361E1,-1.048854828E0,-1.304959893E0,1.413006544E0
3.138951027E1,-7.684679031E-1,-1.818697214E0,1.532125235E0
3.140617694E1,-6.438514590E-1,-2.072206020E0,1.577940106E0
3.142284360E1,-5.619955808E-2,-8.284853697E-1,1.772195101E0
3.143951027E1,1.056796089E-1,-2.554942071E-1,1.672013283E0
3.145617694E1,2.736674249E-1,2.325867712E-1,1.019609690E0
3.147284360E1,1.046411395E0,1.012508348E-1,-3.352120519E-2
3.148951027E1,1.683543324E0,-5.024362728E-2,-2.302196622E-1
3.150617693E1,1.927889228E0,4.036289155E-1,-1.123227626E-1
3.152284360E1,2.037844896E0,1.572213173E0,6.421715766E-2
3.153951027E1,1.621235132E0,1.792735457E0,1.229365356E-2
3.155617693E1,6.414080262E-1,6.259836555E-1,2.829067409E-1
3.157284360E1,1.386663020E-1,-5.024362728E-2,6.982948184E-1
3.158951026E1,-6.071996093E-1,-6.745474339E-1,1.334815860E0
3.160617693E1,-8.491020203E-1,-6.214022040E-1,1.110628486E0
3.162284360E1,-7.965676785E-1,-4.106538594E-1,4.215730429E-1
3.163951026E1,-8.252783418E-1,-3.074176908E-1,1.351538301E-2
3.165617693E1,-9.779945016E-1,3.095557392E-1,-1.045724154E0
3.167284359E1,-9.779945016E-1,3.095557392E-1,-1.045724154E0
3.168951026E1,-2.890612125E0,1.470198750E0,-2.898477077E0
3.170617693E1,-3.043939114E0,2.332739830E0,-3.208185434E0
3.172284359E1,-2.268751860E0,5.186700344E0,-3.731696606E0
3.173951026E1,-2.268751860E0,5.186700344E0,-3.731696606E0
3.175617692E1,-2.268751860E0,5.186700344E0,-3.731696606E0
3.177284359E1,8.069523573E-1,-1.016020894E0,-2.949178696E0
3.178951026E1,1.586415887E0,-2.935358047E0,-3.112279654E0
3.180617692E1,1.586415887E0,-2.935358047E0,-3.112279654E0
3.182284359E1,-1.059239507E0,8.013018966E-1,-3.729863882E0
3.183951025E1,-5.772672296E-1,4.702131748E-1,-3.290652275E0
3.185617692E1,-9.346231073E-2,-4.723511934E-1,-2.492862701E0
3.187284359E1,-9.346231073E-2,-4.723511934E-1,-2.492862701E0
3.188951025E1,-7.977893949E-1,-2.396117151E-1,-2.152000189E0
3.190617692E1,-4.379900396E-1,4.189005196E-1,-2.358472586E0
3.192284358E1,-3.255909383E-1,2.692386508E-1,-1.954690933E0
3.193951025E1,-3.255909383E-1,2.692386508E-1,-1.954690933E0
3.195617692E1,-4.691441655E-1,-3.611738086E-1,-9.314924479E-1
3.197284358E1,-4.746419191E-1,-8.840740323E-1,-1.972329617E-1
3.198951025E1,-4.746419191E-1,-8.840740323E-1,-1.972329617E-1
3.200617691E1,2.632827163E-1,-5.493201613E-1,1.281059742E0
3.202284358E1,7.055488229E-1,-2.121227980E-1,1.417282701E0
3.203951025E1,1.505170822E0,2.741255760E-1,1.900476694E0
3.205617691E1,1.781892538E0,1.250745654E-1,2.537608624E0
3.207284358E1,1.781892538E0,1.250745654E-1,2.537608624E0
3.208951024E1,2.470947981E0,6.168206930E-1,3.451462269E0
3.210617691E1,3.487426996E0,1.509904981E0,4.155178547E0
3.212284358E1,2.398865938E0,-2.592051983E0,3.812483549E0
3.213951024E1,1.305418015E0,-3.619526625E0,2.808832645E0
3.215617691E1,3.292561054E0,1.801898360E0,2.408105373E0
3.217284357E1,2.670089960E0,3.053560257E0,2.348851442E0
3.218951024E1,2.670089960E0,3.053560257E0,2.348851442E0
3.220617691E1,-5.907062292E-1,-1.133917689E0,1.560835838E0
3.222284357E1,-1.324965715E0,-1.571296930E0,1.116126299E0
3.223951024E1,-1.973704100E0,-1.450956583E0,3.757582009E-1
3.225617690E1,-1.809992313E0,-5.688678026E-1,3.800342381E-1
3.227284357E1,-1.809992313E0,-5.688678026E-1,3.800342381E-1
3.228951024E1,-7.079922557E-1,2.777907550E-1,1.624365807E0
3.230617690E1,-6.902772188E-2,3.138317764E-1,1.789910197E0
3.232284357E1,-3.359756246E-2,-1.022129536E0,1.601152897E0
3.233951023E1,-3.359756246E-2,-1.022129536E0,1.601152897E0
3.235617690E1,1.322522283E0,-2.365421057E0,9.194278717E-1
3.237284357E1,1.580307126E0,-1.012355685E0,5.694023371E-1
3.238951023E1,7.177661061E-1,9.827287197E-1,5.272526741E-1
3.240617690E1,7.177661061E-1,9.827287197E-1,5.272526741E-1
3.242284356E1,3.824013472E-1,-1.846338809E-1,2.474765927E-1
3.243951023E1,2.626718581E-1,-1.742491722E-1,5.278635025E-1
3.245617690E1,2.626718581E-1,-1.742491722E-1,5.278635025E-1
3.247284356E1,-1.038470119E-2,-2.976438701E-1,5.083158612E-1
3.248951023E1,1.258381456E-1,-4.466948807E-1,8.381828070E-1
3.250617689E1,1.710421406E-2,2.246455252E-1,1.175380230E0
3.252284356E1,1.710421406E-2,2.246455252E-1,1.175380230E0
3.253951023E1,-7.141009569E-1,6.577486396E-1,7.257837057E-1
3.255617689E1,-1.076954603E0,1.708894223E-1,-2.870301008E-1
3.257284356E1,-1.185077667E0,3.779725730E-1,-1.323056698E0
3.258951022E1,-1.185077667E0,3.779725730E-1,-1.323056698E0
3.260617689E1,-1.015868187E0,1.621693254E0,-2.588768482E0
3.262284356E1,-1.180190802E0,2.777449369E0,-3.019428253E0
3.263951022E1,-1.706756234E0,2.501338482E0,-3.261330605E0
3.265617689E1,-1.706756234E0,2.501338482E0,-3.261330605E0
3.267284355E1,-1.465464592E0,1.328478217E0,-3.527667761E0
3.268951022E1,-9.993748069E-1,1.574503928E-1,-3.243004799E0
3.270617689E1,-3.866774142E-1,-6.763800383E-1,-3.061578035E0
3.272284355E1,-3.866774142E-1,-6.763800383E-1,-3.061578035E0
3.273951022E1,-9.547816515E-1,1.859930515E0,-2.930852890E0
3.275617688E1,-4.746419191E-1,1.310763121E0,-2.910694361E0
3.277284355E1,-5.094612241E-1,6.907353401E-1,-2.305938244E0
3.278951022E1,-5.094612241E-1,6.907353401E-1,-2.305938244E0
3.280617688E1,-3.805687428E-1,9.424116611E-1,-2.199647665E0
3.282284355E1,-6.047561169E-1,1.048702121E0,-2.355418205E0
3.283951021E1,-1.310304999E0,3.711003438E-2,-1.911930442E0
3.285617688E1,-1.310304999E0,3.711003438E-2,-1.911930442E0
3.287284355E1,-1.628565550E0,-5.725330114E-1,-9.082795978E-1
3.288951021E1,-1.424536705E0,-7.918334603E-1,-1.746309698E-1
3.290617688E1,-8.570432663E-1,-7.967203856E-1,4.887681901E-1
3.292284354E1,-6.169734150E-2,-3.336848915E-1,8.882737756E-1
3.293951021E1,4.459312856E-1,-1.053741761E-2,1.034881353E0
3.295617688E1,1.393382549E0,4.854847789E-1,1.330539823E0
3.297284354E1,1.393382549E0,4.854847789E-1,1.330539823E0
3.298951021E1,1.747073293E0,2.283107042E-1,2.739193916E0
3.300617687E1,1.914450169E0,-1.052214578E-1,3.055622101E0
3.302284354E1,3.202153206E0,6.748528481E-1,3.835085392E0
3.303951021E1,3.202153206E0,6.748528481E-1,3.835085392E0
3.305617687E1,2.827082157E0,-3.324631453E-1,4.273686409E0
3.307284354E1,8.381064534E-1,-3.301876783E0,2.712316036E0
3.308951020E1,2.726900339E0,1.194087982E0,1.117348075E0
3.310617687E1,2.558912516E0,2.112828493E0,1.733710647E0
3.312284354E1,2.254701853E0,2.303418398E0,1.993939042E0
3.313951020E1,1.323133111E0,1.676060200E0,2.226678371E0
3.315617687E1,-3.805687428E-1,-2.652680278E-1,1.492419004E0
3.317284353E1,-1.651778340E0,-2.109010667E-1,1.992182732E-1
3.318951020E1,-1.788001180E0,1.183550507E-1,-3.212385178E-1
3.320617687E1,-1.600465775E0,-5.085449293E-2,-1.428660005E-1
3.322284353E1,-1.600465775E0,-5.085449293E-2,-1.428660005E-1
3.323951020E1,-9.279035926E-1,-1.030070782E0,1.389182925E0
3.325617686E1,-9.224058390E-1,-1.053283572E0,1.376965523E0
3.327284353E1,-8.765909672E-1,-4.143190384E-1,1.285946727E0
3.328951020E1,-8.765909672E-1,-4.143190384E-1,1.285946727E0
3.330617686E1,-5.949822664E-1,3.510945439E-1,6.158280373E-1
3.332284353E1,-1.563813835E-1,1.892153621E-1,2.059377879E-1
3.333951019E1,8.063415289E-1,-6.612611562E-2,-1.587484777E-1
3.335617686E1,8.063415289E-1,-6.612611562E-2,-1.587484777E-1
3.337284353E1,1.910785079E0,8.239038587E-1,-3.792706728E-1
3.338951019E1,1.998749614E0,9.271399975E-1,-5.582540631E-1
3.340617686E1,1.956599832E0,1.079245329E0,-7.732784748E-1
3.342284352E1,1.956599832E0,1.079245329E0,-7.732784748E-1
3.343951019E1,-1.398880333E-1,1.756236330E-2,8.901063204E-1
3.345617686E1,3.524689674E-1,5.270236135E-1,1.197371364E0
3.347284352E1,1.657276154E0,3.065013885E-1,1.444771528E0
3.348951019E1,1.657276154E0,3.065013885E-1,1.444771528E0
3.350617685E1,8.735366464E-1,1.959348768E-1,1.905363560E0
3.352284352E1,5.949822664E-1,2.637408674E-1,1.645746112E0
3.353951019E1,2.571740746E-1,1.000443816E0,9.615775347E-1
3.355617685E1,2.571740746E-1,1.000443816E0,9.615775347E-1
3.357284352E1,-1.820377111E-1,2.888626814E0,4.948768318E-1
3.358951018E1,-4.538725317E-1,3.311345339E0,3.672060966E-1
3.360617685E1,-9.156863093E-1,2.335794210E0,-3.413970470E-1
3.362284352E1,-9.156863093E-1,2.335794210E0,-3.413970470E-1
3.363951018E1,-3.860665262E-1,5.789470673E-1,-2.358472586E0
3.365617685E1,-6.768381596E-1,2.435823381E-1,-2.751869440E0
3.367284351E1,-1.166140914E0,-7.893900275E-1,-3.676718712E0
3.368951018E1,-1.166140914E0,-7.893900275E-1,-3.676718712E0
3.370617685E1,-1.859472394E0,-1.064431891E-1,-4.953426361E0
3.372284351E1,-1.951712966E0,5.955931731E-3,-4.856298447E0
3.373951018E1,-1.951712966E0,5.955931731E-3,-4.856298447E0
3.375617684E1,-1.517388105E0,-3.413054228E0,-3.407861888E-1
3.377284351E1,-9.987639189E-1,-6.708822250E-1,-1.385899484E-1
3.378951018E1,-8.991929293E-1,3.641212225E0,-1.034728527E0
3.380617684E1,-1.583972335E0,4.831176758E0,-1.168507934E0
3.382284351E1,-1.583972335E0,4.831176758E0,-1.168507934E0
3.383951017E1,-1.374445796E0,3.915490627E0,-1.128801703E0
3.385617684E1,-1.637728453E0,3.972301006E0,-8.416953087E-1
3.387284351E1,-2.268751860E0,3.926486015E0,-5.197695494E-1
3.388951017E1,-2.268751860E0,3.926486015E0,-5.197695494E-1
3.390617684E1,-2.149022341E0,2.257603407E0,6.177370250E-2
3.392284350E1,-1.619402528E0,1.704159975E0,4.838812649E-1
3.393951017E1,-1.109941363E0,2.333350658E0,5.083158612E-1
3.395617684E1,-6.597339511E-1,2.727358580E0,3.036761582E-1
