"Time (s)","Acceleration x (m/s^2)","Acceleration y (m/s^2)","Acceleration z (m/s^2)"
4.427995700E-2,2.550748825E0,4.675575256E0,7.539783955E0
6.094662300E-2,2.486142635E0,4.914857864E0,7.743174076E0
7.761328900E-2,2.175075769E0,4.754538536E0,8.020741463E0
9.427995500E-2,2.175075769E0,4.754538536E0,8.020741463E0
1.109466210E-1,2.376072884E0,4.563112736E0,8.508877754E0
1.276132870E-1,2.596212626E0,4.627718925E0,8.441878319E0
1.442799530E-1,2.744567633E0,4.663611412E0,8.319844246E0
1.609466190E-1,2.691925526E0,4.591826439E0,8.090133667E0
1.776132850E-1,2.749353170E0,4.637290478E0,8.092526436E0
1.942799510E-1,2.739781857E0,4.713860512E0,8.327022552E0
2.109466170E-1,2.780459881E0,4.740181446E0,8.417949677E0
2.276132830E-1,2.761317253E0,4.737788677E0,8.429914474E0
2.442799490E-1,2.730210543E0,4.733003139E0,8.523234367E0
2.609466150E-1,2.610569477E0,4.637290478E0,8.403593063E0
2.776132810E-1,2.478964329E0,4.553541660E0,8.264809608E0
2.942799470E-1,2.270788670E0,4.570291042E0,8.204988480E0
3.109466130E-1,2.333002090E0,4.570291042E0,8.283951759E0
3.276132790E-1,2.371287346E0,4.591826439E0,8.334200859E0
3.442799450E-1,2.488535643E0,4.661218643E0,8.554341316E0
3.609466110E-1,2.739781857E0,4.744967461E0,9.030512810E0
3.776132770E-1,2.952743053E0,4.809573650E0,9.310472488E0
3.942799430E-1,2.842673302E0,4.855037212E0,9.217152596E0
4.109466090E-1,2.567498684E0,4.857429981E0,8.762516975E0
4.276132750E-1,2.433500528E0,4.742574692E0,8.733802795E0
4.442799410E-1,2.555534601E0,4.795216560E0,9.387042999E0
4.609466070E-1,2.519642353E0,4.520041943E0,1.063370419E1
4.776132730E-1,1.732403636E0,4.350151539E0,1.115055370E1
4.942799390E-1,1.406979680E0,5.307280540E0,9.700503349E0
5.109466050E-1,1.885544300E0,4.819144726E0,9.726823807E0
5.276132710E-1,3.086741269E-1,4.579862595E0,7.896314621E0
5.442799370E-1,4.450650215E-1,4.771288395E0,8.116454124E0
5.609466030E-1,-1.890329868E-1,4.567898273E0,8.475378036E0
5.776132690E-1,-8.087740541E-1,4.472185612E0,8.195417404E0
5.942799350E-1,-1.249053478E0,4.390829563E0,8.054241180E0
6.109466010E-1,-1.828116536E0,4.103690624E0,8.104490280E0
6.276132670E-1,-2.605783939E0,3.560520172E0,8.910871506E0
6.442799330E-1,-2.108076811E0,4.309473515E0,8.394021988E0
6.609465990E-1,-2.069791555E0,4.699503899E0,8.116454124E0
6.776132650E-1,-1.588834286E0,4.778466702E0,8.238488197E0
6.942799310E-1,-1.418943882E0,4.577469826E0,8.941978455E0
7.109465970E-1,3.572484255E0,5.065605640E0,6.417550564E0
7.276132630E-1,2.639283419E0,7.006184578E0,5.539384365E0
7.442799290E-1,4.905286431E-1,6.522834301E0,7.477570534E0
7.609465950E-1,-1.627119333E-1,5.175675392E0,7.010970116E0
7.776132610E-1,-2.036292076E0,4.230510235E0,7.822137356E0
7.942799270E-1,-2.483749866E0,4.859822750E0,7.767102242E0
8.109465930E-1,-1.543370605E0,4.922036171E0,8.214560509E0
8.276132590E-1,-1.074377418E0,5.467599869E0,8.001599312E0
8.442799250E-1,-1.143769264E0,5.151747227E0,8.566305161E0
8.609465910E-1,-1.148554921E0,5.493920803E0,8.171489716E0
8.776132570E-1,-6.987041831E-1,5.749952793E0,8.480163574E0
8.942799230E-1,-7.609176040E-1,5.752345562E0,8.638090134E0
9.109465890E-1,6.699903309E-2,6.178267956E0,8.405985832E0
9.276132550E-1,4.881358147E-1,6.288337708E0,8.204988480E0
9.442799210E-1,6.747759581E-1,6.058627129E0,8.267202377E0
9.609465870E-1,1.292124242E-1,5.680561066E0,8.386843681E0
9.776132530E-1,-1.098305583E0,4.883750916E0,7.834101200E0
9.942799190E-1,-1.564906001E0,4.555934429E0,8.274380684E0
1.010946585E0,-1.648654819E0,4.905286312E0,8.762516975E0
1.027613251E0,-1.564906001E0,4.962714195E0,9.049654961E0
1.044279917E0,-6.245267391E-1,5.391029358E0,9.343972206E0
1.060946583E0,2.392822644E-3,5.592026711E0,8.841479301E0
1.077613249E0,-8.303094506E-1,5.036891460E0,7.044469833E0
1.094279915E0,-1.777867198E0,4.699503899E0,7.968099594E0
1.110946581E0,-1.945364833E0,4.321437836E0,8.001599312E0
1.127613247E0,-3.081955671E0,4.465006828E0,8.288737297E0
1.144279913E0,-1.129412293E0,5.307280540E0,8.755337715E0
1.160946579E0,9.020941257E-1,6.350551128E0,8.683553696E0
1.177613245E0,1.354337573E0,6.063412666E0,7.759923935E0
1.194279911E0,8.853443861E-1,5.651846886E0,8.042277336E0
1.210946577E0,2.225325108E-1,5.166104317E0,7.963313580E0
1.227613243E0,-1.196411327E-1,4.917250633E0,8.695517540E0
1.244279909E0,-1.332802176E0,4.692325115E0,8.992227554E0
1.260946575E0,-2.799602509E0,4.364508629E0,8.860622406E0
1.277613241E0,-1.373480201E0,4.931607246E0,8.264809608E0
1.294279907E0,-2.294716835E0,5.513063431E0,8.413164139E0
1.310946573E0,-2.194218397E0,4.914857864E0,8.255238533E0
1.327613239E0,-2.203789711E0,5.034498692E0,8.291130066E0
1.344279905E0,-2.206182480E0,4.986642361E0,8.484949112E0
1.360946571E0,-2.153540373E0,4.792823792E0,8.934800148E0
1.377613237E0,-1.392622828E0,5.221138954E0,8.695517540E0
1.394279903E0,-4.761717021E-1,5.469992638E0,8.310273170E0
1.410946569E0,-2.991028428E-1,5.340780258E0,8.126026154E0
1.427613235E0,-2.344966233E-1,5.388636589E0,8.116454124E0
1.444279901E0,-8.159525394E-1,4.965106964E0,8.183453560E0
1.460946567E0,-1.430907965E0,4.699503899E0,8.441878319E0
1.477613233E0,-1.550549030E0,4.656432629E0,8.941978455E0
1.494279899E0,-1.679761529E0,4.816751957E0,8.932407379E0
1.510946565E0,-1.416550994E0,4.993820667E0,8.307880402E0
1.527613231E0,-9.619147182E-1,5.304887772E0,7.735995770E0
1.544279897E0,-1.009771109E0,5.094319344E0,8.212167740E0
1.560946563E0,-1.237089276E0,5.163711071E0,8.372486115E0
1.577613229E0,-1.438086390E0,5.000999451E0,8.370093346E0
1.594279895E0,-1.478764415E0,4.934000492E0,8.365307808E0
1.610946561E0,-1.457229018E0,4.986642361E0,8.415556908E0
1.627613227E0,-1.349551916E0,5.113461971E0,8.592626572E0
1.644279893E0,-1.191625714E0,5.123033047E0,8.568697929E0
1.660946559E0,-1.055234790E0,5.206781864E0,8.482556343E0
1.677613225E0,-1.024128079E0,5.170889854E0,8.389236450E0
1.694279891E0,-1.201196909E0,5.137390137E0,8.429914474E0
1.710946557E0,-1.373480201E0,5.003392220E0,8.398807526E0
1.727613223E0,-1.500299811E0,5.003392220E0,8.317451477E0
1.744279889E0,-1.543370605E0,4.979464054E0,8.274380684E0
1.760946555E0,-1.430907965E0,5.032105923E0,8.353343964E0
1.777613221E0,-1.203589797E0,5.094319344E0,8.468199730E0
1.794279887E0,-1.194018483E0,5.070391178E0,8.453842163E0
1.810946553E0,-1.194018483E0,5.070391178E0,8.453842163E0
1.827613219E0,-1.194018483E0,5.070391178E0,8.453842163E0
1.844279885E0,-1.464407444E0,5.082355499E0,8.563912392E0
1.860946551E0,-1.143769264E0,5.120640278E0,8.197810173E0
1.919448438E0,3.323630571E0,5.264209747E0,8.915657043E0
1.936115104E0,2.837887764E0,4.977071285E0,9.114261627E0
1.952781770E0,2.837887764E0,4.977071285E0,9.114261627E0
1.969448436E0,2.837887764E0,4.977071285E0,9.114261627E0
1.986115102E0,2.694318295E0,5.075176716E0,7.865208149E0
2.002781768E0,2.596212626E0,5.125426292E0,7.881958008E0
2.019448434E0,2.526820660E0,4.991427898E0,7.927421570E0
2.036115100E0,2.600998163E0,4.948357105E0,8.219346046E0
2.052781766E0,2.524427891E0,4.886143684E0,8.334200859E0
2.069448432E0,2.467000246E0,4.797609329E0,8.348558426E0
2.086115098E0,2.543570518E0,4.761716843E0,8.439485550E0
2.102781764E0,2.486142635E0,4.828716278E0,8.338987350E0
2.119448430E0,2.522035122E0,4.800002098E0,8.250452042E0
2.136115096E0,2.522035122E0,4.869394302E0,8.164310455E0
2.152781762E0,2.620140791E0,4.934000492E0,8.279166222E0
2.169448428E0,2.581855536E0,4.910071850E0,8.384450912E0
2.186115094E0,2.507678032E0,4.828716278E0,8.355736732E0
2.202781760E0,2.419143677E0,4.790431023E0,8.420342445E0
2.219448426E0,2.337787628E0,4.759324074E0,8.305487633E0
2.236115092E0,2.309073925E0,4.823930264E0,8.255238533E0
2.252781758E0,2.256431818E0,4.862215519E0,8.173882484E0
2.269448424E0,2.376072884E0,4.831109047E0,8.075776100E0
2.286115090E0,2.462214470E0,4.914857864E0,8.226524353E0
2.302781756E0,2.433500528E0,4.902893543E0,8.355736732E0
2.319448422E0,2.455035925E0,4.852644444E0,8.298309326E0
2.336115088E0,2.419143677E0,4.759324074E0,8.315058708E0
2.352781754E0,1.966900229E0,4.599005222E0,7.869993687E0
2.369448420E0,1.940579176E0,4.546362877E0,7.817351341E0
2.386115086E0,2.024327993E0,4.615755081E0,8.178668022E0
2.402781752E0,2.091326952E0,4.675575256E0,8.492127419E0
2.419448418E0,2.239681959E0,4.761716843E0,8.489734650E0
2.436115084E0,2.273181438E0,4.761716843E0,8.561519623E0
2.452781750E0,2.184647083E0,4.677968502E0,8.695517540E0
2.469448416E0,2.287538528E0,4.682754040E0,8.757730484E0
2.486115082E0,2.292324066E0,4.692325115E0,8.583054543E0
2.502781748E0,2.328216314E0,4.663611412E0,8.468199730E0
2.519448414E0,2.584248543E0,4.728217602E0,8.745766640E0
2.536115080E0,2.766103029E0,4.785645485E0,8.997013092E0
2.552781746E0,2.660818815E0,4.654039860E0,8.973084450E0
2.569448412E0,2.526820660E0,4.534399033E0,8.807980537E0
2.586115078E0,2.488535643E0,4.479363918E0,8.635697365E0
2.602781744E0,2.390429735E0,4.493721008E0,8.501698494E0
2.619448410E0,2.347358942E0,4.565505505E0,8.494520187E0
2.636115076E0,2.330609322E0,4.606183529E0,8.508877754E0
2.652781742E0,2.306680918E0,4.488935471E0,8.650053978E0
2.669448408E0,2.242074728E0,4.414757729E0,8.657232285E0
2.686115074E0,2.215753794E0,4.407579422E0,8.580661774E0
2.702781740E0,2.266003132E0,4.476971149E0,8.420342445E0
2.719448406E0,2.426322222E0,4.536791801E0,8.298309326E0
2.736115072E0,2.478964329E0,4.601397991E0,8.338987350E0
2.752781738E0,2.392822742E0,4.610969067E0,8.549555779E0
2.769448404E0,2.270788670E0,4.517649174E0,8.690732002E0
2.786115070E0,2.292324066E0,4.445864677E0,8.681160927E0
2.802781736E0,2.244467735E0,4.527220249E0,8.805587769E0
2.819448402E0,2.407179594E0,4.522434711E0,8.776873589E0
2.836115068E0,2.533999205E0,4.558327198E0,8.678768158E0
2.852781734E0,2.493321180E0,4.606183529E0,8.697910309E0
2.869448400E0,2.459821701E0,4.560719967E0,8.496912956E0
2.886115066E0,2.476571321E0,4.551148891E0,8.377271652E0
2.902781732E0,2.531606436E0,4.565505505E0,8.444271088E0
2.919448398E0,2.435893536E0,4.560719967E0,8.595019341E0
2.936115064E0,2.385644197E0,4.462614059E0,8.635697365E0
2.952781730E0,2.390429735E0,4.488935471E0,8.693124771E0
2.969448396E0,2.246860504E0,4.498506546E0,8.635697365E0
2.986115062E0,2.299502611E0,4.460221291E0,8.518448830E0
3.002781728E0,2.347358942E0,4.455435753E0,8.590232849E0
3.019448394E0,2.256431818E0,4.479363918E0,8.640482903E0
3.036115060E0,2.297109842E0,4.515256405E0,8.532805443E0
3.052781726E0,2.404786825E0,4.510470867E0,8.566305161E0
3.069448392E0,2.395215511E0,4.553541660E0,8.559126854E0
3.086115058E0,2.268395901E0,4.575077057E0,8.652446747E0
3.102781724E0,2.263610125E0,4.505684853E0,8.511270523E0
3.119448390E0,2.222932339E0,4.491328239E0,8.358129501E0
3.136115056E0,2.230110645E0,4.510470867E0,8.403593063E0
3.152781722E0,2.237289190E0,4.527220249E0,8.475378036E0
3.169448388E0,2.361716032E0,4.601397991E0,8.528019905E0
3.186115054E0,2.318645239E0,4.668396950E0,8.642875671E0
3.202781720E0,2.325823545E0,4.558327198E0,8.657232285E0
3.219448386E0,2.292324066E0,4.548755646E0,8.740981102E0
3.236115052E0,2.249253273E0,4.469792843E0,8.676374435E0
3.252781718E0,2.170290232E0,4.467400074E0,8.482556343E0
3.269448384E0,2.187039852E0,4.548755646E0,8.403593063E0
3.286115050E0,2.165504456E0,4.587040901E0,8.439485550E0
3.302781716E0,2.076970100E0,4.532006264E0,8.465806961E0
3.319448382E0,2.088934183E0,4.448257446E0,8.571090698E0
3.336115048E0,2.165504456E0,4.505684853E0,8.779266357E0
3.352781714E0,2.249253273E0,4.491328239E0,8.752944946E0
3.369448380E0,2.323430777E0,4.543970108E0,8.559126854E0
3.386115046E0,2.261217356E0,4.591826439E0,8.422736168E0
3.402781712E0,2.246860504E0,4.548755646E0,8.379665375E0
3.419448378E0,2.246860504E0,4.527220249E0,8.547162056E0
3.436115044E0,2.256431818E0,4.546362877E0,8.650053978E0
3.452781710E0,2.220539331E0,4.479363918E0,8.595019341E0
3.469448376E0,2.206182480E0,4.462614059E0,8.583054543E0
3.486115042E0,2.218146563E0,4.534399033E0,8.559126854E0
3.502781708E0,2.210968018E0,4.532006264E0,8.523234367E0
3.519448374E0,2.194218397E0,4.520041943E0,8.611768723E0
3.536115040E0,2.151147604E0,4.527220249E0,8.604590416E0
3.552781706E0,2.232503414E0,4.491328239E0,8.571090698E0
3.569448372E0,2.249253273E0,4.527220249E0,8.618947029E0
3.586115038E0,2.234896421E0,4.539184570E0,8.597412109E0
3.602781704E0,2.213361025E0,4.553541660E0,8.482556343E0
3.619448370E0,2.246860504E0,4.560719967E0,8.458627701E0
3.636115036E0,2.225325108E0,4.529613495E0,8.597412109E0
3.652781702E0,2.179861546E0,4.508078098E0,8.654839516E0
3.669448368E0,2.234896421E0,4.469792843E0,8.630910873E0
3.686115034E0,2.244467735E0,4.508078098E0,8.614161491E0
3.702781700E0,2.215753794E0,4.517649174E0,8.616554260E0
3.719448366E0,2.256431818E0,4.532006264E0,8.604590416E0
3.736115032E0,2.208575249E0,4.517649174E0,8.642875671E0
3.752781698E0,2.199003935E0,4.512863636E0,8.630910873E0
3.769448364E0,2.206182480E0,4.508078098E0,8.539983749E0
3.786115030E0,2.199003935E0,4.460221291E0,8.525627136E0
3.802781696E0,2.088934183E0,4.438685894E0,8.554341316E0
3.819448362E0,2.160718918E0,4.448257446E0,8.518448830E0
3.836115028E0,2.187039852E0,4.498506546E0,8.539983749E0
3.852781694E0,2.194218397E0,4.484149456E0,8.602197647E0
3.869448360E0,2.143969059E0,4.450650215E0,8.578269005E0
3.886115026E0,2.242074728E0,4.474578381E0,8.566305161E0
3.902781692E0,2.304288149E0,4.524827480E0,8.626125336E0
3.919448358E0,2.225325108E0,4.496113777E0,8.669196129E0
3.936115024E0,2.151147604E0,4.503292084E0,8.681160927E0
3.952781690E0,2.084148407E0,4.484149456E0,8.659625053E0
3.969448356E0,2.036292076E0,4.426722050E0,8.578269005E0
3.986115022E0,2.043470621E0,4.395615101E0,8.650053978E0
4.002781688E0,2.153540373E0,4.436293125E0,8.638090134E0
4.019448354E0,2.256431818E0,4.421936035E0,8.614161491E0
4.036115020E0,2.297109842E0,4.448257446E0,8.669196129E0
4.052781686E0,2.306680918E0,4.421936035E0,8.563912392E0
4.069448352E0,2.258824587E0,4.412364960E0,8.561519623E0
4.086115018E0,2.301895380E0,4.450650215E0,8.578269005E0
4.102781684E0,2.251646042E0,4.412364960E0,8.621339798E0
4.119448350E0,2.191825628E0,4.350151539E0,8.762516975E0
4.136115016E0,2.263610125E0,4.354937077E0,8.757730484E0
4.152781682E0,2.242074728E0,4.426722050E0,8.666803360E0
4.169448348E0,2.201396942E0,4.465006828E0,8.566305161E0
4.186115014E0,2.210968018E0,4.465006828E0,8.590232849E0
4.202781680E0,2.127219439E0,4.469792843E0,8.516056061E0
4.219448346E0,2.167897224E0,4.448257446E0,8.489734650E0
4.236115012E0,2.222932339E0,4.476971149E0,8.611768723E0
4.252781678E0,2.194218397E0,4.450650215E0,8.671588898E0
4.269448344E0,2.210968018E0,4.393222332E0,8.738588333E0
4.286115010E0,2.187039852E0,4.376472473E0,8.731410027E0
4.302781676E0,2.213361025E0,4.412364960E0,8.628518105E0
4.319448342E0,2.297109842E0,4.445864677E0,8.559126854E0
4.336115008E0,2.349751949E0,4.512863636E0,8.616554260E0
4.352781674E0,2.227717876E0,4.450650215E0,8.750552177E0
4.369448340E0,2.266003132E0,4.395615101E0,8.752944946E0
4.386115006E0,2.258824587E0,4.364508629E0,8.774480820E0
4.402781672E0,2.242074728E0,4.357329845E0,8.690732002E0
4.419448338E0,2.287538528E0,4.383651257E0,8.657232285E0
4.436115004E0,2.287538528E0,4.409972191E0,8.590232849E0
4.452781670E0,2.285145521E0,4.366901398E0,8.563912392E0
4.469448336E0,2.268395901E0,4.319045067E0,8.501698494E0
4.486115002E0,2.268395901E0,4.340580463E0,8.468199730E0
4.502781668E0,2.309073925E0,4.366901398E0,8.487341881E0
4.519448334E0,2.309073925E0,4.354937077E0,8.571090698E0
4.536115000E0,2.268395901E0,4.338187218E0,8.685946465E0
4.552781666E0,2.203789711E0,4.340580463E0,8.757730484E0
4.569448332E0,2.203789711E0,4.242474556E0,8.707481384E0
4.586114998E0,2.232503414E0,4.304687977E0,8.537590981E0
4.602781664E0,2.244467735E0,4.316651821E0,8.401200294E0
4.619448330E0,2.218146563E0,4.366901398E0,8.472985268E0
4.636114996E0,2.163111687E0,4.362115860E0,8.616554260E0
4.652781662E0,2.170290232E0,4.278367043E0,8.688339233E0
4.669448328E0,2.189432621E0,4.287938118E0,8.815158844E0
4.686114994E0,2.244467735E0,4.297509670E0,8.803194046E0
4.702781660E0,2.239681959E0,4.359723091E0,8.642875671E0
4.719448326E0,2.220539331E0,4.381258488E0,8.537590981E0
4.736114992E0,2.218146563E0,4.364508629E0,8.664410591E0
4.752781658E0,2.301895380E0,4.316651821E0,8.812766075E0
4.769448324E0,2.371287346E0,4.362115860E0,8.836693764E0
4.786114990E0,2.352144718E0,4.374079704E0,8.827122688E0
4.802781656E0,2.289931297E0,4.345366001E0,8.786444664E0
4.819448322E0,2.230110645E0,4.352544308E0,8.705088615E0
4.836114988E0,2.258824587E0,4.378865242E0,8.666803360E0
4.852781654E0,2.261217356E0,4.352544308E0,8.664410591E0
4.869448320E0,2.282752752E0,4.357329845E0,8.738588333E0
4.886114986E0,2.287538528E0,4.388436794E0,8.712266922E0
4.902781652E0,2.356930256E0,4.433900356E0,8.695517540E0
4.919448318E0,2.376072884E0,4.438685894E0,8.662017822E0
4.936114984E0,2.318645239E0,4.383651257E0,8.640482903E0
4.952781650E0,2.196611166E0,4.292723656E0,8.599804878E0
4.969448316E0,2.206182480E0,4.031906128E0,8.554341316E0
4.986114982E0,2.545963287E0,3.074777126E0,8.618947029E0
5.002781648E0,2.785245657E0,2.086541414E0,9.154939651E0
5.019448314E0,2.268395901E0,1.641476393E0,9.073583603E0
5.036114980E0,1.440479279E0,1.792224169E0,8.556734085E0
5.052781646E0,8.207381964E-1,1.935793519E0,8.420342445E0
5.069448312E0,7.728816867E-1,2.514856577E0,8.291130066E0
5.086114978E0,8.518448472E-1,3.637090445E0,8.013563156E0
5.102781644E0,1.055234790E0,5.218746185E0,7.578069210E0
5.119448310E0,1.531406522E0,6.652047157E0,7.633104324E0
5.136114976E0,2.557927370E0,8.999405861E0,7.941778183E0
5.152781642E0,5.046463013E0,1.083230782E1,8.999405861E0
5.169448308E0,6.826723099E0,1.230628681E1,9.655039787E0
5.186114974E0,6.118447304E0,1.120319557E1,9.573683739E0
5.202781640E0,4.220939159E0,8.104490280E0,1.047099209E1
5.219448306E0,2.366501570E0,5.017749310E0,1.099262714E1
5.236114972E0,3.302095234E-1,1.560120344E0,1.276810169E1
5.252781638E0,-1.564906001E0,-8.973084688E-1,1.334477234E1
5.269448304E0,-1.103091240E0,-1.696511269E0,1.227996540E1
5.286114970E0,-5.982056856E-1,-6.747759581E-1,1.005224800E1
5.302781636E0,4.785645287E-3,7.752745152E-1,7.913064480E0
5.319448302E0,5.383850932E-1,1.840080619E0,6.747759819E0
5.336114968E0,9.188438654E-1,2.620140791E0,6.084948063E0
5.352781634E0,9.954141974E-1,3.261417150E0,5.840879917E0
5.369448300E0,1.160519004E0,3.840480328E0,5.984449387E0
5.386114966E0,1.469193101E0,4.273581028E0,6.297909260E0
5.402781632E0,1.667797327E0,4.462614059E0,6.793223381E0
5.419448298E0,1.591227055E0,4.666004181E0,7.472784996E0
5.436114964E0,1.478764415E0,4.881358147E0,8.121239662E0
5.452781630E0,1.368694544E0,4.989035130E0,8.752944946E0
5.469448296E0,1.409372568E0,4.993820667E0,9.430113792E0
5.486114962E0,1.383051515E0,4.764110088E0,9.891928673E0
5.502781628E0,1.330409408E0,4.555934429E0,1.040877819E1
5.519448294E0,1.392622828E0,4.532006264E0,1.045424175E1
5.536114960E0,1.313659668E0,4.591826439E0,9.932606697E0
5.552781626E0,1.162911773E0,4.601397991E0,9.164510727E0
5.569448292E0,1.186840057E0,4.541577339E0,8.611768723E0
5.586114958E0,1.361516118E0,4.520041943E0,8.458627701E0
5.602781624E0,1.438086390E0,4.625326157E0,8.396414757E0
5.619448290E0,1.397408366E0,4.670789719E0,8.427521706E0
5.636114956E0,1.361516118E0,4.699503899E0,8.611768723E0
5.652781622E0,1.253839016E0,4.570291042E0,8.757730484E0
5.669448288E0,1.160519004E0,4.460221291E0,8.798408508E0
5.686114954E0,1.241874933E0,4.398007870E0,8.863015175E0
5.702781620E0,1.402194023E0,4.359723091E0,8.941978455E0
5.719448286E0,1.375872970E0,4.326223373E0,8.874979019E0
5.736114952E0,1.404586911E0,4.244867325E0,8.807980537E0
5.752781618E0,1.411765337E0,4.266402721E0,8.757730484E0
5.769448284E0,1.423729420E0,4.333401680E0,8.654839516E0
5.786114950E0,1.509871125E0,4.417150497E0,8.542376518E0
5.802781616E0,1.569691658E0,4.445864677E0,8.662017822E0
5.819448282E0,1.466800332E0,4.462614059E0,8.743373871E0
5.836114948E0,1.385444283E0,4.405186653E0,8.683553696E0
5.852781614E0,1.344766378E0,4.352544308E0,8.731410027E0
5.869448280E0,1.368694544E0,4.359723091E0,8.678768158E0
5.886114946E0,1.301695466E0,4.460221291E0,8.669196129E0
5.902781612E0,1.911865234E0,4.022335052E0,9.236295700E0
5.919448278E0,9.308080077E-1,4.019941807E0,8.788837433E0
5.936114944E0,4.785645381E-2,3.675375462E0,7.776673794E0
5.952781610E0,3.948157430E-1,3.739981890E0,7.460821152E0
5.969448276E0,7.704889178E-1,3.749552965E0,8.183453560E0
5.986114942E0,3.541377485E-1,3.342773199E0,8.834300995E0
6.002781608E0,-2.081755698E-1,2.682354212E0,8.714659691E0
6.019448274E0,-4.378865361E-1,2.620140791E0,8.231309891E0
6.036114940E0,-1.483550072E-1,3.072384357E0,7.951349735E0
6.052781606E0,1.244267747E-1,2.818745136E0,8.472985268E0
6.069448272E0,4.091726840E-1,2.895315409E0,8.496912956E0
6.086114938E0,8.327022791E-1,3.395415306E0,8.492127419E0
6.102781604E0,1.361516118E0,3.122633457E0,8.956335068E0
6.119448270E0,2.062613010E0,2.691925526E0,8.970691681E0
6.136114936E0,2.708675146E0,2.419143677E0,9.336793900E0
6.152781602E0,3.007778168E0,2.120040894E0,9.729216576E0
6.169448268E0,4.091726780E0,2.041077614E0,1.117208862E1
6.186114934E0,4.264009953E0,2.086541414E0,1.123908806E1
6.202781600E0,4.936393261E0,1.940579176E0,1.187079334E1
6.219448266E0,2.677568436E0,5.048855543E-1,9.920642853E0
6.236114932E0,5.020142078E0,1.021735311E0,8.659625053E0
6.252781598E0,6.072983742E0,1.478764415E0,8.516056061E0
6.269448264E0,7.728816986E0,1.859223247E0,5.070391178E0
6.286114930E0,6.477370739E0,1.447657704E0,1.010249710E1
6.302781596E0,4.419543266E0,1.820937991E0,9.463613510E0
6.319448262E0,5.194818020E0,3.038884640E0,9.427721024E0
6.336114928E0,2.694318295E0,1.828116536E0,9.107083321E0
6.352781594E0,-1.182054400E0,1.213161111E0,9.769894600E0
6.369448260E0,1.610369682E0,4.474578202E-1,1.126301575E1
6.386114926E0,3.871587038E0,-2.727817893E-1,8.114061356E0
6.402781592E0,3.687339783E0,1.660618901E0,8.786444664E0
6.419448258E0,3.639483213E0,2.476571321E0,1.118166065E1
6.436114924E0,3.536591768E0,1.770688742E-1,8.999405861E0
6.452781590E0,2.364108801E0,4.450650215E-1,9.006584167E0
6.469448256E0,1.871187329E0,-1.818545222E0,1.125344467E1
6.486114922E0,1.339980721E0,-1.813759565E0,1.009531879E1
6.502781588E0,1.998006940E0,-2.062613010E0,9.961320877E0
6.519448254E0,2.220539331E0,-1.832902193E0,1.005703354E1
6.536114920E0,2.060220242E0,-3.213560820E0,1.082752228E1
6.552781586E0,1.890329838E0,-4.017549038E0,1.168415260E1
6.569448252E0,1.397408366E0,-3.888336897E0,1.036092186E1
6.586114918E0,1.378265858E0,-3.747160196E0,9.001798630E0
6.602781584E0,1.612762451E0,-3.957728624E0,8.788837433E0
6.619448250E0,1.000199914E0,-4.668396950E0,9.049654961E0
6.636114916E0,4.283152521E-1,-5.252245903E0,9.288937569E0
6.652781582E0,-3.900300860E-1,-5.778666496E0,8.717052460E0
6.669448248E0,-7.274180651E-1,-6.135197163E0,8.319844246E0
6.686114914E0,-8.231309652E-1,-6.687939167E0,7.975277901E0
6.702781580E0,-1.043270707E0,-6.939185619E0,7.625925541E0
6.719448246E0,-1.521835208E0,-7.118647575E0,7.111468792E0
6.736114912E0,-1.600798368E0,-6.965506554E0,7.305287361E0
6.752781578E0,-1.655833244E0,-6.896114826E0,6.934400082E0
6.769448244E0,-1.562513232E0,-6.486942291E0,6.589833736E0
6.786114910E0,-1.741974831E0,-6.446264267E0,5.728417397E0
6.802781576E0,-2.505285263E0,-6.551548481E0,5.125426292E0
6.819448242E0,-3.048455954E0,-6.589833736E0,4.912465096E0
6.836114908E0,-3.421736479E0,-7.063612461E0,4.596612453E0
6.852781574E0,-3.845266104E0,-7.642675400E0,4.709074974E0
6.869448240E0,-4.450650215E0,-7.941778183E0,5.206781864E0
6.886114906E0,-4.613361835E0,-8.609375954E0,4.735395908E0
6.902781572E0,-4.914857864E0,-8.831908226E0,4.847858906E0
6.919448238E0,-5.704489231E0,-8.597412109E0,5.008177757E0
6.936114904E0,-5.010570526E0,-7.159325123E0,4.974678040E0
6.952781570E0,-3.534198999E0,-7.281359196E0,4.709074974E0
6.969448236E0,-3.376272678E0,-6.699903488E0,3.364308596E0
6.986114902E0,-4.211368084E0,-7.173682213E0,1.512263894E0
7.002781568E0,-5.075176716E0,-7.657032490E0,3.168097258E0
7.019448234E0,-6.819544315E0,-7.018148899E0,4.345366001E0
7.036114900E0,-7.063612461E0,-6.580262184E0,6.010770321E0
7.052781566E0,-6.719046116E0,-7.936992645E0,3.967299938E0
7.069448232E0,-7.853243828E0,-6.802794933E0,4.438685894E0
7.086114898E0,-8.774480820E0,-5.527420521E0,3.692125320E0
7.102781564E0,-8.073383331E0,-5.469992638E0,1.672582984E0
7.119448230E0,-6.711867332E0,-4.414757729E0,-8.805587292E-1
7.136114896E0,-8.207381248E0,-3.251846075E0,-2.816352367E0
7.152781562E0,-1.056191921E1,-5.749952793E0,-1.390229940E0
7.169448228E0,-8.645268440E0,-5.862415314E0,1.789831281E0
7.186114894E0,-6.549155712E0,-6.374479294E0,8.925228715E-1
7.202781560E0,-5.077569485E0,-5.369493961E0,-1.627119333E-1
7.219448226E0,-5.319244862E0,-3.668197155E0,-4.929214716E-1
7.236114892E0,-6.628118515E0,-2.823530674E0,5.527420044E-1
7.252781558E0,-5.874379635E0,-2.167897224E0,5.120640397E-1
7.269448224E0,-5.752345562E0,-3.122633457E0,-3.268595695E0
7.286114890E0,-6.503692150E0,-5.312066078E0,-5.472385406E0
7.302781556E0,-1.043749237E1,-8.803194046E0,-5.804987907E0
7.319448222E0,-8.956335068E0,-9.619147301E0,-1.076770186E0
7.336114888E0,-7.190432072E0,-6.355337143E0,2.967100143E0
7.352781554E0,-7.941778183E0,-5.091926575E0,5.838487148E-1
7.369448220E0,-6.367300987E0,-3.969692707E0,-3.038884640E0
7.386114886E0,-5.821737289E0,-3.661018610E0,-2.737389088E0
7.402781552E0,-7.575676441E0,-4.491328239E0,-1.189232826E0
7.419448218E0,-7.338787079E0,-3.711267948E0,7.896314561E-2
7.436114884E0,-7.671389580E0,-3.067598581E0,1.584048629E0
7.452781550E0,-7.075576782E0,-2.663211584E0,7.154539824E-1
7.469448216E0,-5.821737289E0,-7.250252366E-1,3.017349243E0
7.486114882E0,-4.898108006E0,1.674975902E-1,2.342573404E0
7.502781548E0,-5.178068161E0,1.148554832E-1,2.258824587E0
7.519448214E0,-5.749952793E0,-9.571290761E-2,2.636890650E0
7.536114880E0,-7.369893551E0,-5.407779217E-1,3.541377544E0
7.552781546E0,-7.800601959E0,-1.165304661E0,2.624926329E0
7.569448212E0,-8.338987350E0,-1.210768223E0,2.165504456E0
7.586114878E0,-1.081555843E1,-4.235295951E-1,5.288137794E-1
7.602781544E0,-1.261017513E1,6.269195080E-1,-4.498506486E-1
7.619448210E0,-1.325384426E1,3.469592929E-1,1.603191197E-1
7.636114876E0,-1.424925900E1,-1.885544300E0,1.531406492E-1
7.652781542E0,-1.404586887E1,-2.632104874E0,1.004985452E0
7.669448208E0,-1.379940796E1,-1.241874933E0,-1.890329868E-1
7.686114874E0,-1.498864079E1,1.071984529E0,-1.014556766E0
7.702781540E0,-1.702971840E1,1.107876897E0,-1.076770201E-1
7.719448206E0,-1.744367790E1,1.148554832E-1,1.406979680E0
7.736114872E0,-1.611805344E1,-1.052841991E-1,-3.110669367E-2
7.752781538E0,-1.434736443E1,3.972085714E-1,-8.709874153E-1
7.769448204E0,-1.292363548E1,1.552941918E0,-9.547362328E-1
7.786114870E0,-1.249771309E1,1.964507341E0,-4.331009090E-1
7.802781536E0,-1.249053383E1,2.565105915E0,7.896314561E-2
7.819448202E0,-1.250010586E1,1.689332843E0,-2.488535494E-1
7.836114868E0,-1.177029419E1,2.701496840E0,3.615555048E0
7.852781534E0,-1.119601727E1,5.096712112E0,4.113262177E0
7.869448200E0,-9.528220177E0,5.802595139E0,3.297309637E0
7.886114866E0,-7.915457249E0,6.774080753E0,2.505285263E0
7.902781532E0,-7.379465103E0,6.039484501E0,7.561319470E-1
7.919448198E0,-7.403393269E0,4.919643402E0,-2.344966173E0
7.936114864E0,-8.063812256E0,3.806980848E0,-3.326023579E0
7.952781530E0,-9.178867340E0,2.935993433E0,-3.189632654E0
7.969448196E0,-9.111868858E0,2.021935225E0,-3.232703447E0
7.986114862E0,-8.896514893E0,9.547362328E-1,-2.768495798E0
8.002781528E0,-1.090648556E1,-2.163111687E0,-2.794816732E0
8.019448194E0,-1.262692547E1,-4.383651257E0,-3.742374659E0
8.036114860E0,-1.295474148E1,-3.962514400E0,-3.007778168E0
8.052781526E0,-1.087298584E1,-4.328616142E0,-1.354337573E0
8.069448192E0,-7.556533813E0,-2.677568436E0,1.342373490E0
8.086114858E0,-4.599005222E0,-7.609176040E-1,3.591626883E0
8.102781524E0,-4.867001057E0,1.371087432E0,4.773681164E0
8.119448190E0,-6.563512325E0,4.211368084E0,6.532405853E0
8.136114856E0,-7.207181931E0,3.838087559E0,4.235296249E0
8.152781522E0,-6.623332977E0,2.902493954E0,-4.689932466E-1
8.169448188E0,-9.422935486E0,3.493520916E-1,-1.150947690E0
8.186114854E0,-9.851250648E0,-2.720639229E0,-1.203589797E0
8.202781520E0,-8.796015739E0,-3.622733593E0,-4.283152521E-1
8.219448186E0,-9.877572060E0,-2.172683001E0,4.055834293E0
8.236114852E0,-9.836894035E0,-5.285745144E0,6.800402164E0
8.252781518E0,-1.141854954E1,-1.804188251E0,6.635297298E0
8.269448184E0,-9.944570541E0,-1.775474429E0,2.124826431E0
8.286114850E0,-8.707481384E0,-1.627119422E0,1.610369682E0
8.302781516E0,-6.147161484E0,-7.465606928E-1,3.912265062E0
8.319448182E0,-6.410371780E0,-3.278166950E-1,3.732803345E0
8.336114848E0,-1.127258778E1,2.225325108E-1,5.446064472E0
8.352781514E0,-1.444546986E1,-2.859423161E0,4.359723091E0
8.369448180E0,-1.500299835E1,-3.531806231E0,6.977470875E0
8.386114846E0,-1.659901047E1,-3.378665686E0,5.869594097E0
8.402781512E0,-1.849412537E1,-3.158525944E0,3.287738323E0
8.419448178E0,-1.652722549E1,1.696511269E0,-4.445864677E0
8.436114844E0,-1.323470211E1,3.699303865E0,-3.203989506E0
8.452781510E0,-9.219545364E0,3.354737282E0,-1.134197950E0
8.469448176E0,-7.451249599E0,1.978864312E0,-2.775674343E0
8.486114842E0,-5.307280540E0,3.558127165E0,-4.642076015E0
8.502781508E0,-4.654039860E0,4.460221291E0,-3.605983734E0
8.519448174E0,-3.014956415E-1,7.338787079E0,1.476371527E0
8.536114840E0,3.326023579E0,1.017667484E1,4.357329845E0
8.552781506E0,-1.196411327E-1,9.413364410E0,3.890729666E0
8.569448172E0,-9.801001549E0,5.781059742E0,1.335195065E0
8.586114838E0,-7.051648140E0,4.742574692E0,1.904686809E0
8.602781504E0,1.172483116E-1,7.288537979E0,1.996810532E1
8.619448170E0,1.237089276E0,8.063812256E0,1.266521072E1
8.636114836E0,-5.548955917E0,3.682554007E0,6.269195557E0
8.652781502E0,-5.589633465E0,2.636890650E0,4.079762459E0
8.669448168E0,-5.424529076E0,1.349551916E0,1.507478207E-1
8.686114834E0,-2.574677229E0,3.878765583E0,-3.816552162E0
8.702781500E0,1.842473447E-1,4.754538536E0,-1.268195957E-1
8.719448166E0,-5.213960648E0,5.603990555E0,6.695117950E0
8.736114832E0,-9.308079720E0,4.376472473E0,4.706682205E0
8.752781498E0,-6.391229153E0,2.141576290E0,1.191625714E0
8.769448164E0,-3.053241730E0,1.715653777E0,-1.562513232E0
8.786114830E0,-2.799602449E-1,9.116654396E-1,-3.024527788E0
8.802781496E0,2.201396823E-1,1.024128079E0,-2.555534601E0
8.819448162E0,7.992027402E-1,1.241874933E0,-1.823330879E0
8.836114828E0,1.665404558E0,6.137589931E0,-2.143969059E0
8.852781494E0,6.065805435E0,2.170529366E1,-6.788437843E0
8.869448160E0,1.087059307E1,4.495156479E1,-1.193061352E1
8.886114826E0,8.327022791E-1,4.175475693E1,1.992503357E1
8.902781492E0,-5.168497086E0,1.559641838E1,6.094519138E0
8.919448158E0,-3.845266104E0,4.816751957E0,1.978864312E0
8.936114824E0,-3.129812002E0,2.517249346E0,2.799602449E-1
8.952781490E0,-3.505485058E0,3.558127165E0,1.028913707E-1
8.969448156E0,-2.452643156E0,7.523034573E0,-1.246660590E0
8.986114822E0,1.110269666E0,1.118405342E1,-2.120040894E0
9.002781488E0,1.272981644E0,1.133001518E1,-2.242074728E0
9.019448154E0,-1.751546144E0,1.011206818E1,5.982056856E-1
9.036114820E0,-2.586641312E0,8.389236450E0,3.081955671E0
9.052781486E0,-3.010170937E0,7.649854183E0,2.866601467E0
9.069448152E0,-2.706282377E0,8.525627136E0,1.038485050E0
9.086114818E0,-2.617748022E0,9.334401131E0,4.618147612E-1
9.102781484E0,-2.091326952E0,1.049970531E1,-4.402793646E-1
9.119448150E0,-2.821137905E0,1.012642574E1,6.221338734E-2
9.136114816E0,-3.328416348E0,9.200403214E0,1.387837172E0
9.152781482E0,-2.550748825E0,9.183652878E0,1.887937069E0
9.169448148E0,-2.057827473E0,9.712467194E0,9.236295223E-1
9.186114814E0,-1.866401672E0,9.868000984E0,-1.411765367E-1
9.202781480E0,-1.902294040E0,9.576076508E0,-5.024927482E-2
9.219448146E0,-1.730010748E0,9.425328255E0,2.464607358E-1
9.236114812E0,-1.395015597E0,9.690931320E0,5.335994363E-1
9.252781478E0,-1.239482164E0,9.745966911E0,5.000999570E-1
9.269448144E0,-1.356730461E0,9.418149948E0,2.919243574E-1
9.286114810E0,-1.488335729E0,9.449256897E0,4.618147612E-1
9.302781476E0,-1.777867198E0,9.734002113E0,6.197410822E-1
9.319448142E0,-1.966900229E0,9.901499748E0,3.589234054E-1
9.336114808E0,-2.086541414E0,9.501898766E0,4.857429862E-1
9.352781474E0,-2.076970100E0,8.884550095E0,5.335994363E-1
9.369448140E0,-2.349751949E0,8.611768723E0,2.991028428E-1
9.386114806E0,-2.667997360E0,8.898907661E0,3.828516230E-2
9.402781472E0,-2.837887764E0,9.355937004E0,3.158525825E-1
9.419448138E0,-3.074777126E0,9.492327690E0,3.517449200E-1
9.436114804E0,-3.376272678E0,9.286544800E0,2.440679073E-1
9.452781470E0,-3.010170937E0,9.147761345E0,4.019941986E-1
9.469448136E0,-3.218346357E0,8.851051331E0,5.575276613E-1
9.486114802E0,-3.431307554E0,8.520841599E0,4.546363056E-1
9.502781468E0,-3.337987661E0,8.508877754E0,3.110669367E-2
9.519448134E0,-3.570091486E0,8.480163574E0,2.153540403E-2
9.536114800E0,-3.627519131E0,8.805587769E0,-7.178467698E-3
9.552781466E0,-3.797409534E0,9.241081238E0,3.349951804E-1
9.569448132E0,-4.067798615E0,9.434899330E0,6.053841114E-1
9.586114798E0,-4.120440483E0,9.552147865E0,8.207381964E-1
9.602781464E0,-4.369294167E0,9.655039787E0,7.058826685E-1
9.619448130E0,-4.563112736E0,9.573683739E0,6.963114142E-1
9.636114796E0,-4.208974838E0,9.343972206E0,1.500299811E0
9.652781462E0,-3.302095175E0,9.083154678E0,1.454836130E0
9.669448128E0,-3.151347399E0,8.860622406E0,1.514656782E0
9.686114794E0,-2.696711063E0,8.982656479E0,1.761117458E0
9.702781460E0,-2.364108801E0,8.989834785E0,1.100698471E0
9.719448126E0,-2.478964329E0,8.977870941E0,8.997012973E-1
9.736114792E0,-2.163111687E0,9.293723106E0,9.212366939E-1
9.752781458E0,-2.577069998E0,9.276973724E0,8.757730722E-1
9.769448124E0,-2.648854733E0,9.343972206E0,1.237089276E0
9.786114790E0,-2.799602509E0,9.434899330E0,1.473978758E0
9.802781456E0,-3.014956474E0,9.537791252E0,1.591227055E0
9.819448122E0,-3.433700562E0,9.370293617E0,1.450050473E0
9.836114788E0,-3.917050600E0,9.281759262E0,1.074377418E0
9.852781454E0,-4.067798615E0,9.353543282E0,8.470591903E-1
9.869448120E0,-4.242474556E0,9.193224907E0,6.843472719E-1
9.886114786E0,-4.189832687E0,9.762716293E0,3.349951804E-1
9.902781452E0,-3.696911097E0,1.161476135E1,5.335994363E-1
9.919448118E0,-2.227717876E0,1.333280754E1,1.277767301E0
9.936114784E0,-1.938186288E-1,1.352423382E1,3.141776085E0
9.952781450E0,2.321037948E-1,1.373719501E1,7.546962738E0
9.969448116E0,-1.313659668E0,1.323470211E1,1.212203979E1
9.986114782E0,2.799602449E-1,1.201196957E1,7.262216568E0
1.000278145E1,1.483550072E-1,1.206939697E1,-6.384050846E0
1.001944811E1,-1.562513232E0,1.090170002E1,-5.927021503E0
1.003611478E1,-2.902493954E0,6.384050846E0,1.617548108E0
1.005278145E1,-3.632304668E0,2.792423964E0,7.341179848E0
1.006944811E1,-2.318645239E0,1.433300734E0,6.860222340E0
1.008611478E1,-6.293123364E-1,5.383851051E0,4.560719967E0
1.010278144E1,1.220339537E-1,1.037767220E1,3.873979807E0
1.011944811E1,-9.595218897E-1,1.003789139E1,4.386044025E0
1.013611478E1,-1.115055323E0,7.372286797E0,3.921836376E0
1.015278144E1,-8.877372146E-1,5.584847927E0,3.541377544E0
1.016944811E1,-6.197410822E-1,4.053441525E0,4.386044025E0
1.018611477E1,6.939185411E-2,3.448057413E0,4.271188259E0
1.020278144E1,6.125625968E-1,4.359723091E0,4.333401680E0
1.021944811E1,3.278166950E-1,5.324030399E0,4.697110653E0
1.023611477E1,-1.249053478E0,7.223931789E0,5.201996326E0
1.025278144E1,-3.089133978E0,9.212367058E0,5.326423168E0
1.026944810E1,-4.716253281E0,9.777072906E0,3.562912941E0
1.028611477E1,-6.003592014E0,9.272188187E0,2.428714991E0
1.030278144E1,-9.107083321E0,8.315058708E0,9.798608780E0
1.031944810E1,-7.219145775E0,9.281759262E0,3.672982693E0
1.033611477E1,-6.637690067E0,9.856036186E0,2.648854733E0
1.035278143E1,-8.063812256E0,8.417949677E0,7.987242222E0
1.036944810E1,-4.508078098E0,8.102097511E0,8.650053978E0
1.038611477E1,-1.203589797E0,8.583054543E0,4.591826439E0
1.040278143E1,9.260223508E-1,8.535198212E0,4.804787636E0
1.041944810E1,4.307080805E-2,7.439285755E0,1.696511269E0
1.043611476E1,-8.662018180E-1,7.822137356E0,-1.440479279E0
1.045278143E1,-2.122433662E0,9.315258980E0,1.198804140E0
1.046944810E1,-4.208974838E0,9.846465111E0,4.510470867E0
1.048611476E1,-4.352544308E0,1.019820976E1,5.479563713E0
1.050278143E1,-4.472185612E0,9.561718941E0,4.701896667E0
1.051944809E1,-4.725824833E0,9.092725754E0,4.575077057E0
1.053611476E1,-5.146961689E0,8.915657043E0,3.538984776E0
1.055278143E1,-5.335994720E0,8.688339233E0,2.443071842E0
1.056944809E1,-5.455635548E0,8.504091263E0,1.426122308E0
1.058611476E1,-4.938786030E0,7.570890903E0,2.450250387E0
1.060278142E1,-3.842873096E0,7.075576782E0,3.572484255E0
1.061944809E1,-5.063212872E0,7.089933395E0,2.723032236E0
1.063611476E1,-6.484549522E0,6.352943897E0,2.062613010E0
1.065278142E1,-8.918049812E0,5.836094379E0,1.564906001E0
1.066944809E1,-1.120319557E1,6.278766632E0,7.369893789E-1
1.068611475E1,-1.240439224E1,5.694917679E0,2.799602449E-1
1.070278142E1,-1.368694592E1,4.199403763E0,6.269195080E-1
1.071944809E1,-1.081555843E1,5.656632900E0,6.436693072E-1
1.073611475E1,-6.527620316E0,8.453842163E0,-6.221339107E-1
1.075278142E1,-3.036491871E0,8.798408508E0,3.397808075E-1
1.076944808E1,-6.412764788E-1,8.449056625E0,2.713460922E0
1.078611475E1,1.103091240E0,8.061419487E0,4.378865242E0
1.080278142E1,1.584048629E0,7.121040344E0,4.577469826E0
1.081944808E1,1.000199914E0,6.680760860E0,4.488935471E0
1.083611475E1,5.551348329E-1,6.917650223E0,3.471985579E0
1.085278141E1,1.674975827E-2,7.501499176E0,2.323430777E0
1.086944808E1,-1.603191197E-1,8.657232285E0,1.227517962E0
1.088611475E1,-5.000999570E-1,9.480362892E0,8.662018180E-1
1.090278141E1,-1.258624673E0,9.339186668E0,1.241874933E0
1.091944808E1,-2.031506538E0,1.004746246E1,3.177668571E0
1.093611474E1,-3.134597778E0,1.095673466E1,2.368894368E-1
1.095278141E1,-3.486342669E0,1.273699474E1,4.546362907E-2
1.096944808E1,-4.493721008E0,1.381376553E1,1.117448211E0
1.098611474E1,-5.448457241E0,1.278485107E1,-1.067198873E0
1.100278141E1,-6.608976364E0,1.297867012E1,-1.674975827E-2
1.101944807E1,-7.556533813E0,1.397408390E1,6.867401004E-1
1.103611474E1,-8.248059273E0,1.209332561E1,-3.924229145E-1
1.105278141E1,-9.334401131E0,8.209774017E0,4.122833252E0
1.106944807E1,-8.195417404E0,5.386243820E0,4.314259052E0
1.108611474E1,-5.020142078E0,4.819144726E0,2.210968018E0
1.110278140E1,-3.129812002E0,4.874179840E0,-2.344966233E-1
1.111944807E1,-2.598605394E0,6.482156754E0,-3.945764542E0
1.113611474E1,-4.283152580E0,8.788837433E0,-7.046862602E0
1.115278140E1,-4.180261135E0,9.573683739E0,-3.550948858E0
1.116944807E1,-4.321437836E0,9.745966911E0,2.536391914E-1
1.118611473E1,-3.259024382E0,9.631111145E0,2.404786825E0
1.120278140E1,-2.723032236E0,9.420542717E0,1.560120344E0
1.121944807E1,-2.457428932E0,9.281759262E0,-1.129412293E0
1.123611473E1,-2.696711063E0,8.683553696E0,-1.861616015E0
1.125278140E1,-3.270988464E0,8.111668587E0,-1.904686809E0
1.126944806E1,-3.534198999E0,8.384450912E0,-1.552941918E0
1.128611473E1,-3.390629768E0,9.367900848E0,-1.801795483E0
1.130278140E1,-3.304488182E0,1.046142101E1,-1.055234790E0
1.131944806E1,-2.835494757E0,1.072941685E1,8.015955687E-1
1.133611473E1,-2.665604353E0,1.009292603E1,2.158325911E0
1.135278139E1,-2.737389088E0,8.975478172E0,1.014556766E0
1.136944806E1,-2.581855536E0,8.307880402E0,-5.551348329E-1
1.138611473E1,-2.526820660E0,8.245666504E0,-1.770688742E-1
1.140278139E1,-3.089133978E0,9.052047729E0,1.600798368E0
1.141944806E1,-3.534198999E0,1.020778179E1,2.053041935E0
1.143611472E1,-3.909872293E0,9.757930756E0,1.074377418E0
1.145278139E1,-4.084548473E0,9.396614075E0,-3.134597540E-1
1.146944806E1,-3.677768469E0,9.310472488E0,-3.134597540E-1
1.148611472E1,-3.479164124E0,9.166903496E0,2.033899277E-1
1.150278139E1,-4.012763500E0,8.791230202E0,-3.541377485E-1
1.151944805E1,-3.464807272E0,9.444471359E0,-9.738788009E-1
1.153611472E1,-2.222932339E0,1.007378292E1,-7.752745152E-1
1.155278139E1,-1.067198873E0,1.008096218E1,4.235295951E-1
1.156944805E1,-6.412764788E-1,9.530612946E0,1.713261008E0
1.158611472E1,-8.614161611E-1,9.324830055E0,1.993221283E0
1.160278138E1,-2.440679073E-1,9.162117958E0,5.599204898E-1
1.161944805E1,7.202396393E-1,9.834501266E0,-6.460621208E-2
1.163611472E1,-6.699903607E-1,1.089452171E1,3.460021496E0
1.165278138E1,-1.720439434E0,1.087298584E1,3.500699520E0
1.166944805E1,-3.203989506E0,9.659825325E0,3.565305769E-1
1.168611471E1,-4.201796532E0,8.748159409E0,-7.010970116E-1
1.170278138E1,-3.572484255E0,8.748159409E0,1.122233868E0
1.171944805E1,-2.763710260E0,8.769695282E0,7.752745152E-1
1.173611471E1,-2.256431818E0,8.748159409E0,8.662018180E-1
1.175278138E1,-1.777867198E0,8.807980537E0,1.540977836E0
1.176944804E1,-1.648654819E0,8.958727837E0,1.883151412E0
1.178611471E1,-1.923829436E0,9.255437851E0,1.847259045E0
1.180278138E1,-2.388036966E0,9.547362328E0,1.816152334E0
1.181944804E1,-2.670390129E0,9.434899330E0,1.935793519E0
1.183611471E1,-2.828316450E0,9.341579437E0,2.256431818E0
1.185278137E1,-2.797209740E0,9.310472488E0,1.505085468E0
1.186944804E1,-2.560320139E0,9.128618240E0,6.891329288E-1
1.188611471E1,-2.309073925E0,9.087940216E0,5.886343718E-1
1.190278137E1,-2.024327993E0,9.604789734E0,1.363908887E0
1.191944804E1,-1.890329838E0,9.848857880E0,1.892722726E0
1.193611470E1,-1.962114573E0,9.614361763E0,1.612762451E0
1.195278137E1,-2.225325108E0,9.284152031E0,1.741974831E0
1.196944804E1,-2.431107759E0,9.128618240E0,2.096112728E0
1.198611470E1,-2.411965132E0,9.116654396E0,2.007578135E0
1.200278137E1,-2.292324066E0,9.178867340E0,1.852044702E0
1.201944803E1,-2.282752752E0,9.571290970E0,1.785045743E0
1.203611470E1,-2.258824587E0,9.827322960E0,1.545763373E0
1.205278137E1,-2.246860504E0,9.456435204E0,1.299302697E0
1.206944803E1,-2.426322222E0,9.078369141E0,1.270588875E0
1.208611470E1,-2.354537487E0,9.147761345E0,1.485942841E0
1.210278136E1,-2.490928411E0,9.425328255E0,1.593619823E0
1.211944803E1,-2.756531715E0,9.480362892E0,1.734796405E0
1.213611470E1,-3.345165968E0,9.600004196E0,1.648654819E0
1.215278136E1,-3.747160196E0,9.401400566E0,1.651047587E0
1.216944803E1,-3.658625841E0,9.360722542E0,2.134397745E0
1.218611469E1,-3.646661758E0,9.267401695E0,1.739582062E0
1.220278136E1,-3.546163082E0,8.941978455E0,1.210768223E0
1.221944803E1,-3.263810158E0,8.920442581E0,2.287538528E0
1.223611469E1,-3.096312523E0,8.587840080E0,3.759124279E0
1.225278136E1,-2.591426849E0,8.523234367E0,4.012763500E0
1.226944802E1,-2.062613010E0,8.810373306E0,3.213560820E0
1.228611469E1,-2.189432621E0,8.839086533E0,2.416750908E0
1.230278136E1,-2.723032236E0,9.047262192E0,1.598405480E0
1.231944802E1,-3.842873096E0,9.243474007E0,-2.009970993E-1
1.233611469E1,-4.063013077E0,9.415757179E0,1.373480201E0
1.235278135E1,-3.754338741E0,9.018548965E0,3.010170937E0
1.236944802E1,-3.675375462E0,8.365307808E0,2.316252232E0
1.238611469E1,-3.919443607E0,7.867600918E0,1.832902193E0
1.240278135E1,-4.177868366E0,7.709674358E0,2.297109842E0
1.241944802E1,-4.290330887E0,7.812565804E0,2.651247501E0
1.243611468E1,-4.575077057E0,7.922635555E0,2.864208698E0
1.245278135E1,-4.567898273E0,7.865208149E0,3.641875982E0
1.246944802E1,-4.158725739E0,7.757531166E0,4.074976921E0
1.248611468E1,-4.079762459E0,7.518248558E0,2.778067112E0
1.250278135E1,-4.232903481E0,7.994420528E0,2.419143677E0
1.251944801E1,-3.725624800E0,8.427521706E0,2.632104874E0
1.253611468E1,-3.483949661E0,8.140382767E0,2.486142635E0
1.255278135E1,-3.065205812E0,8.116454124E0,2.991028309E0
1.256944801E1,-2.969492912E0,8.752944946E0,2.498106956E0
1.258611468E1,-3.180061340E0,9.372686386E0,1.332802176E0
1.260278134E1,-3.945764542E0,9.142974854E0,8.303094506E-1
1.261944801E1,-4.247260094E0,9.162117958E0,4.977070987E-1
1.263611468E1,-4.381258488E0,9.789037704E0,1.124626637E0
1.265278134E1,-4.041477680E0,1.036570740E1,2.885744095E0
1.266944801E1,-1.660618901E0,1.100219822E1,1.624726534E0
1.268611467E1,-4.570291340E-1,1.053559780E1,9.355936646E-1
1.270278134E1,-1.677368641E0,9.303294182E0,6.178267956E0
1.271944801E1,-4.218546391E0,8.705088615E0,8.733802438E-1
1.273611467E1,-4.599005222E0,8.836693764E0,-1.160519004E0
1.275278134E1,-4.063013077E0,9.123832703E0,-6.460621357E-1
1.276944800E1,-3.871587038E0,8.477770805E0,3.972085714E-1
1.278611467E1,-3.493520975E0,8.276773453E0,3.541377485E-1
1.280278134E1,-3.309273720E0,8.807980537E0,5.694918036E-1
1.281944800E1,-2.902493954E0,9.554540634E0,1.751546144E0
1.283611467E1,-2.617748022E0,1.004267693E1,1.600798368E0
1.285278133E1,-2.761317253E0,9.585647583E0,-7.896314561E-2
1.286944800E1,-1.406979680E0,9.037691116E0,-1.019342422E0
1.288611467E1,-9.451649189E-1,8.788837433E0,-5.934200287E-1
1.290278133E1,-1.971685886E0,8.360522270E0,1.698904037E-1
1.291944800E1,-2.679961443E0,8.659625053E0,7.345965505E-1
1.293611466E1,-2.835494757E0,9.456435204E0,3.230310678E-1
1.295278133E1,-2.983849764E0,9.700503349E0,-2.057827413E-1
1.296944800E1,-3.182454109E0,9.535398483E0,-1.962114573E-1
1.298611466E1,-3.220739365E0,9.497113228E0,-2.321037948E-1
1.300278133E1,-3.160918713E0,9.377471924E0,-1.866401732E-1
1.301944799E1,-2.873780012E0,9.482755661E0,-5.240281820E-1
1.303611466E1,-2.359323025E0,9.681360245E0,-4.163511395E-1
1.305278133E1,-2.105684042E0,9.449256897E0,-2.464607358E-1
1.306944799E1,-1.911865234E0,9.238688469E0,-7.178468257E-2
1.308611466E1,-2.026720762E0,9.348757744E0,5.503492057E-2
1.310278132E1,-2.694318295E0,9.848857880E0,6.029912829E-1
1.311944799E1,-3.594019651E0,9.339186668E0,1.538584948E0
1.313611466E1,-3.723232031E0,8.843872070E0,1.636690736E0
1.315278132E1,-3.680161238E0,8.934800148E0,1.442872047E0
1.316944799E1,-3.759124279E0,9.255437851E0,1.732403636E0
1.318611465E1,-3.924229145E0,9.274580956E0,1.988435626E0
1.320278132E1,-4.098905087E0,9.200403214E0,1.574477315E0
1.321944799E1,-4.168296814E0,9.066405296E0,5.431707501E-1
1.323611465E1,-3.979264021E0,8.841479301E0,6.699903607E-1
1.325278132E1,-3.866801500E0,8.846264839E0,6.915257573E-1
1.326944798E1,-3.517449379E0,9.104690552E0,3.349951804E-1
1.328611465E1,-3.440878868E0,9.056833267E0,1.363908947E-1
1.330278132E1,-3.127419233E0,8.970691681E0,4.354937077E-1
1.331944798E1,-3.306880951E0,8.879764557E0,3.852444589E-1
1.333611465E1,-3.507878065E0,9.135796547E0,4.857429862E-1
1.335278131E1,-3.773481369E0,9.119047165E0,4.043870270E-1
1.336944798E1,-3.728017569E0,8.982656479E0,7.417750359E-1
1.338611465E1,-4.031906128E0,8.867800713E0,7.250252366E-1
1.340278131E1,-4.173082829E0,9.080761909E0,4.498506486E-1
1.341944798E1,-4.295116425E0,9.078369141E0,1.316052526E-1
1.343611464E1,-4.584648132E0,8.745766640E0,-3.661018610E-1
1.345278131E1,-4.352544308E0,8.901300430E0,-6.197410822E-1
1.346944798E1,-3.725624800E0,9.351150513E0,-5.718846321E-1
1.348611464E1,-3.046063185E0,9.248259544E0,-4.522434771E-1
1.350278131E1,-1.775474429E0,9.291330338E0,-3.373879790E-1
1.351944797E1,-2.435893536E0,9.511469841E0,7.633104324E-1
1.353611464E1,-2.868994236E0,1.019820976E1,1.615155339E0
1.355278131E1,-3.014956474E0,9.918250084E0,1.256231904E0
1.356944797E1,-2.560320139E0,9.690931320E0,1.576870084E0
1.358611464E1,-1.473978758E0,9.894321442E0,1.861616015E0
1.360278130E1,-5.192425251E-1,9.633503914E0,2.026720762E0
1.361944797E1,1.914258152E-1,9.391828537E0,2.498106956E0
1.363611464E1,-5.862415433E-1,8.951549530E0,4.862215519E0
1.365278130E1,-3.577269793E0,8.303094864E0,6.530013084E0
1.366944797E1,-4.867001057E0,8.281558990E0,7.137789726E0
1.368611463E1,-4.742574692E0,7.994420528E0,5.551348686E0
1.370278130E1,-4.512863636E0,7.255038261E0,5.611168861E0
1.371944797E1,-3.814159393E0,7.173682213E0,6.163911343E0
1.373611463E1,-1.780260086E0,6.238088608E0,4.230510235E0
1.375278130E1,-4.302295208E0,6.625725746E0,3.081955671E0
1.376944796E1,-5.094319344E0,6.867401123E0,2.691925526E0
1.378611463E1,-5.285745144E0,6.912864685E0,2.519642353E0
1.380278130E1,-4.630111694E0,6.431907177E0,2.522035122E0
1.381944796E1,-3.830909014E0,5.637490273E0,2.746960402E0
1.383611463E1,-2.854637384E0,5.161318302E0,2.385644197E0
1.385278129E1,-1.907079697E0,5.163711071E0,1.710868239E0
1.386944796E1,-1.521835208E0,6.424728870E0,-4.187439680E-1
1.388611463E1,-7.465606928E-1,9.726823807E0,-1.691725612E0
1.390278129E1,-1.366301775E0,1.373719501E1,-1.313659668E0
1.391944796E1,-4.101297855E0,2.179622078E1,1.645304871E1
1.393611462E1,-9.037691116E0,2.029352951E1,3.034099102E0
1.395278129E1,-2.373680115E0,1.000199890E1,6.534798622E0
1.396944796E1,-1.007856941E1,5.539384365E0,-1.531406492E-1
1.398611462E1,-1.058345413E1,4.972285271E0,1.677368641E0
1.400278129E1,-3.594019651E0,5.371886730E0,-1.655833244E0
1.401944795E1,-2.522035122E0,4.864608288E0,-4.187439680E-1
1.403611462E1,1.183968639E1,1.163629627E1,1.914258115E-2
1.405278129E1,1.916650891E0,9.320044518E0,5.020142078E0
1.406944795E1,-4.340580463E0,8.087740898E0,4.067798555E-1
1.408611462E1,-2.009970903E0,1.045184898E1,1.591227055E0
1.410278128E1,-6.604190469E-1,1.137308598E1,2.734996319E0
1.411944795E1,-2.660818815E0,1.145683479E1,4.869394302E0
1.413611462E1,-2.368894339E0,9.504291534E0,4.132404804E0
1.415278128E1,-5.479564071E-1,9.315258980E0,8.973084688E-1
1.416944795E1,-1.076770186E0,8.248059273E0,9.044869542E-1
1.418611461E1,-2.416750908E0,6.979863644E0,1.868794441E0
1.420278128E1,-1.744367719E0,7.329215527E0,1.813759565E0
1.421944795E1,-2.407179594E0,9.229117393E0,1.703689694E0
1.423611461E1,-3.091526747E0,9.497113228E0,1.282552958E0
1.425278128E1,-5.108676434E0,1.264128208E1,3.582055569E0
1.426944794E1,-1.387837082E-1,9.564111710E0,1.768295884E0
1.428611461E1,2.703889608E-1,6.534798622E0,2.395215511E0
1.430278128E1,-1.909472466E0,9.678967476E0,2.356930256E0
1.431944794E1,-3.584448338E0,1.034417248E1,1.459621787E0
1.433611461E1,-3.168097258E0,1.127258778E1,2.354537487E0
1.435278127E1,-1.562513232E0,1.226082325E1,3.708875179E0
1.436944794E1,-1.282552958E0,1.204786205E1,2.979064226E0
1.438611461E1,2.871387303E-1,1.080120182E1,3.038884699E-1
1.440278127E1,2.309073925E0,1.036331463E1,-9.092725813E-2
1.441944794E1,1.959721804E0,1.311984634E1,6.508477330E-1
1.443611460E1,8.829515576E-1,6.783652306E0,-1.395015597E0
1.445278127E1,-7.657032460E-2,1.018146038E1,-3.134597540E-1
1.446944794E1,3.349951655E-2,1.037527943E1,-6.460621208E-2
1.448611460E1,9.355936646E-1,1.118644619E1,4.929214716E-1
1.450278127E1,1.277767301E0,1.061456108E1,7.417750359E-2
1.451944793E1,9.643075466E-1,9.334401131E0,-1.071984529E0
1.453611460E1,1.136590719E0,8.597412109E0,-1.086341500E0
1.455278127E1,6.771687865E-1,8.417949677E0,-5.862415433E-1
1.456944793E1,-3.756731451E-1,8.200202942E0,-9.188438654E-1
1.458611460E1,-1.531406522E0,8.386843681E0,-3.900300860E-1
1.460278126E1,-1.488335729E0,7.984848976E0,-6.484549642E-1
1.461944793E1,-5.575276613E-1,8.255238533E0,-9.499505758E-1
1.463611460E1,-1.282552958E0,5.395814896E0,-1.043270707E0
1.465278126E1,3.680161238E0,9.458827972E0,3.443271875E0
1.466944793E1,1.591227055E0,7.398607731E0,3.002992392E0
1.468611459E1,1.562513232E0,9.987641335E0,1.698904037E0
1.470278126E1,-2.687139750E0,9.619147301E0,1.179661512E0
1.471944793E1,-2.289931297E0,1.063848972E1,1.653440475E0
1.473611459E1,-2.720639229E0,7.434499741E0,2.600998163E0
1.475278126E1,-2.062613010E0,7.515855789E0,2.871387243E0
1.476944792E1,-2.895315409E0,8.975478172E0,9.355936646E-1
1.478611459E1,-5.118247509E0,8.659625053E0,-1.698904037E-1
1.480278126E1,-4.914857864E0,9.458827972E0,-9.595218897E-1
1.481944792E1,-5.412564754E0,8.748159409E0,5.742774606E-1
1.483611459E1,-6.020341873E0,8.437092781E0,3.014956415E-1
1.485278125E1,-1.172483087E0,1.083709335E1,2.620140791E0
1.486944792E1,-2.864208698E0,1.116491032E1,9.499505758E-1
1.488611459E1,-4.108476639E0,1.047577763E1,1.052841991E-1
1.490278125E1,-3.182454109E0,1.010010433E1,5.383850932E-1
1.491944792E1,-2.455035925E0,9.133403778E0,1.241874933E0
1.493611458E1,-4.524827480E0,7.661818027E0,-1.390229940E0
1.495278125E1,1.744367719E0,9.260223389E0,4.017549038E0
1.496944792E1,1.763510346E0,9.561718941E0,2.636890650E0
1.498611458E1,4.187439680E-1,9.154939651E0,1.849651933E0
1.500278125E1,4.426721931E-1,9.025727272E0,1.349551916E0
1.501944791E1,-5.000999570E-1,9.032905579E0,2.407179594E0
1.503611458E1,-4.402793646E-1,9.458827972E0,2.510071039E0
1.505278125E1,-4.259224236E-1,9.616754532E0,2.835494757E0
1.506944791E1,-4.546362907E-2,9.588040352E0,1.421336651E0
1.508611458E1,-1.722832322E-1,9.336793900E0,1.328016520E0
1.510278124E1,1.627119333E-1,9.133403778E0,2.033899307E0
1.511944791E1,4.402793646E-1,8.956335068E0,2.297109842E0
1.513611458E1,6.723831892E-1,9.669396400E0,2.191825628E0
1.515278124E1,8.279166222E-1,1.067198944E1,2.057827473E0
1.516944791E1,1.430907965E0,1.108833981E1,2.584248543E0
1.518611457E1,1.698904037E0,1.127019501E1,2.720639229E0
1.520278124E1,5.958128572E-1,1.054756260E1,2.421536446E0
1.521944791E1,8.997012973E-1,1.066720295E1,3.383451223E0
1.523611457E1,-3.996013701E-1,1.180379391E1,3.512663603E0
1.525278124E1,-6.891329288E-1,1.170090294E1,3.196810961E0
1.526944790E1,7.082754970E-1,1.215553856E1,5.005784988E0
1.528611457E1,1.706082582E0,1.041595650E1,3.199203968E0
1.530278124E1,2.273181528E-1,9.439684868E0,2.809173822E0
1.531944790E1,-1.454836130E0,9.329615593E0,5.094319344E0
1.533611457E1,3.349951804E-1,1.115533924E1,2.213361025E0
1.535278123E1,5.479564071E-1,9.518648148E0,-9.403793216E-1
1.536944790E1,3.613162339E-1,6.991827965E0,-8.805587292E-1
1.538611457E1,2.029113531E0,6.977470875E0,-1.000199914E0
1.540278123E1,1.667797327E0,7.271788120E0,-4.283152521E-1
1.541944790E1,1.746760488E0,8.781659126E0,9.667003751E-1
1.543611456E1,2.110469580E0,9.887143135E0,1.962114573E-1
1.545278123E1,2.940778971E0,9.018548965E0,2.632105052E-1
1.546944790E1,2.079362869E0,6.295516491E0,-1.004985496E-1
1.548611456E1,1.306481123E0,4.137190342E0,-1.249053478E0
1.550278123E1,-1.026520967E0,4.441078663E0,-1.335195065E0
1.551944789E1,-2.706282377E0,4.993820667E0,1.928615093E0
1.553611456E1,-4.675575256E0,4.527220249E0,6.898507595E0
1.555278123E1,-3.105883837E0,9.712467194E0,7.073183537E0
1.556944789E1,-6.197410583E0,2.056152534E1,-4.084548473E0
1.558611456E1,-2.821137905E0,1.974078751E1,-3.661018610E-1
1.560278122E1,7.616354465E0,8.918049812E0,-8.829515576E-1
1.561944789E1,1.111705399E1,8.283951759E0,5.721239090E0
1.563611456E1,2.251646042E0,1.400040531E1,8.307880402E0
1.565278122E1,-2.536391973E0,1.170090294E1,3.419343472E0
1.566944789E1,-2.943171740E0,8.824729919E0,-4.235295951E-1
1.568611455E1,1.555334687E0,6.053841114E0,-9.355936646E-1
1.570278122E1,1.263410330E0,4.534399033E0,2.060220242E0
1.571944789E1,4.618147612E-1,7.925028801E0,3.203989506E0
1.573611455E1,3.996013701E-1,1.229910851E1,1.509871125E0
1.575278122E1,-9.332008362E-1,1.269870949E1,6.819544435E-1
1.576944788E1,-1.911865234E0,8.697910309E0,2.440679073E0
1.578611455E1,-4.522434771E-1,7.618747234E0,2.246860504E0
1.580278122E1,1.921436548E0,8.535198212E0,9.930213690E-1
1.581944788E1,3.182454109E0,1.014796066E1,8.039883971E-1
1.583611455E1,2.758924484E0,1.100937653E1,1.289731383E0
1.585278121E1,1.789831281E0,1.089930725E1,1.433300734E0
1.586944788E1,1.036092162E0,1.049252701E1,1.445264935E0
1.588611455E1,8.231309652E-1,9.968499184E0,1.292124271E0
1.590278121E1,6.125625968E-1,9.757930756E0,4.378865361E-1
1.591944788E1,-2.153540403E-2,9.030512810E0,3.469592929E-1
1.593611454E1,-4.115654826E-1,8.671588898E0,6.867401004E-1
1.595278121E1,1.435693540E-2,9.489934921E0,1.119840980E0
1.596944788E1,3.996013701E-1,9.908679008E0,1.258624673E0
1.598611454E1,6.245267391E-1,9.425328255E0,9.858429432E-1
1.600278121E1,1.107876897E0,9.253045082E0,9.643075466E-1
1.601944787E1,1.289731383E0,9.291330338E0,9.068797827E-1
1.603611454E1,8.733802438E-1,9.817750931E0,1.088734269E0
1.605278121E1,7.274180651E-1,9.104690552E0,1.466800332E0
1.606944787E1,7.537391186E-1,9.640682220E0,1.091127157E0
1.608611454E1,1.000199914E0,1.080598736E1,1.837687731E0
1.610278120E1,1.048056364E0,1.230628681E1,2.682354212E0
1.611944787E1,5.623133183E-1,1.256710434E1,3.969692707E0
1.613611454E1,1.684547186E0,1.217946720E1,5.051248550E0
1.615278120E1,3.565305710E0,1.276331615E1,3.816552162E0
1.616944787E1,2.773281336E0,1.225843048E1,2.160718918E0
1.618611453E1,1.371087432E0,1.200718403E1,2.155933142E0
1.620278120E1,6.675975323E-1,1.165304661E1,2.670390129E0
1.621944787E1,6.029912829E-1,1.116012478E1,3.189632654E0
1.623611453E1,1.689332843E0,1.163151073E1,3.328416348E0
1.625278120E1,2.486142635E0,1.234457207E1,2.124826431E0
1.626944786E1,2.608176708E0,1.262213898E1,2.146361828E0
1.628611453E1,2.823530674E0,1.314138222E1,2.758924484E0
1.630278120E1,3.101098061E0,1.295952702E1,3.077169895E0
1.631944786E1,2.727817774E0,1.298106289E1,3.694518089E0
1.633611453E1,9.499505758E-1,1.189950657E1,3.038884640E0
1.635278119E1,-7.106683254E-1,1.118883896E1,2.359323025E0
1.636944786E1,-2.986242771E0,1.010967541E1,1.730010748E0
1.638611453E1,-4.431507587E0,9.023334503E0,1.014556766E0
1.640278119E1,-4.754538536E0,8.037490845E0,1.301695466E0
1.641944786E1,-5.180460930E0,6.553941250E0,1.703689694E0
1.643611452E1,-4.311866283E0,6.132804394E0,1.897508383E0
1.645278119E1,-3.553341627E0,6.343372822E0,2.096112728E0
1.646944786E1,-2.289931297E0,5.663811207E0,1.531406522E0
1.648611452E1,-2.086541414E0,5.903093338E0,9.690931439E-1
1.650278119E1,-2.775674343E0,4.469792843E0,1.899901152E0
1.651944785E1,-2.782852650E0,4.486542225E0,3.931407690E0
1.653611452E1,-2.550748825E0,2.976671457E0,4.677968502E0
1.655278119E1,-2.165504456E0,3.842873096E0,4.443471432E0
1.656944785E1,-2.818745136E0,4.254438877E0,3.062813044E0
1.658611452E1,-3.986442566E0,3.098705292E0,3.335594654E0
1.660278118E1,-4.460221291E0,2.017149448E0,3.627519131E0
1.661944785E1,-4.024727821E0,3.132204771E0,3.799802303E0
1.663611452E1,-3.393022537E0,4.058227062E0,4.151547432E0
1.665278118E1,-2.904886723E0,4.474578381E0,4.412364960E0
1.666944785E1,-3.361915827E0,5.204389095E0,4.381258488E0
1.668611451E1,-4.548755646E0,6.731009960E0,4.046263218E0
1.670278118E1,-4.742574692E0,8.494520187E0,4.728217602E0
1.671944785E1,-5.309673309E0,9.176474571E0,4.790431023E0
1.673611451E1,-5.965306759E0,8.956335068E0,4.881358147E0
1.675278118E1,-6.235695839E0,7.295716286E0,5.871986866E0
1.676944784E1,-6.154339790E0,6.283552170E0,5.998806477E0
1.678611451E1,-6.080162525E0,5.730810165E0,5.501099110E0
1.680278118E1,-5.175675392E0,5.773880959E0,4.989035130E0
1.681944784E1,-4.790431023E0,6.080162525E0,4.357329845E0
1.683611451E1,-5.113461971E0,6.589833736E0,3.893122435E0
1.685278117E1,-4.515256405E0,7.697710514E0,3.148954630E0
1.686944784E1,-5.012963295E0,7.491927624E0,2.696711063E0
1.688611451E1,-4.840680122E0,6.613761902E0,2.969492912E0
1.690278117E1,-4.359723091E0,5.970092297E0,3.431307554E0
1.691944784E1,-4.213760853E0,5.477170944E0,2.967100143E0
1.693611450E1,-4.206582069E0,5.852844238E0,3.172882795E0
1.695278117E1,-4.048655987E0,6.637690067E0,4.067798615E0
1.696944784E1,-3.830909014E0,7.841279984E0,4.120440483E0
1.698611450E1,-3.625126362E0,9.147761345E0,4.374079704E0
1.700278117E1,-3.768695593E0,1.037527943E1,4.206582069E0
1.701944783E1,-2.938386202E0,1.197846985E1,4.259224415E0
1.703611450E1,-2.457428932E0,1.193061352E1,4.311866283E0
1.705278117E1,-2.813959360E0,9.427721024E0,4.369294167E0
1.706944783E1,-2.258824587E0,8.360522270E0,4.063013077E0
1.708611450E1,-1.974078655E0,8.221738815E0,3.929014683E0
1.710278116E1,-2.464607239E0,8.571090698E0,4.082155228E0
1.711944783E1,-3.014956474E0,8.958727837E0,4.354937077E0
1.713611450E1,-2.868994236E0,9.092725754E0,4.371686935E0
1.715278116E1,-2.091326952E0,9.504291534E0,4.019941807E0
1.716944783E1,-1.588834286E0,1.015753174E1,3.627519131E0
1.718611449E1,-1.806581140E0,9.990034103E0,3.682554007E0
1.720278116E1,-1.564906001E0,9.609575272E0,3.739981890E0
1.721944783E1,-1.153340459E0,9.719645500E0,3.608376503E0
1.723611449E1,-9.116654396E-1,9.999606133E0,3.835694790E0
1.725278116E1,-6.317051649E-1,1.010488987E1,3.706482172E0
1.726944782E1,-5.551348329E-1,1.055952644E1,3.436093330E0
1.728611449E1,-6.364908218E-1,1.099501991E1,3.349951744E0
1.730278116E1,-9.619147182E-1,1.091605663E1,3.333201885E0
1.731944782E1,-1.098305583E0,1.013599682E1,3.024527788E0
1.733611449E1,-3.110669553E-1,9.877572060E0,2.545963287E0
1.735278115E1,0.000000000E0,9.848857880E0,1.741974831E0
1.736944782E1,1.579262912E-1,1.003071213E1,1.756331801E0
1.738611449E1,-2.297109663E-1,9.899106979E0,2.175075769E0
1.740278115E1,-4.139583111E-1,9.710074425E0,2.222932339E0
1.741944782E1,-8.590233326E-1,9.276973724E0,1.916650891E0
1.743611448E1,-1.103091240E0,9.013762474E0,1.983649969E0
1.745278115E1,-1.136590719E0,9.329615593E0,2.392822742E0
1.746944782E1,-1.332802176E0,9.564111710E0,1.536192179E0
1.748611448E1,-5.599204898E-1,1.013599682E1,1.172483087E0
1.750278115E1,1.698904037E-1,1.101894855E1,1.409372568E0
1.751944781E1,1.028913736E0,1.178225899E1,1.727617979E0
1.753611448E1,1.079162955E0,1.225125217E1,1.596012712E0
1.755278115E1,6.269195080E-1,1.172722340E1,1.270588875E0
1.756944781E1,1.617548108E0,1.092084217E1,1.000199914E0
1.758611448E1,2.325823545E0,1.030349445E1,1.768295884E0
1.760278114E1,2.615355253E0,9.877572060E0,2.612962246E0
1.761944781E1,1.311266780E0,9.092725754E0,1.993221283E0
1.763611448E1,-2.105683982E-1,8.288737297E0,1.631905079E0
1.765278114E1,-6.915257573E-1,7.515855789E0,1.940579176E0
1.766944781E1,-4.785645306E-1,6.888936520E0,2.414358139E0
1.768611447E1,-1.167697430E0,6.463014126E0,2.847458839E0
1.770278114E1,-1.940579176E0,6.829115868E0,3.689732552E0
1.771944781E1,-2.321038008E0,7.518248558E0,4.433900356E0
1.773611447E1,-2.964707375E0,8.513663292E0,6.111268997E0
1.775278114E1,-4.469792843E0,1.000678444E1,7.219145775E0
1.776944780E1,-5.402993679E0,1.001156998E1,3.931407690E0
1.778611447E1,-4.457828522E0,9.382257462E0,-5.407779217E-1
1.780278114E1,-3.565305710E0,7.341179848E0,1.914258152E-1
1.781944780E1,-2.187039852E0,4.991427898E0,2.596212626E0
1.783611447E1,-3.206382394E-1,5.113461971E0,3.247060299E0
1.785278113E1,-2.189432621E0,8.604590416E0,2.699103832E0
1.786944780E1,-5.469992638E0,1.132044411E1,1.741974831E0
1.788611447E1,-6.568298340E0,1.253360462E1,2.347358942E0
1.790278113E1,-5.053641319E0,1.207179070E1,3.084348440E0
1.791944780E1,-3.177668571E0,1.054516983E1,1.988435626E0
1.793611446E1,-2.620140791E0,1.049491978E1,2.230110645E0
1.795278113E1,-3.574877024E0,1.056431198E1,3.448057413E0
1.796944780E1,-5.082355499E0,1.075813103E1,3.519842148E0
1.798611446E1,-6.381658077E0,1.112423229E1,3.797409534E0
1.800278113E1,-7.872386456E0,1.080359459E1,4.163511276E0
1.801944779E1,-8.334200859E0,1.108116150E1,3.577269793E0
1.803611446E1,-7.412964344E0,1.142094231E1,2.825923443E0
1.805278113E1,-6.951149940E0,1.048534870E1,2.187039852E0
1.806944779E1,-6.728617191E0,9.468399048E0,2.419143677E0
1.808611446E1,-5.391029358E0,7.874779224E0,2.313859463E0
1.810278112E1,-3.462414265E0,6.604190350E0,2.093719721E0
1.811944779E1,-3.108276606E0,5.254638672E0,1.780260086E0
1.813611446E1,-3.974478483E0,4.589433670E0,3.153740168E0
1.815278112E1,-4.570291042E0,4.603790760E0,3.596412420E0
1.816944779E1,-4.625326157E0,5.273781300E0,3.196810961E0
1.818611445E1,-4.898108006E0,5.285745144E0,3.232703447E0
1.820278112E1,-4.259224415E0,5.438885689E0,3.852444410E0
1.821944779E1,-4.493721008E0,5.383851051E0,3.129812002E0
1.823611445E1,-5.017749310E0,5.558526993E0,2.804388046E0
1.825278112E1,-5.108676434E0,6.451049805E0,1.591227055E0
1.826944778E1,-5.331208706E0,7.793423176E0,1.631905079E0
1.828611445E1,-6.166304111E0,9.308079720E0,1.962114573E0
1.830278112E1,-6.503692150E0,8.575876236E0,2.809173822E0
1.831944778E1,-7.649854183E0,7.738388538E0,2.055434704E0
1.833611445E1,-7.274180889E0,7.762316704E0,2.055434704E0
1.835278111E1,-2.696711063E0,6.518048763E0,2.924029350E0
1.836944778E1,-1.639083505E0,7.338787079E0,2.672782898E0
1.838611445E1,-1.902294040E0,8.236095428E0,5.910272002E-1
1.840278111E1,-2.811566591E0,7.927421570E0,2.029113531E0
1.841944778E1,-2.938386202E0,7.013363361E0,2.720639229E0
1.843611444E1,-2.658426046E0,5.984449387E0,3.129812002E0
1.845278111E1,-2.986242771E0,5.826523304E0,3.247060299E0
1.846944778E1,-3.625126362E0,6.850651264E0,2.921636343E0
1.848611444E1,-4.208974838E0,7.936992645E0,3.594019651E0
1.850278111E1,-4.359723091E0,8.082955360E0,3.938585997E0
1.851944777E1,-3.754338741E0,7.075576782E0,3.799802303E0
1.853611444E1,-3.206382275E0,5.393422127E0,3.682554007E0
1.855278111E1,-2.847458839E0,4.902893543E0,2.115255117E0
1.856944777E1,-3.546163082E0,4.819144726E0,2.249253273E0
1.858611444E1,-4.345366001E0,5.304887772E0,2.857030153E0
1.860278110E1,-5.063212872E0,6.221338749E0,2.725425005E0
1.861944777E1,-5.759523869E0,7.798209190E0,2.457428932E0
1.863611444E1,-6.123233318E0,9.877572060E0,2.333002090E0
1.865278110E1,-5.630311489E0,1.199282742E1,2.711068153E0
1.866944777E1,-4.113262177E0,1.317488194E1,2.790031195E0
1.868611443E1,-4.687539577E0,1.141854954E1,1.916650891E0
1.870278110E1,-5.493920803E0,9.590433121E0,2.163111687E0
1.871944777E1,-4.747360229E0,9.413364410E0,2.227717876E0
1.873611443E1,-3.476771355E0,9.906285286E0,1.816152334E0
1.875278110E1,-2.402393818E0,1.005942631E1,1.524227977E0
1.876944776E1,-1.887937069E0,9.748359680E0,1.160519004E0
1.878611443E1,-1.751546144E0,9.071190834E0,1.450050473E0
1.880278110E1,-1.545763373E0,8.358129501E0,5.168496966E-1
1.881944776E1,-6.723831892E-1,8.815158844E0,7.345965505E-1
1.883611443E1,-6.053841114E-1,9.734002113E0,1.947757602E0
1.885278109E1,7.896314561E-2,1.106441212E1,1.897508383E0
1.886944776E1,-1.507478207E-1,1.171047401E1,2.402393818E0
1.888611443E1,-4.689932466E-1,1.204546928E1,2.352144718E0
1.890278109E1,-1.548156261E0,1.121515942E1,2.603390932E0
1.891944776E1,-5.024927258E-1,1.089930725E1,2.586641312E0
1.893611442E1,4.905286431E-1,1.082991505E1,2.373680115E0
1.895278109E1,-3.972085714E-1,1.102134132E1,2.816352367E0
1.896944776E1,-2.967100143E-1,1.180618668E1,3.778266907E0
1.898611442E1,3.565305769E-1,1.215553856E1,4.141975880E0
1.900278109E1,1.031306505E0,1.241396427E1,4.670789719E0
1.901944775E1,1.076770186E0,1.268674564E1,4.613361835E0
1.903611442E1,-1.220339537E-1,1.249292660E1,4.182653904E0
1.905278109E1,-1.284945726E0,1.186840057E1,2.837887764E0
1.906944775E1,-1.179661512E0,1.107159042E1,1.205982566E0
1.908611442E1,-8.685946465E-1,1.024128056E1,-1.651047617E-1
1.910278108E1,3.445664644E-1,9.695717812E0,-6.484549642E-1
1.911944775E1,5.120640397E-1,8.659625053E0,-5.814558864E-1
1.913611442E1,1.320838094E0,8.908478737E0,4.259224236E-1
1.915278108E1,1.761117458E0,9.054440498E0,1.081555843E0
1.916944775E1,2.297109663E-1,8.154739380E0,2.311466694E0
1.918611441E1,-1.282552958E0,6.955935478E0,2.577069998E0
1.920278108E1,-2.007578135E0,6.845865726E0,3.014956474E0
1.921944775E1,-3.091526747E0,7.862815380E0,3.247060299E0
1.923611441E1,-4.309473515E0,1.007139015E1,3.189632654E0
1.925278108E1,-5.876772404E0,1.246899891E1,3.651447296E0
1.926944774E1,-6.996613503E0,1.365105343E1,3.629911900E0
1.928611441E1,-8.721838951E0,1.345005608E1,3.531806231E0
1.930278108E1,-7.580461979E0,1.197368431E1,4.345366001E0
1.931944774E1,-5.982056618E0,9.190832138E0,4.462614059E0
1.933611441E1,-4.275974274E0,7.104290485E0,4.505684853E0
1.935278107E1,-3.247060299E0,5.510670662E0,3.866801500E0
1.936944774E1,-3.062813044E0,4.558327198E0,3.462414265E0
1.938611441E1,-2.983849764E0,3.522234917E0,4.120440483E0
1.940278107E1,-2.533999205E0,3.503092289E0,4.756931305E0
1.941944774E1,-2.423929453E0,4.773681164E0,4.405186653E0
1.943611440E1,-2.895315409E0,6.101697922E0,4.792823792E0
1.945278107E1,-1.806581140E0,5.513063431E0,6.005984783E0
1.946944774E1,-2.014756680E0,4.311866283E0,5.175675392E0
1.948611440E1,-1.828116536E0,3.256631613E0,5.560919762E0
1.950278107E1,-2.299502611E0,3.261417150E0,4.307080746E0
1.951944773E1,-2.591426849E0,3.955335855E0,4.649254322E0
1.953611440E1,-2.687139750E0,4.862215519E0,4.871787071E0
1.955278107E1,-2.943171740E0,4.386044025E0,4.890929699E0
1.956944773E1,-2.629712105E0,4.333401680E0,5.173282623E0
1.958611440E1,-2.584248543E0,4.646861553E0,4.886143684E0
1.960278106E1,-2.115255117E0,4.292723656E0,4.773681164E0
1.961944773E1,-6.484549642E-1,3.677768469E0,4.821537495E0
1.963611440E1,-5.982056856E-1,3.330809116E0,4.711467743E0
1.965278106E1,-1.524227977E0,3.371487141E0,3.495913982E0
1.966944773E1,-2.081755638E0,3.897907972E0,2.222932339E0
1.968611439E1,-2.768495798E0,4.716253281E0,1.950150490E0
1.970278106E1,-3.687339783E0,5.563312531E0,2.076970100E0
1.971944773E1,-4.694717884E0,6.817151546E0,2.199003935E0
1.973611439E1,-4.043870449E0,8.642875671E0,1.009771109E0
1.975278106E1,-4.089334011E0,9.635896683E0,3.780659735E-1
1.976944772E1,-3.469592810E0,1.242114258E1,7.920243144E-1
1.978611439E1,-1.952543259E0,1.676890182E1,6.293123364E-1
1.980278106E1,-1.294517040E0,1.712303925E1,3.924229145E-1
1.981944772E1,-1.196411327E-1,1.407936859E1,1.100698411E-1
1.983611439E1,2.215753794E0,1.369890976E1,-6.149554253E-1
1.985278105E1,2.955136061E0,1.411047554E1,4.091726840E-1
1.986944772E1,2.517249346E0,1.376112270E1,2.476571321E0
1.988611439E1,1.392622828E0,1.304806232E1,4.199403763E0
1.990278105E1,-1.409372568E0,1.199761295E1,2.038684845E0
1.991944772E1,-1.852044702E0,1.211725426E1,1.971685886E0
1.993611438E1,-1.143769264E0,1.193779182E1,2.416750908E0
1.995278105E1,8.159525394E-1,1.020299530E1,3.103491068E0
1.996944772E1,1.907079697E0,9.145368576E0,3.321237803E0
1.998611438E1,2.134397745E0,9.717252731E0,3.005385160E0
2.000278105E1,1.081555843E0,1.097827053E1,2.050648928E0
2.001944771E1,-4.115654826E-1,1.131805134E1,3.852444589E-1
2.003611438E1,-7.848458290E-1,1.039681435E1,-1.435693540E-2
2.005278105E1,-1.777867198E0,8.872586250E0,1.552941918E0
2.006944771E1,-5.527420044E-1,8.666803360E0,1.354337573E0
2.008611438E1,-1.615155339E0,8.398807526E0,1.234696507E0
2.010278104E1,-1.622333765E0,9.635896683E0,1.426122308E0
2.011944771E1,-2.797209740E0,1.089452171E1,2.246860504E0
2.013611438E1,-4.656432629E0,1.108833981E1,1.976471543E0
2.015278104E1,-6.613761902E0,1.134676456E1,1.045663476E0
2.016944771E1,-8.224131584E0,1.138983536E1,-1.196411345E-2
2.018611437E1,-8.013563156E0,1.235653591E1,-8.422735929E-1
2.020278104E1,-8.504091263E0,1.208854008E1,7.657032609E-1
2.021944771E1,-5.448457241E0,1.111466122E1,2.991028428E-1
2.023611437E1,-4.240081787E0,1.074616623E1,6.771687865E-1
2.025278104E1,-3.464807272E0,9.525827408E0,5.431707501E-1
2.026944770E1,-3.136990547E0,9.506684303E0,-3.230310678E-1
2.028611437E1,-2.794816732E0,8.827122688E0,-1.864008784E0
2.030278104E1,-2.333002090E0,8.111668587E0,-4.094119549E0
2.031944770E1,-1.799402595E0,5.496313572E0,-1.055234790E0
2.033611437E1,7.561319470E-1,2.880958557E0,4.926821709E0
2.035278103E1,1.866401732E-1,3.321237803E0,1.808973908E0
2.036944770E1,1.057627559E0,5.850451469E0,2.038684845E0
2.038611437E1,1.418943882E0,5.046463013E0,3.589234054E-1
2.040278103E1,1.115055323E0,3.120240688E0,2.141576290E0
2.041944770E1,-9.810572863E-2,4.029513359E0,1.789831281E0
2.043611436E1,-1.225125194E0,5.804987907E0,1.428515077E0
2.045278103E1,-2.792423964E0,6.563512325E0,1.292124271E0
2.046944770E1,-3.680161238E0,7.372286797E0,1.660618901E0
2.048611436E1,-4.931607246E0,7.903493404E0,1.433300734E0
2.050278103E1,-5.199603558E0,8.260024071E0,1.741974831E0
2.051944769E1,-4.144368649E0,8.049455643E0,1.701296926E0
2.053611436E1,-2.842673302E0,8.037490845E0,1.052842021E0
2.055278103E1,-1.770688772E0,7.891529083E0,3.732803464E-1
2.056944769E1,-1.048056364E0,7.791030407E0,1.268195957E-1
2.058611436E1,-9.092726111E-1,8.042277336E0,1.028913707E-1
2.060278102E1,-1.916650891E0,9.334401131E0,1.859223247E0
2.061944769E1,-3.452843189E0,1.224168110E1,1.627119422E0
2.063611436E1,-3.622733593E0,1.612523270E1,4.905286431E-1
2.065278102E1,-3.091526747E0,1.881715775E1,2.105683982E-1
2.066944769E1,-3.237488985E0,1.526381588E1,7.609176040E-1
2.068611435E1,-3.244667530E0,1.226800156E1,2.770888567E0
2.070278102E1,-3.397808075E0,1.138744259E1,3.278167009E0
2.071944769E1,-2.124826431E0,1.182054424E1,3.431307554E0
2.073611435E1,-6.771687865E-1,1.175593758E1,3.692125320E0
2.075278102E1,-2.242074728E0,1.068395329E1,3.397808075E0
2.076944768E1,-3.570091486E0,1.066481018E1,2.603390932E0
2.078611435E1,-3.199203968E0,1.076530933E1,2.603390932E0
2.080278102E1,-1.557727575E0,1.061216831E1,2.538784742E0
2.081944768E1,-4.019941986E-1,1.011685371E1,2.230110645E0
2.083611435E1,-8.853443712E-2,1.006899738E1,1.622333765E0
2.085278101E1,-3.254238665E-1,1.050927734E1,1.627119422E0
2.086944768E1,-7.369893789E-1,1.104287624E1,3.488735437E0
2.088611435E1,-1.890329838E0,1.131565857E1,3.929014683E0
2.090278101E1,-2.871387243E0,1.121037388E1,3.215953588E0
2.091944768E1,-3.536591768E0,1.087059307E1,2.072184324E0
2.093611434E1,-3.945764542E0,1.109312534E1,8.518448472E-1
2.095278101E1,-4.694717884E0,1.111466122E1,2.440679073E-1
2.096944768E1,-5.039284706E0,1.164586735E1,2.416750938E-1
2.098611434E1,-6.108876228E0,1.200239849E1,9.930213690E-1
2.100278101E1,-5.532206059E0,1.149751282E1,6.436693072E-1
2.101944767E1,-4.814359188E0,1.087059307E1,8.973084688E-1
2.103611434E1,-3.443271875E0,1.066241741E1,-3.158525825E-1
2.105278101E1,-3.139383316E0,1.041595650E1,-3.172882795E0
2.106944767E1,-2.579462767E0,9.147761345E0,7.202396393E-1
2.108611434E1,-6.269195080E-1,7.281359196E0,3.316452265E0
2.110278100E1,1.009771109E0,5.929414749E0,9.571290575E-3
2.111944767E1,4.761717021E-1,5.056034088E0,2.117648125E0
2.113611434E1,-9.499505758E-1,4.055834293E0,7.465606928E-1
2.115278100E1,-5.527420044E-1,1.907079697E0,2.620140791E0
2.116944767E1,-3.661018610E-1,2.378465652E0,1.428515077E0
2.118611433E1,-1.696511269E0,3.615555048E0,1.172483087E0
2.120278100E1,-3.180061340E0,4.601397991E0,8.997012973E-1
2.121944767E1,-2.447857618E0,5.541777134E0,9.595218897E-1
2.123611433E1,-2.215753794E0,4.843072891E0,1.115055323E0
2.125278100E1,-2.610569477E0,4.814359188E0,9.284151793E-1
2.126944766E1,-2.526820660E0,5.113461971E0,1.170090318E0
2.128611433E1,-2.234896421E0,5.740381718E0,6.221339107E-1
2.130278100E1,-1.753939033E0,6.613761902E0,3.326023519E-1
2.131944766E1,-6.005984545E-1,8.812766075E0,3.541377485E-1
2.133611433E1,6.939185858E-1,1.293081379E1,5.647061467E-1
2.135278099E1,1.076770201E-1,1.583091450E1,-3.110669553E-1
2.136944766E1,-1.514656782E0,1.520638752E1,1.361516118E0
2.138611433E1,-2.067398787E0,1.409133244E1,1.404586911E0
2.140278099E1,-2.971885681E0,1.352423382E1,1.536192179E0
2.141944766E1,-3.144168854E0,1.359841156E1,1.337587833E0
2.143611432E1,-2.919243574E0,1.454118347E1,3.093919754E0
2.145278099E1,-2.935993433E0,1.526381588E1,4.601397991E0
2.146944766E1,-3.328416348E0,1.371087360E1,3.354737282E0
2.148611432E1,-3.333201885E0,1.137787151E1,1.696511269E0
2.150278099E1,-2.979064226E0,9.394221306E0,2.500499725E0
2.151944765E1,-3.002992392E0,8.047062874E0,2.754138947E0
2.153611432E1,-3.311666489E0,9.044869423E0,2.232503414E0
2.155278099E1,-2.933600664E0,1.037288570E1,1.497906923E0
2.156944765E1,-2.354537487E0,1.028674412E1,9.475577474E-1
2.158611432E1,-1.569691658E0,1.016710377E1,1.837687731E0
2.160278098E1,-2.021935225E0,9.975677490E0,3.488735437E0
2.161944765E1,-2.557927370E0,1.010249710E1,3.629911900E0
2.163611432E1,-2.191825628E0,1.121994495E1,2.462214470E0
2.165278098E1,-1.529013634E0,1.156690502E1,1.418943882E0
2.166944765E1,-6.029912829E-1,1.045424175E1,1.574477315E0
2.168611431E1,4.019941986E-1,9.437292099E0,1.294517040E0
2.170278098E1,5.312066078E-1,8.815158844E0,1.325623751E0
2.171944765E1,-1.036092162E0,8.657232285E0,1.988435626E0
2.173611431E1,-2.086541414E0,9.554540634E0,8.925228715E-1
2.175278098E1,-3.069991350E0,1.039202881E1,5.407779217E-1
2.176944764E1,-4.058227062E0,1.088973618E1,9.738788009E-1
2.178611431E1,-4.443471432E0,1.127258778E1,1.373480201E0
2.180278098E1,-4.744967461E0,1.129172993E1,1.342373490E0
2.181944764E1,-4.476971149E0,1.057627583E1,1.272981644E0
2.183611431E1,-4.283152580E0,9.250652313E0,1.002592683E0
2.185278097E1,-3.706482172E0,8.475378036E0,1.282552958E0
2.186944764E1,-2.380858421E0,8.681160927E0,2.160718918E0
2.188611431E1,-2.931207657E0,7.843672752E0,1.576870084E0
2.190278097E1,-3.309273720E0,7.934599876E0,6.149554253E-1
2.191944764E1,-4.290330887E0,7.874779224E0,8.422735929E-1
2.193611430E1,-5.178068161E0,8.327022552E0,8.087740541E-1
2.195278097E1,-5.209175110E0,8.496912956E0,8.925228715E-1
2.196944764E1,-5.489135265E0,8.348558426E0,8.949156404E-1
2.198611430E1,-5.699703693E0,9.054440498E0,1.313659668E0
2.200278097E1,-5.714060307E0,6.695117950E0,1.009771109E0
2.201944763E1,-4.165904045E0,7.089933395E0,1.146162033E0
2.203611430E1,-3.115455151E0,7.030112743E0,1.093519926E0
2.205278097E1,-1.964507341E0,5.972485542E0,1.351944804E0
2.206944763E1,-2.799602509E0,3.163311481E0,1.385444283E0
2.208611430E1,-2.517249346E0,4.168296814E0,1.753939033E0
2.210278096E1,-2.033899307E0,3.775874138E0,1.519442320E0
2.211944763E1,-2.471785784E0,3.842873096E0,1.411765337E0
2.213611430E1,-2.864208698E0,3.637090445E0,1.739582062E0
2.215278096E1,-3.388236761E0,4.433900356E0,1.584048629E0
2.216944763E1,-3.553341627E0,5.391029358E0,1.399801254E0
2.218611429E1,-3.136990547E0,5.924628735E0,1.308874011E0
2.220278096E1,-3.366701365E0,6.714260101E0,1.208375454E0
2.221944763E1,-3.845266104E0,7.604390144E0,1.220339537E0
2.223611429E1,-3.479164124E0,9.133403778E0,3.589234054E-1
2.225278096E1,-3.014956474E0,1.064327526E1,3.182454109E-1
2.226944762E1,-2.545963287E0,1.215314579E1,3.804588020E-1
2.228611429E1,-2.526820660E0,1.306959724E1,2.321037948E-1
2.230278096E1,-2.335394859E0,1.264606762E1,3.996013701E-1
2.231944762E1,-2.639283419E0,1.095673466E1,9.762716293E-1
2.233611429E1,-3.050848961E0,9.544969559E0,1.445264935E0
2.235278095E1,-2.218146563E0,9.442078590E0,1.959721804E0
2.236944762E1,-1.189232826E0,1.011446095E1,2.088934183E0
2.238611429E1,-5.742774606E-1,1.066241741E1,2.376072884E0
2.240278095E1,-8.590233326E-1,1.095434189E1,2.679961443E0
2.241944762E1,-5.264210105E-1,1.149751282E1,3.632304668E0
2.243611428E1,-1.112662554E0,1.213878918E1,3.151347399E0
2.245278095E1,-2.687139750E0,1.320120239E1,1.670190215E0
2.246944762E1,-2.878565550E0,1.336152172E1,2.344966173E0
2.248611428E1,-2.648854733E0,1.325145149E1,3.218346357E0
2.250278095E1,-2.218146563E0,1.228714466E1,2.816352367E0
2.251944761E1,-2.210968018E0,1.001396275E1,2.134397745E0
2.253611428E1,-1.627119422E0,9.028120041E0,1.459621787E0
2.255278095E1,-7.872386575E-1,8.841479301E0,1.959721804E0
2.256944761E1,-7.896314561E-2,9.468399048E0,3.354737282E0
2.258611428E1,3.038884699E-1,9.934999466E0,3.589233875E0
2.260278094E1,-1.196411327E-1,9.387042999E0,1.294517040E0
2.261944761E1,-6.628118753E-1,8.920442581E0,-2.775674164E-1
2.263611428E1,-1.409372568E0,9.154939651E0,7.034898400E-1
2.265278094E1,-2.266003132E0,9.671789169E0,1.165304661E0
2.266944761E1,-2.775674343E0,9.994820595E0,1.215553880E0
2.268611427E1,-2.737389088E0,1.100937653E1,2.617748022E0
2.270278094E1,-3.500699520E0,1.164826107E1,1.617548108E0
2.271944761E1,-4.835894585E0,1.199282742E1,1.404586911E0
2.273611427E1,-4.926821709E0,1.150708389E1,1.186840057E0
2.275278094E1,-6.001199245E0,1.131087303E1,-2.823530734E-1
2.276944760E1,-6.501298904E0,1.136351490E1,2.560320199E-1
2.278611427E1,-6.446264267E0,1.123190975E1,4.809573591E-1
2.280278094E1,-5.326423168E0,1.078923702E1,6.149554253E-1
2.281944760E1,-3.871587038E0,9.846465111E0,5.192425251E-1
2.283611427E1,-2.361716032E0,8.592626572E0,7.465606928E-1
2.285278093E1,-3.062813044E0,7.274180889E0,1.172483087E0
2.286944760E1,-3.357130051E0,6.654439926E0,1.071984529E0
2.288611427E1,-2.644068956E0,5.828916073E0,1.323230863E0
2.290278093E1,-2.447857618E0,4.747360229E0,1.672582984E0
2.291944760E1,-2.507678032E0,3.617947817E0,1.940579176E0
2.293611426E1,-3.285345554E0,3.835694790E0,1.792224169E0
2.295278093E1,-3.811766386E0,4.967499733E0,1.342373490E0
2.296944760E1,-3.445664644E0,4.321437836E0,1.392622828E0
2.298611426E1,-3.627519131E0,3.802195072E0,1.366301775E0
2.300278093E1,-3.424129248E0,3.857230186E0,1.392622828E0
2.301944759E1,-3.495913982E0,4.225724697E0,1.308874011E0
2.303611426E1,-3.404986620E0,5.228317261E0,1.567298889E0
2.305278093E1,-3.988835335E0,5.833701611E0,1.976471543E0
2.306944759E1,-4.709074974E0,7.006184578E0,1.777867198E0
2.308611426E1,-4.725824833E0,8.901300430E0,1.088734269E0
2.310278092E1,-3.988835335E0,9.879964828E0,3.445664644E-1
2.311944759E1,-3.323630571E0,9.308079720E0,-2.009970993E-1
2.313611426E1,-2.857030153E0,9.329615593E0,-1.890329868E-1
2.315278092E1,-2.328216314E0,9.217152596E0,9.571290761E-2
2.316944759E1,-2.045863390E0,9.049654961E0,4.139583111E-1
2.318611425E1,-1.641476393E0,9.547362328E0,6.699903607E-1
2.320278092E1,-1.383051515E0,1.044467068E1,1.134197950E0
2.321944759E1,-1.191625714E0,1.170329571E1,1.861616015E0
2.323611425E1,-1.464407444E0,1.236850071E1,2.208575249E0
2.325278092E1,-1.966900229E0,1.165304661E1,2.909672260E0
2.326944758E1,-2.007578135E0,1.072223854E1,2.407179594E0
2.328611425E1,-2.249253273E0,1.100698376E1,2.701496840E0
2.330278092E1,-2.167897224E0,1.208375454E1,3.084348440E0
2.331944758E1,-2.112862349E0,1.311745358E1,1.787438512E0
2.333611425E1,-1.804188251E0,1.400997639E1,2.488535643E0
2.335278091E1,-1.402194023E0,1.318684578E1,2.507678032E0
2.336944758E1,-4.905286431E-1,1.124387360E1,2.191825628E0
2.338611425E1,6.173482537E-1,9.604789734E0,1.921436548E0
2.340278091E1,5.862415433E-1,8.293522835E0,1.990828395E0
2.341944758E1,4.905286431E-1,8.087740898E0,1.617548108E0
2.343611424E1,9.332008362E-1,8.628518105E0,2.045863390E0
2.345278091E1,4.713860750E-1,9.099904060E0,9.116654396E-1
2.346944758E1,1.076770201E-1,9.064012527E0,5.575276613E-1
2.348611424E1,-2.632105052E-1,9.992427826E0,1.423729420E0
2.350278091E1,-7.417750359E-1,1.080120182E1,1.873580098E0
2.351944757E1,-5.670989752E-1,9.868000984E0,1.210768223E0
2.353611424E1,1.698904037E-1,8.329415321E0,1.299302697E0
2.355278091E1,7.824530005E-1,7.953742504E0,1.268195987E0
2.356944757E1,8.662018180E-1,8.980263710E0,1.177268744E0
2.358611424E1,1.162911773E0,1.083470058E1,1.562513232E0
2.360278090E1,9.595218897E-1,1.170568848E1,1.840080619E0
2.361944757E1,3.996013701E-1,1.093998528E1,1.404586911E0
2.363611424E1,6.460621208E-2,1.151904774E1,1.715653777E0
2.365278090E1,-5.048855543E-1,1.142572784E1,1.825723648E0
2.366944757E1,-1.057627559E0,1.016471100E1,8.614161611E-1
2.368611423E1,-1.703689694E0,8.516056061E0,3.206382394E-1
2.370278090E1,-1.134197950E0,7.932207108E0,1.914258152E-1
2.371944757E1,3.613162339E-1,8.102097511E0,1.031306505E0
2.373611423E1,1.502692580E0,8.953942299E0,1.540977836E0
2.375278090E1,1.560120344E0,9.262616158E0,1.849651933E0
2.376944756E1,1.524227977E0,9.497113228E0,2.115255117E0
2.378611423E1,1.435693622E0,1.037767220E1,1.933400750E0
2.380278090E1,8.638089895E-1,1.109791183E1,1.837687731E0
2.381944756E1,-4.785645306E-1,1.000439167E1,1.414158225E0
2.383611423E1,-1.064806104E0,9.138189316E0,1.040877819E0
2.385278089E1,-1.138983607E0,9.736394882E0,1.115055323E0
2.386944756E1,-1.332802176E0,1.056431198E1,1.445264935E0
2.388611423E1,-1.378265858E0,1.053320503E1,1.763510346E0
2.390278089E1,-1.000199914E0,1.011685371E1,1.765903115E0
2.391944756E1,-8.925228715E-1,9.961320877E0,1.677368641E0
2.393611422E1,-9.284151793E-1,9.686145782E0,1.505085468E0
2.395278089E1,-6.891329288E-1,9.473184586E0,1.694118381E0
2.396944756E1,-4.307080805E-1,9.650253296E0,1.909472466E0
2.398611422E1,-4.163511395E-1,9.851250648E0,2.160718918E0
2.400278089E1,-7.130611539E-1,1.039202881E1,2.084148407E0
2.401944755E1,-9.140582681E-1,1.036810017E1,2.392822742E0
2.403611422E1,-1.016949654E0,9.896714211E0,1.780260086E0
2.405278089E1,-1.194018483E0,9.544969559E0,1.682154298E0
2.406944755E1,-1.282552958E0,1.013360405E1,1.198804140E0
2.408611422E1,-1.806581140E0,1.048295593E1,1.421336651E0
2.410278088E1,-2.421536446E0,9.681360245E0,1.531406522E0
2.411944755E1,-1.660618901E0,8.800801277E0,6.053841114E-1
2.413611422E1,-1.962114573E0,8.382058144E0,1.002592683E0
2.415278088E1,-1.892722726E0,8.970691681E0,2.000399828E0
2.416944755E1,-1.225125194E0,1.010728264E1,2.289931297E0
2.418611421E1,-1.095912814E0,1.026042366E1,1.966900229E0
2.420278088E1,-1.368694544E0,9.944570541E0,1.746760488E0
2.421944755E1,-2.711068153E0,9.944570541E0,1.540977836E0
2.423611421E1,-3.201596737E0,9.844072342E0,1.691725612E0
2.425278088E1,-3.043670416E0,1.043270683E1,2.443071842E0
2.426944754E1,-3.292523861E0,1.094955635E1,2.189432621E0
2.428611421E1,-4.374079704E0,1.090170002E1,2.122433662E0
2.430278088E1,-5.319244862E0,1.080359459E1,2.160718918E0
2.431944754E1,-5.450850010E0,1.013121128E1,1.469193101E0
2.433611421E1,-5.539384365E0,9.497113228E0,3.517449200E-1
2.435278087E1,-7.056434155E0,9.485149384E0,-8.542376757E-1
2.436944754E1,-5.721239090E0,1.015035343E1,-3.110669553E-1
2.438611421E1,-4.366901398E0,1.085623646E1,-1.770688742E-1
2.440278087E1,-4.768895626E0,1.043270683E1,5.910272002E-1
2.441944754E1,-5.008177757E0,9.714859962E0,3.302095234E-1
2.443611420E1,-4.723432064E0,8.994620323E0,5.623133183E-1
2.445278087E1,-4.333401680E0,8.848658562E0,5.096712112E-1
2.446944754E1,-3.641875982E0,8.446663857E0,2.608176768E-1
2.448611420E1,-2.950350285E0,6.766902447E0,5.647061467E-1
2.450278087E1,-2.311466694E0,4.503292084E0,8.973084688E-1
2.451944753E1,-2.268395901E0,3.084348440E0,1.452443361E0
2.453611420E1,-1.873580098E0,1.981257200E0,1.694118381E0
2.455278087E1,-2.799602509E0,3.273381472E0,2.378465652E0
2.456944753E1,-3.426522017E0,4.101297855E0,1.605584025E0
2.458611420E1,-3.062813044E0,4.000799656E0,1.158126116E0
2.460278086E1,-3.175275564E0,3.333201885E0,1.115055323E0
2.461944753E1,-3.421736479E0,3.498306751E0,1.112662554E0
2.463611420E1,-2.828316450E0,3.986442566E0,1.698904037E0
2.465278086E1,-2.533999205E0,4.780859470E0,1.679761529E0
2.466944753E1,-3.419343472E0,6.345765591E0,2.031506538E0
2.468611419E1,-5.039284706E0,8.243273735E0,1.560120344E0
2.470278086E1,-6.218945980E0,1.122473145E1,2.943171859E-1
2.471944753E1,-5.919843197E0,1.233978653E1,2.273181528E-1
2.473611419E1,-5.139782906E0,1.278245831E1,1.028913707E-1
2.475278086E1,-3.273381472E0,1.114337540E1,9.355936646E-1
2.476944752E1,-2.713460922E0,8.628518105E0,3.062812984E-1
2.478611419E1,-3.452843189E0,7.412964344E0,1.296909928E0
2.480278086E1,-2.584248543E0,7.932207108E0,1.289731383E0
2.481944752E1,-1.715653777E0,9.044869423E0,1.344766378E0
2.483611419E1,-1.418943882E0,1.044467068E1,1.442872047E0
2.485278085E1,-2.732603550E0,1.141137123E1,2.435893536E0
2.486944752E1,-4.649254322E0,1.307916832E1,1.998006940E0
2.488611419E1,-4.180261135E0,1.462971783E1,1.957328916E0
2.490278085E1,-2.679961443E0,1.168893814E1,1.603191137E0
2.491944752E1,-3.105883837E0,8.731410027E0,1.148554921E0
2.493611418E1,-3.194418192E0,7.740781307E0,7.178468108E-1
2.495278085E1,-2.727817774E0,8.183453560E0,6.005984545E-1
2.496944752E1,-2.081755638E0,8.994620323E0,8.997012973E-1
2.498611418E1,-1.658226132E0,9.571290970E0,1.430907965E0
2.500278085E1,-1.478764415E0,9.779465675E0,1.892722726E0
2.501944751E1,-1.773081541E0,1.079162979E1,1.619940877E0
2.503611418E1,-7.776673436E-1,1.182054424E1,1.000199914E0
2.505278085E1,-8.518448472E-1,1.102612686E1,4.977070987E-1
2.506944751E1,-1.392622828E0,1.051884842E1,7.513462901E-1
2.508611418E1,-1.002592683E0,1.012881851E1,1.124626637E0
2.510278084E1,-3.134597540E-1,9.657432556E0,7.872386575E-1
2.511944751E1,-4.881358147E-1,9.054440498E0,9.978070259E-1
2.513611418E1,-6.436693072E-1,8.609375954E0,3.565305769E-1
2.515278084E1,-3.900300860E-1,9.351150513E0,4.091726840E-1
2.516944751E1,1.435693540E-2,1.083230782E1,1.483550072E0
2.518611417E1,-6.699903309E-2,1.092323494E1,1.916650891E0
2.520278084E1,6.221338734E-2,1.019820976E1,1.691725612E0
2.521944751E1,-4.067798331E-2,9.226723671E0,2.086541414E0
2.523611417E1,3.589234129E-2,9.731609344E0,1.952543259E0
2.525278084E1,-1.253839016E0,1.081555843E1,2.476571321E0
2.526944750E1,-1.445264935E0,1.020299530E1,1.617548108E0
2.528611417E1,-1.763510346E0,9.188439369E0,1.251446247E0
2.530278084E1,-2.230110645E0,9.104690552E0,2.163111687E0
2.531944750E1,-2.304288149E0,9.891928673E0,1.928615093E0
2.533611417E1,-1.758724689E0,1.026999474E1,1.751546144E0
2.535278083E1,-1.316052437E0,9.229117393E0,1.330409408E0
2.536944750E1,-1.083948612E0,8.614161491E0,9.738788009E-1
2.538611417E1,-1.229910851E0,9.315258980E0,1.306481123E0
2.540278083E1,-1.655833244E0,9.614361763E0,1.531406522E0
2.541944750E1,-1.471585870E0,9.494720459E0,5.144568682E-1
2.543611416E1,-1.182054400E0,9.298508644E0,4.737788737E-1
2.545278083E1,-1.014556766E0,8.894122124E0,5.623133183E-1
2.546944750E1,-3.278166950E-1,9.379864693E0,2.344966233E-1
2.548611416E1,-1.842473447E-1,9.939785004E0,1.083948612E0
2.550278083E1,-1.316052526E-1,9.174081802E0,1.057627559E0
2.551944749E1,1.603191197E-1,8.276773453E0,3.206382394E-1
2.553611416E1,1.507478207E-1,8.580661774E0,1.064806104E0
2.555278083E1,-1.962114573E-1,9.911071777E0,1.765903115E0
2.556944749E1,-8.015955687E-1,1.004028416E1,1.277767301E0
2.558611416E1,-7.393822074E-1,8.961120605E0,7.489534616E-1
2.560278082E1,-8.877372146E-1,8.365307808E0,1.091127157E0
2.561944749E1,-1.103091240E0,9.640682220E0,1.761117458E0
2.563611416E1,-1.239482164E0,1.131565857E1,2.189432621E0
2.565278082E1,-1.251446247E0,1.061456108E1,1.469193101E0
2.566944749E1,-7.609176040E-1,9.075976372E0,6.005984545E-1
2.568611415E1,-7.800601721E-1,8.635697365E0,7.178468108E-1
2.570278082E1,-7.345965505E-1,9.075976372E0,1.098305583E0
2.571944749E1,-4.857429862E-1,1.029153061E1,1.162911773E0
2.573611415E1,-6.149554253E-1,9.899106979E0,1.404586911E0
2.575278082E1,-2.823530734E-1,8.896514893E0,6.867401004E-1
2.576944748E1,-5.144568682E-1,9.298508644E0,1.162911773E0
2.578611415E1,-7.944171429E-1,1.071266651E1,1.660618901E0
2.580278082E1,-7.513462901E-1,1.037767220E1,1.330409408E0
2.581944748E1,-6.436693072E-1,8.973084450E0,1.038485050E0
2.583611415E1,-5.934200287E-1,8.583054543E0,6.508477330E-1
2.585278081E1,-6.532405615E-1,9.619147301E0,9.978070259E-1
2.586944748E1,-6.604190469E-1,9.973284721E0,1.442872047E0
2.588611415E1,-5.096712112E-1,9.379864693E0,1.277767301E0
2.590278081E1,-6.795616150E-1,9.477970123E0,1.284945726E0
2.591944748E1,-7.968099117E-1,9.812965393E0,1.686939955E0
2.593611414E1,-7.034898400E-1,9.499505997E0,1.509871125E0
2.595278081E1,-6.269195080E-1,9.681360245E0,1.261017561E0
2.596944748E1,-7.106683254E-1,9.391828537E0,1.464407444E0
2.598611414E1,-4.689932466E-1,8.666803360E0,8.662018180E-1
2.600278081E1,-5.264210105E-1,8.965906143E0,9.571290612E-1
2.601944747E1,-9.978070259E-1,1.000439167E1,1.414158225E0
2.603611414E1,-1.016949654E0,1.021735287E1,1.246660590E0
2.605278081E1,-1.100698471E0,9.521040916E0,1.198804140E0
2.606944747E1,-1.079162955E0,9.025727272E0,1.000199914E0
2.608611414E1,-9.020941257E-1,9.968499184E0,9.140582681E-1
2.610278080E1,-8.805587292E-1,1.155015469E1,1.457229018E0
2.611944747E1,-7.058826685E-1,1.063131142E1,1.330409408E0
2.613611414E1,-2.608176768E-1,8.767302513E0,3.732803464E-1
2.615278080E1,-5.479564071E-1,9.150154114E0,9.116654396E-1
2.616944747E1,-1.000199914E0,1.012164021E1,1.665404558E0
2.618611413E1,-9.379864931E-1,9.911071777E0,1.270588875E0
2.620278080E1,-1.167697430E0,9.360722542E0,1.619940877E0
2.621944747E1,-1.208375454E0,8.688339233E0,1.332802176E0
2.623611413E1,-1.074377418E0,8.422736168E0,1.155733347E0
2.625278080E1,-1.332802176E0,9.147761345E0,1.490728498E0
2.626944746E1,-1.203589797E0,1.005224800E1,1.505085468E0
2.628611413E1,-8.398807645E-1,9.379864693E0,9.547362328E-1
2.630278080E1,-4.953143001E-1,8.659625053E0,6.699903607E-1
2.631944746E1,-5.024927258E-1,8.946763992E0,9.690931439E-1
2.633611413E1,-4.977070987E-1,9.956535339E0,8.877372146E-1
2.635278079E1,-7.178468108E-1,1.086341476E1,1.495514154E0
2.636944746E1,-8.374879360E-1,1.061695385E1,1.442872047E0
2.638611413E1,-6.436693072E-1,9.729216576E0,1.239482164E0
2.640278079E1,-1.009771109E0,9.966106415E0,1.607976794E0
2.641944746E1,-1.038485050E0,1.068156052E1,1.603191137E0
2.643611412E1,-8.374879360E-1,1.003310490E1,1.478764415E0
2.645278079E1,-7.393822074E-1,9.037691116E0,1.292124271E0
2.646944746E1,-8.279166222E-1,9.473184586E0,1.406979680E0
2.648611412E1,-1.155733347E0,1.030827999E1,1.909472466E0
2.650278079E1,-9.571290612E-1,9.635896683E0,1.447657704E0
2.651944745E1,-9.906286001E-1,8.551948547E0,1.043270707E0
2.653611412E1,-9.786644578E-1,8.575876236E0,9.906286001E-1
2.655278079E1,-9.332008362E-1,9.485149384E0,1.387837172E0
2.656944745E1,-8.925228715E-1,1.014317513E1,1.519442320E0
2.658611412E1,-8.805587292E-1,9.480362892E0,1.404586911E0
2.660278078E1,-8.494520187E-1,8.709874153E0,9.978070259E-1
2.661944745E1,-1.213161111E0,9.449256897E0,1.402194023E0
2.663611412E1,-1.426122308E0,9.985248566E0,1.794616938E0
2.665278078E1,-1.478764415E0,9.772287369E0,1.258624673E0
2.666944745E1,-1.648654819E0,9.236295700E0,1.555334687E0
2.668611411E1,-1.201196909E0,9.092725754E0,1.112662554E0
2.670278078E1,-1.268195987E0,1.002353382E1,1.483550072E0
2.671944745E1,-1.208375454E0,1.083948612E1,1.720439434E0
2.673611411E1,-8.518448472E-1,9.982855797E0,1.146162033E0
2.675278078E1,-6.101697683E-1,8.755337715E0,9.858429432E-1
2.676944744E1,-7.250252366E-1,9.269794464E0,1.170090318E0
2.678611411E1,-9.403793216E-1,1.053320503E1,1.330409408E0
2.680278078E1,-8.470591903E-1,1.009053326E1,1.268195987E0
2.681944744E1,-7.944171429E-1,9.152546883E0,9.236295223E-1
2.683611411E1,-8.829515576E-1,8.556734085E0,8.805587292E-1
2.685278077E1,-7.776673436E-1,9.396614075E0,1.237089276E0
2.686944744E1,-9.619147182E-1,9.982855797E0,1.395015597E0
2.688611411E1,-6.101697683E-1,9.360722542E0,9.906286001E-1
2.690278077E1,-4.067798555E-1,8.913264275E0,8.494520187E-1
2.691944744E1,-3.852444589E-1,8.585447311E0,8.973084688E-1
2.693611410E1,-4.331009090E-1,9.552147865E0,9.332008362E-1
2.695278077E1,-7.058826685E-1,1.065523911E1,1.627119422E0
2.696944744E1,-1.038485050E0,9.583254814E0,1.433300734E0
2.698611410E1,-1.182054400E0,8.575876236E0,1.095912814E0
2.700278077E1,-1.426122308E0,9.169296265E0,1.404586911E0
2.701944743E1,-1.660618901E0,1.087537861E1,1.576870084E0
2.703611410E1,-1.540977836E0,1.098544884E1,1.275374413E0
2.705278077E1,-9.332008362E-1,9.451649666E0,1.081555843E0
2.706944743E1,-7.609176040E-1,9.396614075E0,1.261017561E0
2.708611410E1,-7.417750359E-1,1.062173939E1,1.672582984E0
2.710278076E1,-5.120640397E-1,1.055713367E1,1.423729420E0
2.711944743E1,-4.857429862E-1,9.801001549E0,1.107876897E0
2.713611410E1,-4.833501875E-1,8.973084450E0,1.095912814E0
2.715278076E1,-5.647061467E-1,8.310273170E0,1.194018483E0
2.716944743E1,-8.901300430E-1,8.676374435E0,1.514656782E0
2.718611409E1,-1.131805062E0,9.741181374E0,1.799402595E0
2.720278076E1,-1.160519004E0,9.468399048E0,1.213161111E0
2.721944743E1,-8.566305041E-1,9.114261627E0,9.044869542E-1
2.723611409E1,-8.542376757E-1,9.439684868E0,9.260223508E-1
2.725278076E1,-7.872386575E-1,1.019103146E1,1.189232826E0
2.726944742E1,-9.451649189E-1,1.077248764E1,1.679761529E0
2.728611409E1,-1.174875975E0,9.872786522E0,1.328016520E0
2.730278076E1,-1.249053478E0,9.923035622E0,1.213161111E0
2.731944742E1,-1.852044702E0,1.122233772E1,1.820937991E0
2.733611409E1,-1.526620865E0,9.236295700E0,1.316052437E0
2.735278075E1,-1.004985452E0,7.549355507E0,6.843472719E-1
2.736944742E1,-6.843472719E-1,7.908278942E0,9.212366939E-1
2.738611409E1,-2.751746178E-1,9.736394882E0,1.605584025E0
2.740278075E1,-2.129612118E-1,1.026042366E1,1.672582984E0
2.741944742E1,4.785645287E-3,9.145368576E0,9.643075466E-1
2.743611408E1,-5.982056633E-2,8.130811691E0,1.040877819E0
2.745278075E1,-3.541377485E-1,8.489734650E0,1.021735311E0
2.746944742E1,-9.355936646E-1,9.863214493E0,1.543370605E0
2.748611408E1,-1.447657704E0,1.093280697E1,1.529013634E0
2.750278075E1,-1.617548108E0,1.082752228E1,1.196411371E0
2.751944741E1,-1.505085468E0,9.568898201E0,1.316052437E0
2.753611408E1,-1.330409408E0,9.588040352E0,1.265803218E0
2.755278075E1,-1.483550072E0,1.073898792E1,1.495514154E0
2.756944741E1,-1.119840980E0,1.058584690E1,1.416550994E0
2.758611408E1,-6.915257573E-1,9.466006279E0,8.279166222E-1
2.760278074E1,-4.618147612E-1,8.664410591E0,1.179661512E0
2.761944741E1,-4.953143001E-1,9.403793335E0,1.380658627E0
2.763611408E1,-8.183453679E-1,9.734002113E0,1.840080619E0
2.765278074E1,-8.087740541E-1,8.755337715E0,1.569691658E0
2.766944741E1,-9.116654396E-1,8.073383331E0,9.451649189E-1
2.768611407E1,-8.685946465E-1,8.953942299E0,1.318445325E0
2.770278074E1,-8.662018180E-1,1.024845982E1,1.296909928E0
2.771944741E1,-7.513462901E-1,9.990034103E0,1.079162955E0
2.773611407E1,-7.992027402E-1,9.542576790E0,1.110269666E0
2.775278074E1,-1.057627559E0,8.784051895E0,1.375872970E0
2.776944740E1,-1.289731383E0,9.288937569E0,1.287338614E0
2.778611407E1,-1.533799291E0,1.055952644E1,8.877372146E-1
2.780278074E1,-1.222732425E0,9.863214493E0,4.019941986E-1
2.781944740E1,-7.058826685E-1,8.702695847E0,3.397808075E-1
2.783611407E1,1.579262912E-1,8.918049812E0,1.842473388E0
2.785278073E1,5.503492057E-2,1.030110168E1,2.452643156E0
2.786944740E1,-1.555334777E-1,1.118883896E1,2.148754835E0
2.788611407E1,-2.153540403E-1,9.365508080E0,5.982056856E-1
2.790278073E1,-1.555334777E-1,7.420143127E0,1.794617027E-1
2.791944740E1,-8.542376757E-1,7.202396393E0,5.718846321E-1
2.793611406E1,-1.481157184E0,8.494520187E0,1.057627559E0
2.795278073E1,-1.674975872E0,9.999606133E0,7.489534616E-1
2.796944740E1,-1.708475351E0,1.083948612E1,4.235295951E-1
2.798611406E1,-1.607976794E0,1.144726372E1,1.083948612E0
2.800278073E1,-1.301695466E0,1.196411324E1,1.433300734E0
2.801944739E1,-8.949156404E-1,1.113858986E1,1.356730461E0
2.803611406E1,-7.465606928E-1,9.360722542E0,1.356730461E0
2.805278073E1,-7.441678643E-1,8.604590416E0,1.210768223E0
2.806944739E1,-1.268195987E0,9.142974854E0,1.897508383E0
2.808611406E1,-1.545763373E0,9.793823242E0,1.648654819E0
2.810278072E1,-1.529013634E0,9.399007797E0,1.095912814E0
2.811944739E1,-8.398807645E-1,8.683553696E0,1.220339537E-1
2.813611406E1,-4.307080805E-2,8.212167740E0,2.871387303E-1
2.815278072E1,3.158525825E-1,8.102097511E0,9.499505758E-1
2.816944739E1,2.464607358E-1,8.566305161E0,9.978070259E-1
2.818611405E1,1.603191197E-1,9.714859962E0,6.819544435E-1
2.820278072E1,-4.091726840E-1,9.659825325E0,7.561319470E-1
2.821944739E1,-4.785645306E-1,9.731609344E0,6.101697683E-1
2.823611405E1,-1.383051515E0,1.098066330E1,1.775474429E0
2.825278072E1,-2.021935225E0,1.126301575E1,1.320838094E0
2.826944738E1,-1.914258122E0,9.980463028E0,7.657032609E-1
2.828611405E1,-1.799402595E0,9.150154114E0,1.000199914E0
2.830278072E1,-1.529013634E0,1.068634605E1,1.756331801E0
2.831944738E1,-1.538584948E0,1.163868904E1,1.866401672E0
2.833611405E1,-1.296909928E0,1.028195858E1,1.708475351E0
2.835278071E1,-8.494520187E-1,8.630910873E0,1.122233868E0
2.836944738E1,-4.785645306E-1,8.729017258E0,1.222732425E0
2.838611405E1,-2.751746178E-1,1.004267693E1,1.287338614E0
2.840278071E1,-1.100698411E-1,1.057866859E1,1.019342422E0
2.841944738E1,-1.196411345E-2,9.403793335E0,6.364908218E-1
2.843611404E1,-4.307080805E-2,8.154739380E0,5.144568682E-1
2.845278071E1,-2.440679073E-1,7.972885132E0,8.829515576E-1
2.846944738E1,-6.077769399E-1,9.588040352E0,1.229910851E0
2.848611404E1,-1.131805062E0,1.116969585E1,1.524227977E0
2.850278071E1,-1.131805062E0,1.021496010E1,5.814558864E-1
2.851944737E1,-7.465606928E-1,8.882157326E0,2.632105052E-1
2.853611404E1,-3.254238665E-1,8.939585686E0,9.020941257E-1
2.855278071E1,-4.283152521E-1,1.028195858E1,1.545763373E0
2.856944737E1,-6.556333899E-1,1.045663452E1,1.445264935E0
2.858611404E1,-8.470591903E-1,9.300901413E0,1.131805062E0
2.860278070E1,-1.026520967E0,9.401400566E0,1.337587833E0
2.861944737E1,-1.083948612E0,1.044945621E1,1.627119422E0
2.863611404E1,-8.638089895E-1,1.070070267E1,1.177268744E0
2.865278070E1,-4.929214716E-1,9.856036186E0,8.422735929E-1
2.866944737E1,7.178467698E-3,8.798408508E0,3.062812984E-1
2.868611403E1,-2.392822644E-3,9.114261627E0,7.250252366E-1
2.870278070E1,-1.986042857E-1,9.662218094E0,1.306481123E0
2.871944737E1,-6.197410822E-1,9.640682220E0,7.633104324E-1
2.873611403E1,-4.761717021E-1,8.606983185E0,1.986042857E-1
2.875278070E1,-6.173482537E-1,8.283951759E0,5.192425251E-1
2.876944736E1,-4.881358147E-1,9.205188751E0,1.258624673E0
2.878611403E1,-3.996013701E-1,1.058584690E1,1.339980721E0
2.880278070E1,-1.603191197E-1,1.039681435E1,3.397808075E-1
2.881944736E1,1.674975902E-1,9.336793900E0,1.722832322E-1
2.883611403E1,-1.100698411E-1,9.241081238E0,7.250252366E-1
2.885278069E1,4.785645287E-3,1.021735287E1,1.124626637E0
2.886944736E1,-3.158525825E-1,1.028195858E1,1.091127157E0
2.888611403E1,-6.508477330E-1,9.973284721E0,1.004985452E0
2.890278069E1,-1.134197950E0,9.817750931E0,1.433300734E0
2.891944736E1,-1.174875975E0,9.559326172E0,1.232303619E0
2.893611402E1,-1.205982566E0,9.803394318E0,9.332008362E-1
2.895278069E1,-8.925228715E-1,1.095434189E1,8.111668825E-1
2.896944736E1,-5.383850932E-1,1.059541893E1,5.742774606E-1
2.898611402E1,-8.135596663E-2,9.408578873E0,2.943171859E-1
2.900278069E1,2.799602449E-1,9.186046600E0,3.804588020E-1
2.901944735E1,1.746760458E-1,9.006584167E0,9.212366939E-1
2.903611402E1,-3.948157430E-1,9.509077072E0,7.968099117E-1
2.905278069E1,-5.479564071E-1,9.791430473E0,9.834501147E-1
2.906944735E1,-8.446664214E-1,8.865407944E0,7.561319470E-1
2.908611402E1,-9.714859724E-1,8.291130066E0,6.053841114E-1
2.910278068E1,-7.968099117E-1,9.434899330E0,1.122233868E0
2.911944735E1,-4.163511395E-1,1.079162979E1,9.595218897E-1
2.913611402E1,-6.221338734E-2,1.020060253E1,1.651047617E-1
2.915278068E1,4.235295951E-1,9.030512810E0,-7.657032460E-2
2.916944735E1,1.268195957E-1,8.745766640E0,7.633104324E-1
2.918611401E1,-3.876372576E-1,9.413364410E0,1.399801254E0
2.920278068E1,-1.052842021E0,1.049970531E1,1.004985452E0
2.921944735E1,-1.033699393E0,1.067438221E1,5.216353536E-1
2.923611401E1,-7.704889178E-1,1.022931671E1,6.412764788E-1
2.925278068E1,-3.373879790E-1,9.726823807E0,7.513462901E-1
2.926944734E1,4.785645381E-2,9.616754532E0,9.116654396E-1
2.928611401E1,1.986042857E-1,9.308079720E0,5.407779217E-1
2.930278068E1,-5.742774159E-2,9.547362328E0,5.790630579E-1
2.931944734E1,-3.421736360E-1,1.012403297E1,8.638089895E-1
2.933611401E1,-2.153540403E-1,1.027717304E1,7.704889178E-1
2.935278067E1,-2.273181528E-1,9.767501831E0,3.397808075E-1
2.936944734E1,2.153540403E-2,9.157332420E0,1.698904037E-1
2.938611401E1,-3.589234129E-2,8.628518105E0,5.192425251E-1
2.940278067E1,-5.024927482E-2,8.853444099E0,7.896314859E-1
2.941944734E1,-8.374879509E-2,9.590433121E0,8.039883971E-1
2.943611400E1,-1.339980662E-1,9.951749802E0,7.896314859E-1
2.945278067E1,1.435693651E-1,1.001156998E1,9.738788009E-1
2.946944734E1,3.206382394E-1,9.951749802E0,8.997012973E-1
2.948611400E1,2.751746178E-1,1.027478027E1,9.020941257E-1
2.950278067E1,2.775674164E-1,1.098784161E1,9.475577474E-1
2.951944733E1,1.579262912E-1,1.055234814E1,8.446664214E-1
2.953611400E1,-6.939185411E-2,9.279366493E0,4.881358147E-1
2.955278067E1,-4.211367965E-1,8.796015739E0,7.657032609E-1
2.956944733E1,-5.934200287E-1,9.229117393E0,1.342373490E0
2.958611400E1,-1.213161111E0,1.009771156E1,1.201196909E0
2.960278066E1,-8.853443861E-1,1.048774147E1,1.112662554E0
2.961944733E1,-4.546363056E-1,9.992427826E0,1.205982566E0
2.963611400E1,-5.048855543E-1,9.391828537E0,1.208375454E0
2.965278066E1,-6.723831892E-1,9.425328255E0,1.217946768E0
2.966944733E1,-1.182054400E0,9.353543282E0,1.438086390E0
2.968611399E1,-1.423729420E0,8.803194046E0,1.450050473E0
2.970278066E1,-1.332802176E0,9.068798065E0,1.505085468E0
2.971944733E1,-1.375872970E0,1.030110168E1,1.940579176E0
2.973611399E1,-9.690931439E-1,1.104287624E1,1.694118381E0
2.975278066E1,-4.331009090E-1,1.063609695E1,1.268195987E0
2.976944732E1,1.531406492E-1,1.001396275E1,1.289731383E0
2.978611399E1,2.584248483E-1,9.382257462E0,1.383051515E0
2.980278066E1,7.178468257E-2,9.107083321E0,1.002592683E0
2.981944732E1,-1.818545163E-1,9.458827972E0,7.585247755E-1
2.983611399E1,-2.560320199E-1,9.889535904E0,2.847459018E-1
2.985278065E1,-2.177468538E-1,9.360722542E0,-1.651047617E-1
2.986944732E1,-4.785645287E-3,8.697910309E0,-3.062812984E-1
2.988611399E1,-2.153540403E-1,8.422736168E0,-1.148554832E-1
2.990278065E1,-3.206382394E-1,8.535198212E0,5.862415433E-1
2.991944732E1,-8.853443861E-1,9.226723671E0,1.811366796E0
2.993611398E1,-1.361516118E0,9.992427826E0,2.096112728E0
2.995278065E1,-1.753939033E0,1.055474091E1,1.701296926E0
2.996944732E1,-1.610369682E0,1.065045357E1,1.509871125E0
2.998611398E1,-1.445264935E0,9.657432556E0,1.217946768E0
3.000278065E1,-1.239482164E0,9.092725754E0,1.012163997E0
3.001944731E1,-9.858429432E-1,9.159725189E0,1.021735311E0
3.003611398E1,-1.048056364E0,9.784252167E0,1.110269666E0
3.005278065E1,-8.781659007E-1,1.008096218E1,7.489534616E-1
3.006944731E1,-6.125625968E-1,1.002353382E1,3.996013701E-1
3.008611398E1,-2.464607358E-1,9.777072906E0,1.459621787E-1
3.010278064E1,8.614161611E-2,9.757930756E0,3.230310678E-1
3.011944731E1,3.349951804E-1,9.879964828E0,7.417750359E-1
3.013611398E1,3.445664644E-1,9.757930756E0,1.136590719E0
3.015278064E1,2.153540403E-1,9.468399048E0,1.071984529E0
3.016944731E1,-6.699903309E-2,9.657432556E0,1.091127157E0
3.018611397E1,-1.794617027E-1,1.003310490E1,1.033699393E0
3.020278064E1,1.196411327E-1,9.949356079E0,7.441678643E-1
3.021944731E1,3.900300860E-1,9.525827408E0,5.766702294E-1
3.023611397E1,6.053841114E-1,8.939585686E0,8.207381964E-1
3.025278064E1,4.761717021E-1,8.520841599E0,8.255237937E-1
3.026944730E1,-2.153540403E-2,8.807980537E0,9.379864931E-1
3.028611397E1,-4.618147612E-1,1.007856941E1,1.036092162E0
3.030278064E1,-6.771687865E-1,1.089452171E1,9.810572863E-1
3.031944730E1,-5.479564071E-1,1.066481018E1,7.178468108E-1
3.033611397E1,-3.637090325E-1,9.851250648E0,6.604190469E-1
3.035278063E1,1.483550072E-1,9.736394882E0,6.029912829E-1
3.036944730E1,2.919243574E-1,9.511469841E0,6.364908218E-1
3.038611397E1,3.996013701E-1,9.480362892E0,4.450650215E-1
3.040278063E1,2.057827413E-1,9.521040916E0,7.226324677E-1
3.041944730E1,1.244267747E-1,1.011924744E1,9.451649189E-1
3.043611396E1,-2.632104978E-2,1.045184898E1,1.198804140E0
3.045278063E1,1.268195957E-1,1.021496010E1,9.619147182E-1
3.046944730E1,9.092725813E-2,9.188439369E0,6.795616150E-1
3.048611396E1,6.221338734E-2,9.276973724E0,5.910272002E-1
3.050278063E1,2.392822644E-3,9.528220177E0,6.675975323E-1
3.051944729E1,2.273181528E-1,9.533005714E0,5.551348329E-1
3.053611396E1,-1.124626622E-1,8.597412109E0,4.809573591E-1
3.055278063E1,-2.656033039E-1,8.889336586E0,6.604190469E-1
3.056944729E1,-7.130611539E-1,1.016949654E1,1.502692580E0
3.058611396E1,-1.170090318E0,1.104526901E1,1.399801254E0
3.060278062E1,-1.165304661E0,1.100459099E1,1.277767301E0
3.061944729E1,-1.237089276E0,9.614361763E0,1.110269666E0
3.063611396E1,-1.296909928E0,8.798408508E0,1.012163997E0
3.065278062E1,-1.150947690E0,9.128618240E0,1.244267821E0
3.066944729E1,-9.523434043E-1,9.468399048E0,1.404586911E0
3.068611395E1,-5.838487148E-1,9.700503349E0,1.287338614E0
3.070278062E1,-3.900300860E-1,9.791430473E0,1.373480201E0
3.071944729E1,-3.086741269E-1,1.012642574E1,1.447657704E0
3.073611395E1,-6.029912829E-1,1.002353382E1,1.409372568E0
3.075278062E1,-7.417750359E-1,9.652647018E0,1.241874933E0
3.076944728E1,-1.031306505E0,9.042476654E0,1.201196909E0
3.078611395E1,-1.272981644E0,8.963513374E0,1.150947690E0
3.080278062E1,-1.404586911E0,8.963513374E0,1.091127157E0
3.081944728E1,-1.265803218E0,9.047262192E0,1.105484009E0
3.083611395E1,-1.002592683E0,9.391828537E0,9.738788009E-1
3.085278061E1,-1.026520967E0,9.585647583E0,1.033699393E0
3.086944728E1,-8.685946465E-1,9.700503349E0,1.033699393E0
3.088611395E1,-1.110269666E0,9.466006279E0,1.064806104E0
3.090278061E1,-1.531406522E0,9.138189316E0,1.196411371E0
3.091944728E1,-1.780260086E0,9.176474571E0,1.433300734E0
3.093611394E1,-2.428714991E0,8.867800713E0,1.495514154E0
3.095278061E1,-1.744367719E0,9.566504478E0,1.189232826E0
3.096944728E1,-1.210768223E0,1.144487095E1,1.351944804E0
3.098611394E1,5.479564071E-1,1.222493076E1,8.733802438E-1
3.100278061E1,6.819544435E-1,1.014078236E1,-2.871387303E-1
3.101944727E1,3.780659735E-1,1.066002464E1,1.435693622E0
3.103611394E1,1.172483116E-1,1.241396427E1,3.318845034E0
3.105278061E1,-1.555334687E0,1.074616623E1,1.536192179E0
3.106944727E1,-1.490728498E0,1.016231823E1,6.460621357E-1
3.108611394E1,-1.813759565E0,9.616754532E0,1.103091240E0
3.110278060E1,-1.538584948E0,8.815158844E0,1.210768223E0
3.111944727E1,-1.658226132E0,7.089933395E0,6.939185858E-1
3.113611394E1,-1.797009826E0,5.642275810E0,1.605584025E0
3.115278060E1,-2.277967215E0,5.807380676E0,1.708475351E0
3.116944727E1,-2.014756680E0,7.958528042E0,1.909472466E0
3.118611393E1,-7.609176040E-1,1.059781170E1,1.088734269E0
3.120278060E1,1.435693540E-2,1.124387360E1,4.785645287E-3
3.121944727E1,5.503492057E-2,9.777072906E0,-7.944171429E-1
3.123611393E1,2.727817893E-1,1.011685371E1,-5.096712112E-1
3.125278060E1,6.436693072E-1,1.096391296E1,1.978864312E0
3.126944726E1,-1.079162955E0,1.034417248E1,1.686939955E0
3.128611393E1,-1.430907965E0,1.009292603E1,1.507478237E0
3.130278060E1,-1.825723648E0,1.046381378E1,1.540977836E0
3.131944726E1,-1.899901152E0,9.961320877E0,1.210768223E0
3.133611393E1,-1.993221283E0,9.212367058E0,7.513462901E-1
3.135278059E1,-1.794616938E0,8.853444099E0,8.662018180E-1
3.136944726E1,-1.883151412E0,8.819944382E0,2.160718918E0
3.138611393E1,-1.684547186E0,9.245866776E0,2.900100946E0
3.140278059E1,-1.435693622E0,8.956335068E0,1.986042738E0
3.141944726E1,-1.342373490E0,8.513663292E0,1.007378340E0
3.143611392E1,-1.294517040E0,8.542376518E0,8.901300430E-1
3.145278059E1,-1.019342422E0,8.549555779E0,5.838487148E-1
3.146944726E1,-1.083948612E0,8.116454124E0,1.722832322E-1
3.148611392E1,-1.328016520E0,7.508677483E0,4.953143001E-1
3.150278059E1,-2.266003132E0,7.709674358E0,1.354337573E0
3.151944725E1,-2.739781857E0,7.817351341E0,1.462014675E0
3.153611392E1,-2.488535643E0,7.190432072E0,1.160519004E0
3.155278059E1,-2.227717876E0,6.953542709E0,2.895315289E-1
3.156944725E1,-1.976471543E0,1.166740322E1,2.294716835E0
3.158611392E1,-2.744567633E0,1.779302979E1,3.316452265E0
3.160278058E1,-2.947957516E0,1.763749504E1,1.560120344E0
3.161944725E1,-2.263610125E0,1.103809071E1,1.761117458E0
3.163611392E1,-1.564906001E0,9.920642853E0,7.034898400E-1
3.165278058E1,-4.546363056E-1,1.387597847E1,6.652047038E-1
3.166944725E1,1.459621787E-1,1.341894913E1,2.632104978E-2
3.168611391E1,2.392822653E-1,1.233500099E1,8.279166222E-1
3.170278058E1,1.713261008E0,1.283031464E1,2.557927370E0
3.171944725E1,1.435693622E0,1.124626637E1,2.380858421E0
3.173611391E1,7.992027402E-1,8.396414757E0,1.909472466E0
3.175278058E1,-4.809573591E-1,6.168696880E0,1.509871125E0
3.176944724E1,-1.301695466E0,4.431507587E0,2.656033039E-1
3.178611391E1,-1.320838094E0,3.058027267E0,1.411765367E-1
3.180278058E1,-8.949156404E-1,2.105684042E0,1.002592683E0
3.181944724E1,-5.144568682E-1,2.333002090E0,6.891329288E-1
3.183611391E1,-2.368894368E-1,4.673182487E0,1.469193101E0
3.185278057E1,-1.134197950E0,9.738788605E0,1.950150490E0
3.186944724E1,-3.026920557E0,1.205743313E1,-2.584248483E-1
3.188611391E1,-1.129412293E0,1.241635704E1,-6.221339107E-1
3.190278057E1,-6.245267391E-1,1.078684425E1,1.105484009E0
3.191944724E1,9.332008660E-2,1.058584690E1,2.854637384E0
3.193611390E1,2.105683982E-1,1.213878918E1,1.452443361E0
3.195278057E1,-2.550748825E0,1.344766331E1,1.995614052E0
3.196944724E1,-4.843072891E0,1.318923855E1,2.400001049E0
3.198611390E1,-4.907679081E0,1.230150127E1,1.741974831E0
3.200278057E1,-3.706482172E0,1.117687416E1,1.210768223E0
3.201944723E1,-2.057827473E0,1.039681435E1,8.997012973E-1
3.203611390E1,-4.642075896E-1,8.731410027E0,7.609176040E-1
3.205278057E1,-5.670989752E-1,7.690532207E0,1.517049551E0
3.206944723E1,-2.273181528E-1,8.276773453E0,2.435893536E0
3.208611390E1,1.651047617E-1,9.028120041E0,1.887937069E0
3.210278056E1,6.412764788E-1,8.918049812E0,9.475577474E-1
3.211944723E1,1.459621787E-1,8.439485550E0,9.834501147E-1
3.213611390E1,2.033899277E-1,8.568697929E0,5.264210105E-1
3.215278056E1,7.178468257E-2,8.274380684E0,1.627119333E-1
3.216944723E1,-4.570291340E-1,7.982456207E0,5.192425251E-1
3.218611389E1,-6.987041831E-1,9.477970123E0,5.670989752E-1
3.220278056E1,-1.430907965E0,1.172004509E1,1.615155339E0
3.221944723E1,-1.272981644E0,1.199282742E1,1.797009826E0
3.223611389E1,-1.162911773E0,8.224131584E0,1.763510346E0
3.225278056E1,-8.207381964E-1,5.027320385E0,5.383850932E-1
3.226944722E1,-1.519442320E0,2.758924484E0,8.135597110E-1
3.228611389E1,-2.447857618E0,2.172683001E0,2.423929453E0
3.230278056E1,-3.622733593E0,6.032305717E0,4.024727821E0
3.231944722E1,-4.570291042E0,1.510349655E1,3.952943087E0
3.233611389E1,-2.830709219E0,2.228675079E1,-9.643075466E-1
3.235278055E1,-1.409372568E0,2.031745720E1,-5.144568682E-1
3.236944722E1,8.709874153E-1,1.393579865E1,-7.417750359E-1
3.238611389E1,1.040877819E0,1.051884842E1,1.414158225E0
3.240278055E1,3.326023519E-1,7.965706348E0,1.679761529E0
3.241944722E1,-8.757730722E-1,8.664410591E0,1.093519926E0
3.243611388E1,-2.402393818E0,1.065763187E1,2.201396942E0
3.245278055E1,-2.730210543E0,1.029153061E1,2.658426046E0
3.246944722E1,-2.464607239E0,8.118846893E0,2.354537487E0
3.248611388E1,-2.481357098E0,6.340980053E0,1.682154298E0
3.250278055E1,-1.361516118E0,6.278766632E0,7.106683254E-1
3.251944721E1,-1.316052526E-1,6.908079147E0,2.488535494E-1
3.253611388E1,1.507478207E-1,7.415357590E0,1.284945726E0
3.255278055E1,2.632105052E-1,8.054241180E0,2.105684042E0
3.256944721E1,1.411765367E-1,8.590232849E0,9.212366939E-1
3.258611388E1,1.004985496E-1,9.286544800E0,4.881358147E-1
3.260278054E1,-2.368894368E-1,1.018624592E1,8.709874153E-1
3.261944721E1,-1.167697430E0,1.028435135E1,1.351944804E0
3.263611388E1,-1.947757602E0,1.050927734E1,1.624726534E0
3.265278054E1,-2.627319336E0,1.120798111E1,1.631905079E0
3.266944721E1,-2.701496840E0,1.160040379E1,9.810572863E-1
3.268611387E1,-2.797209740E0,1.113619614E1,4.259224236E-1
3.270278054E1,-2.141576290E0,1.071266651E1,3.086741269E-1
3.271944721E1,-1.402194023E0,1.037288570E1,4.737788737E-1
3.273611387E1,-7.944171429E-1,9.863214493E0,7.537391186E-1
3.275278054E1,-1.316052526E-1,9.477970123E0,1.028913736E0
3.276944720E1,2.392822644E-3,8.659625053E0,1.428515077E0
3.278611387E1,2.009970993E-1,8.461020470E0,9.260223508E-1
3.280278054E1,-2.751746178E-1,8.853444099E0,1.057627559E0
3.281944720E1,-9.451649189E-1,8.863015175E0,8.398807645E-1
3.283611387E1,-1.186840057E0,8.733802795E0,7.537391186E-1
3.285278053E1,-1.040877819E0,8.585447311E0,7.561319470E-1
3.286944720E1,-6.532405615E-1,8.681160927E0,8.087740541E-1
3.288611387E1,-2.727817893E-1,9.408578873E0,8.853443861E-1
3.290278053E1,4.546362907E-2,1.030349445E1,1.177268744E0
3.291944720E1,1.028913707E-1,1.036092186E1,1.026520967E0
3.293611386E1,-2.081755698E-1,9.547362328E0,7.657032460E-2
3.295278053E1,-3.828516304E-1,9.248259544E0,9.571290575E-3
3.296944720E1,-6.867401004E-1,9.698110580E0,1.914258115E-2
3.298611386E1,-5.766702294E-1,1.029870892E1,2.273181528E-1
3.300278053E1,5.024927482E-2,1.034177971E1,3.349951804E-1
3.301944719E1,4.666004181E-1,1.022931671E1,4.307080805E-1
3.303611386E1,3.565305769E-1,9.743574142E0,7.202396393E-1
3.305278053E1,2.727817893E-1,9.547362328E0,8.829515576E-1
3.306944719E1,-4.546362907E-2,9.882357597E0,9.284151793E-1
3.308611386E1,-5.742774606E-1,9.743574142E0,9.595218897E-1
3.310278052E1,-7.824530005E-1,9.219545364E0,6.891329288E-1
3.311944719E1,-6.173482537E-1,9.198010445E0,7.034898400E-1
3.313611386E1,-1.064806104E0,9.121439934E0,1.067198873E0
3.315278052E1,-6.771687865E-1,9.248259544E0,1.153340459E0
3.316944719E1,-8.853443861E-1,9.413364410E0,1.478764415E0
3.318611385E1,-1.789831281E0,9.994820595E0,1.526620865E0
3.320278052E1,-2.079362869E0,1.071745300E1,1.562513232E0
3.321944719E1,-2.577069998E0,1.084427261E1,1.804188251E0
3.323611385E1,-2.816352367E0,1.043749237E1,2.041077614E0
3.325278052E1,-2.900100946E0,9.647860527E0,1.990828395E0
3.326944718E1,-2.368894339E0,9.169296265E0,2.196611166E0
3.328611385E1,-2.009970903E0,9.221938133E0,2.526820660E0
3.330278052E1,-2.002792597E0,9.477970123E0,2.543570518E0
3.331944718E1,-2.012363911E0,9.631111145E0,2.450250387E0
3.333611385E1,-1.954936147E0,9.571290970E0,2.103291035E0
3.335278051E1,-1.761117458E0,9.602396965E0,1.825723648E0
3.336944718E1,-1.641476393E0,9.537791252E0,1.871187329E0
3.338611385E1,-1.715653777E0,9.564111710E0,1.701296926E0
3.340278051E1,-1.485942841E0,9.798608780E0,1.457229018E0
3.341944718E1,-9.260223508E-1,9.681360245E0,1.277767301E0
3.343611384E1,-5.527420044E-1,9.379864693E0,1.050449133E0
3.345278051E1,-3.804588020E-1,9.257830620E0,1.112662554E0
3.346944718E1,-5.838487148E-1,9.174081802E0,1.404586911E0
3.348611384E1,-1.071984529E0,9.154939651E0,1.409372568E0
3.350278051E1,-1.438086390E0,9.676574707E0,1.909472466E0
3.351944717E1,-1.634297848E0,1.025085258E1,1.629512191E0
3.353611384E1,-1.450050473E0,9.937392235E0,1.581655741E0
3.355278051E1,-1.198804140E0,9.521040916E0,1.373480201E0
3.356944717E1,-7.250252366E-1,9.542576790E0,1.342373490E0
3.358611384E1,-2.991028428E-1,9.918250084E0,1.366301775E0
3.360278050E1,-1.292124242E-1,9.896714211E0,1.105484009E0
3.361944717E1,-1.028913707E-1,9.439684868E0,8.518448472E-1
3.363611384E1,3.278166950E-1,9.219545364E0,8.159525394E-1
3.365278050E1,5.192425251E-1,9.219545364E0,7.944171429E-1
3.366944717E1,2.799602449E-1,8.784051895E0,4.977070987E-1
3.368611383E1,1.866401732E-1,8.664410591E0,9.906286001E-1
3.370278050E1,-2.009970993E-1,9.131011009E0,1.832902193E0
3.371944717E1,-7.824530005E-1,9.695717812E0,2.021935225E0
3.373611383E1,-7.369893789E-1,1.053081226E1,2.318645239E0
3.375278050E1,-6.747759581E-1,1.074138069E1,2.510071039E0
3.376944716E1,-4.402793646E-1,1.028435135E1,1.990828395E0
3.378611383E1,-1.962114573E-1,9.619147301E0,1.679761529E0
3.380278050E1,-2.057827413E-1,9.303294182E0,1.332802176E0
3.381944716E1,-1.866401732E-1,9.324830055E0,5.958128572E-1
3.383611383E1,-2.344966233E-1,9.399007797E0,2.775674164E-1
3.385278049E1,-2.560320199E-1,9.681360245E0,4.594219327E-1
3.386944716E1,-2.225325108E-1,9.915857315E0,7.968099117E-1
3.388611383E1,-4.067798555E-1,9.542576790E0,1.158126116E0
3.390278049E1,-1.067198873E0,9.123832703E0,1.495514154E0
3.391944716E1,-1.560120344E0,9.154939651E0,1.469193101E0
3.393611382E1,-1.820937991E0,9.410971642E0,1.569691658E0
3.395278049E1,-1.548156261E0,9.655039787E0,1.548156261E0
3.396944716E1,-1.033699393E0,9.288937569E0,1.186840057E0
3.398611382E1,-5.048855543E-1,9.286544800E0,1.016949654E0
3.400278049E1,6.699903309E-2,9.822537422E0,8.829515576E-1
3.401944715E1,2.416750938E-1,9.372686386E0,5.647061467E-1
3.403611382E1,1.316052526E-1,9.052047729E0,2.751746178E-1
3.405278049E1,-5.982056633E-2,9.662218094E0,1.009771109E0
3.406944715E1,-3.589234054E-1,1.032263660E1,1.414158225E0
3.408611382E1,-9.714859724E-1,1.038485050E1,1.732403636E0
3.410278048E1,-1.237089276E0,1.058584690E1,1.832902193E0
3.411944715E1,-1.150947690E0,1.025085258E1,1.476371527E0
3.413611382E1,-8.638089895E-1,9.442078590E0,1.241874933E0
3.415278048E1,-3.852444589E-1,8.774480820E0,8.303094506E-1
3.416944715E1,-2.392822690E-2,8.664410591E0,6.101697683E-1
3.418611381E1,3.804588020E-1,8.779266357E0,5.216353536E-1
3.420278048E1,5.814558864E-1,8.975478172E0,5.479564071E-1
3.421944715E1,3.302095234E-1,9.394221306E0,5.790630579E-1
3.423611381E1,-1.507478207E-1,9.832108498E0,9.020941257E-1
3.425278048E1,-6.532405615E-1,1.005942631E1,1.148554921E0
3.426944714E1,-7.465606928E-1,1.003310490E1,1.344766378E0
3.428611381E1,-5.455635786E-1,9.951749802E0,1.402194023E0
3.430278048E1,-4.929214716E-1,1.024367332E1,1.311266780E0
3.431944714E1,-3.732803464E-1,1.054038334E1,1.284945726E0
3.433611381E1,-1.603191197E-1,1.020538902E1,9.571290612E-1
3.435278047E1,7.417750359E-2,9.463613510E0,6.484549642E-1
3.436944714E1,2.751746178E-1,9.267401695E0,6.029912829E-1
3.438611381E1,3.421736360E-1,9.554540634E0,6.628118753E-1
3.440278047E1,1.483550072E-1,9.748359680E0,7.609176040E-1
3.441944714E1,-1.124626622E-1,9.851250648E0,9.044869542E-1
3.443611380E1,-2.536391914E-1,9.978070259E0,1.009771109E0
3.445278047E1,-3.565305769E-1,9.879964828E0,1.127019525E0
3.446944714E1,-3.613162339E-1,9.853643417E0,1.174875975E0
3.448611380E1,-2.608176768E-1,9.863214493E0,1.210768223E0
3.450278047E1,-1.579262912E-1,9.779465675E0,1.067198873E0
3.451944713E1,-1.674975827E-2,9.554540634E0,9.451649189E-1
3.453611380E1,7.178468257E-2,9.188439369E0,8.398807645E-1
3.455278047E1,2.775674164E-1,9.133403778E0,7.872386575E-1
3.456944713E1,-5.264209956E-2,9.207581520E0,9.379864931E-1
3.458611380E1,-4.211367965E-1,9.561718941E0,1.038485050E0
3.460278046E1,-5.934200287E-1,1.009292603E1,1.229910851E0
3.461944713E1,-5.120640397E-1,1.016471100E1,1.170090318E0
3.463611380E1,-1.363908947E-1,9.820143700E0,1.026520967E0
3.465278046E1,2.919243574E-1,9.604789734E0,1.026520967E0
3.466944713E1,5.551348329E-1,9.690931320E0,1.217946768E0
3.468611379E1,4.785645381E-2,9.506684303E0,1.232303619E0
3.470278046E1,-3.828516304E-1,9.674181938E0,1.543370605E0
3.471944713E1,-5.647061467E-1,9.533005714E0,1.564906001E0
3.473611379E1,-7.298108935E-1,9.382257462E0,1.426122308E0
3.475278046E1,-7.226324677E-1,9.332008362E0,1.603191137E0
3.476944712E1,-5.000999570E-1,9.253045082E0,1.758724689E0
3.478611379E1,-7.130611539E-1,9.480362892E0,1.842473388E0
3.480278046E1,-1.064806104E0,9.750752449E0,1.887937069E0
3.481944712E1,-1.416550994E0,9.681360245E0,1.864008784E0
3.483611379E1,-1.751546144E0,9.540184021E0,1.785045743E0
3.485278045E1,-1.804188251E0,9.585647583E0,1.550549030E0
