time,acc_x,acc_y,acc_z,rot_x,rot_y,rot_z
0 days 00:00:00.064279957,2.2528424855000004,4.794618368,7.95134961625,-0.1111773923,0.2228129357,-0.04115701467
0 days 00:00:00.084279957,2.2085752881666667,4.722634236,8.1020975115,-0.1111773923,0.22281293570000002,-0.04115701467
0 days 00:00:00.104279957,2.4311078195,4.57926428325,8.49212789525,-0.01496618753,0.0569631425,-0.0136680994185
0 days 00:00:00.124279957,2.6703901295,4.6456651685,8.3808612825,0.009468403956,0.10155627058333334,-0.020183989778
0 days 00:00:00.144279957,2.7050860527499996,4.60977268225,8.14756131175,0.0077885256635,0.14233149215000002,-0.035048365595
0 days 00:00:00.164279957,2.734996259,4.62592446825,8.09192824375,-0.0132863090845,0.1172860358,-0.022831070704
0 days 00:00:00.184279957,2.7481567465,4.705485662,8.303094386833335,-0.036957319825,0.092698730545,-0.0029779656325000007
0 days 00:00:00.204279957,2.7756742240000003,4.73958325375,8.42094087625,-0.057879438625,0.09422589279749999,-0.0005345066890000001
0 days 00:00:00.224279957,2.745763898,4.735395908,8.4765744205,-0.07961604247833333,0.13352485993333332,-0.010410154043166668
0 days 00:00:00.244279957,2.6404797435000003,4.66121864325,8.433503389000002,-0.08765909821000001,0.1953240149,-0.019624030447500003
0 days 00:00:00.264279957,2.511865616,4.5744788645,8.29950547175,-0.09773836658,0.22663084044999998,-0.0093920459025
0 days 00:00:00.284279957,2.3158535165000003,4.567499478333333,8.2281192145,-0.10506873950000001,0.22892157735,0.026038111655
0 days 00:00:00.304279957,2.342573404,4.575674891249999,8.296514034000001,-0.08582650124,0.172111146125,0.0454330695775
0 days 00:00:00.324279957,2.4299114945,4.626522541,8.444271087499999,-0.048869183595000004,0.10298162076999999,0.03072140878083333
0 days 00:00:00.344279957,2.6769703035,4.7240302565,8.9114699365,0.010690133557500002,0.096822066225,-0.01809687004375
0 days 00:00:00.364279957,2.899502754,4.79342210275,9.2404825685,0.10369429736500001,0.14523310212499999,-0.08132137544500001
0 days 00:00:00.384279957,2.8151558241666668,4.8478587465,9.156933307833334,0.2076940313,0.23197590560000003,-0.15233439955
0 days 00:00:00.404279957,2.533999145,4.82871615875,8.75533843,0.2008217946,0.347582072,-0.179365169275
0 days 00:00:00.424279957,2.4945175645,4.768895626,9.060422897,0.1366300906,0.5284489492333333,-0.18328489116666666
0 days 00:00:00.444279957,2.528615415,4.58883559725,10.32203889225,0.19608759137499998,0.79122263205,-0.198607414925
0 days 00:00:00.464279957,1.92921331525,4.39262414,11.0213413225,0.3371973559,1.145829648,-0.1130863439375
0 days 00:00:00.484279957,1.540977776,5.066403070833333,9.9465651505,0.4211912751,1.6119194625000002,-0.002977965863
0 days 00:00:00.504279957,1.491326756725,4.75932419325,9.2691965105,0.266489759075,2.1875067052499997,0.013209950176
0 days 00:00:00.524279957,0.37686957419999995,4.675575495,8.006384372500001,-0.04581485937333333,2.597956935833333,0.12326742334333333
0 days 00:00:00.544279957,-0.030508484724999993,4.6187458034999995,8.385647058,-0.13194679469999998,2.6572618485,0.17386738585
0 days 00:00:00.564279957,-0.653838787275,4.49611377725,8.265407562,-0.0835357606325,2.5575381520000002,0.2742019258
0 days 00:00:00.584279957,-1.2721840836833334,4.356532414666666,8.086145400666666,-0.006719512865,2.2701262235,0.4368446767
0 days 00:00:00.604279957,-2.02253338675,3.9678980110000004,8.3060855865,0.0293215084825,2.02074068775,0.6562978327
0 days 00:00:00.624279957,-2.356930375,3.9349968435,8.652446746999999,0.163813575485,1.7899864908333332,0.9304234186333332
0 days 00:00:00.644279957,-2.079362869,4.601996303,8.18584609,0.27717989685,1.4911209045,1.0664935705
0 days 00:00:00.664279957,-1.70907360325,4.75872600125,8.20797967875,0.332615882175,1.2843432132500001,1.1048253477499999
0 days 00:00:00.684279957,-0.6153542598333334,4.692325274333333,8.403992096833333,0.42607818545,1.112232089,1.1234567165
0 days 00:00:00.704279957,3.3391840459999997,5.5507503745,6.198009014249999,0.31383177640000004,1.1641556022500001,0.871780380575
0 days 00:00:00.724279957,1.5649060310499998,6.764509439499999,6.5084774495,0.2247982373,0.47072222825000004,0.41485354799999996
0 days 00:00:00.744279957,0.0005982107999999986,5.512465119249999,7.127620220500001,0.181579550715,0.11026109245249999,0.294513180825
0 days 00:00:00.764279957,-1.567897040325,4.46680152425,7.619345546,0.041233372407499996,0.027488915715,0.356668673475
0 days 00:00:00.784279957,-2.2524436908333336,4.765306234333334,7.850851138833334,-0.03145953547,0.041996954005,0.5657371581
0 days 00:00:00.804279957,-1.42612230825,5.0584270955,8.161320209749999,-0.1206457950475,0.09728021732,0.57688541715
0 days 00:00:00.824279957,-1.109073341,5.309673548,8.2839522365,-0.16025019686666667,0.15531237544999998,0.4977275282
0 days 00:00:00.844279957,-1.1473585067499998,5.408377409,8.27019357725,-0.148745577775,0.16386447660249998,0.48006335645
0 days 00:00:00.864279957,-0.811166867575,5.6859447955,8.4029951095,-0.135764695725,0.066278826445,0.47823075950000005
0 days 00:00:00.884279957,-0.612562594335,5.822933832833333,8.573084990333333,-0.078801557445,0.04963276442,0.45425432920000003
0 days 00:00:00.904279957,0.1722832284925,6.205785393999999,8.355736494000002,-0.0255036046725,-0.0082466746725,0.330401487675
0 days 00:00:00.924279957,0.5814558864,6.1734824185,8.2360954285,-0.02046397017666667,-0.05156716828833333,0.09771291043333334
0 days 00:00:00.944279957,0.265603307675,5.775077581750001,8.356933354999999,-0.078343410055,-0.010690134957500007,-0.123318327575
0 days 00:00:00.964279957,-0.7914260812,5.0829534535,7.97228682025,-0.175318192725,0.17012584207499998,-0.15172354039
0 days 00:00:00.984279957,-1.501097401,4.668795824,8.2823568185,-0.25778493285,0.2637408748,0.008323034275000002
0 days 00:00:01.004279957,-1.6277176145,4.91964328275,8.8343014715,-0.11163553780499999,0.110871957605,0.1376736518025
0 days 00:00:01.024279957,-1.09471637005,5.1768717765000005,9.196813583500001,0.12441279616,-0.21588980034333335,0.19056435796666668
0 days 00:00:01.044279957,-0.15433706779200002,5.5417773727499995,8.967102527249999,0.32498006525,-0.449901923525,0.07276926752
0 days 00:00:01.064279957,-0.622133882289,5.1756752727499995,7.4937222000000006,0.2072358727125,-0.248163825571,-0.04772381112
0 days 00:00:01.084279957,-1.6478571792666667,4.692724148666667,7.819744586833333,-0.133473955075,0.06612611050799999,-0.057650363074999995
0 days 00:00:01.104279957,-2.2295125424999997,4.357330084000001,8.07338380825,-0.12965604665,0.07528908271750001,0.0684932107175
0 days 00:00:01.124279957,-2.105683982,4.886143684,8.522037506,-0.000305432212666668,-0.028456117328333336,0.31049748508333336
0 days 00:00:01.144279957,0.394217521025,6.089733481,8.70149970075,0.071776608935,-0.1091920751775,0.24762930811
0 days 00:00:01.164279957,1.241276711175,6.1351972815,7.99083137525,-0.016646065749999998,0.011606430642499999,-0.018707734519999995
0 days 00:00:01.184279957,0.8530412713666666,5.639484087833334,7.982057809833333,-0.23090688885,0.20387612285,-0.27542366085
0 days 00:00:01.204279957,0.136989099925,5.103890896,8.146364570000001,-0.30497424305,0.2981020175,-0.39927649495
0 days 00:00:01.224279957,-0.7262216543500001,4.804787874,8.843872547,-0.24495677030666665,0.23513203861666665,-0.40961028138333333
0 days 00:00:01.244279957,-2.43290242575,4.4464627505,8.893523692999999,-0.073151059564,0.1386663075375,-0.2890154049
0 days 00:00:01.264279957,-1.730010778,4.789832591750001,8.4137628075,0.007941241958,0.1000291071875,-0.20150902124999998
0 days 00:00:01.284279957,-2.1244276563333333,5.316453139,8.3621174495,0.020769402152,0.14737113194999998,-0.2225838527
0 days 00:00:01.304279957,-2.1966112255000003,4.944768071,8.26421141625,-0.049785481879000004,0.207083158225,-0.11858412625
0 days 00:00:01.324279957,-2.2049860955000002,5.0105705265000005,8.388039589,-0.07869974461333333,0.16213369122166665,-0.018147774041666665
0 days 00:00:01.344279957,-2.1667008997499995,4.84127843425,8.822337389000001,-0.0368046034125,0.06276635360249999,0.1101847346975
0 days 00:00:01.364279957,-1.58285221425,5.1140601635,8.755338192,0.0580321559575,-0.02657261771,0.19570579755
0 days 00:00:01.384279957,-0.5994020798666667,5.406981627333333,8.343772729,0.12919790295,-0.15195260945,0.14698933435
0 days 00:00:01.404279957,-0.282951287925,5.35274434075,8.123633146500001,0.063835369415,-0.12614357285,0.042836892875000004
0 days 00:00:01.424279957,-0.5252245813499999,5.1768717765000005,8.149953842,-0.05507964019666667,-0.029576035836666664,-0.04858920319333334
0 days 00:00:01.444279957,-1.2771691085999999,4.76590466525,8.37727212925,-0.1153007261425,0.06108647584500001,-0.052763448095
0 days 00:00:01.464279957,-1.52063876375,4.667200446500001,8.816953421000001,-0.06994401977725,0.1197294928,-0.01290451886725
0 days 00:00:01.484279957,-1.61435769,4.819543520666667,8.829914728833334,0.0387899142205,0.09605848416000001,0.015042545040500002
0 days 00:00:01.504279957,-1.30289192505,5.071587443249999,8.164909244,0.094836756585,0.025198171265000003,0.020540328695
0 days 00:00:01.524279957,-0.9858429136,5.199603558,7.974081755,0.039197156825,-0.007075851088333334,-0.017129666483333333
0 days 00:00:01.544279957,-1.1802597342499999,5.14636313925,8.33240652125,-0.036346455105,0.047494735565,-0.030619597525
0 days 00:00:01.564279957,-1.3878371115,5.041677356,8.37069153825,-0.046883872709999996,0.02855792815975,-0.02817613864
0 days 00:00:01.584279957,-1.4683955113333333,4.953940630000001,8.374480247666668,-0.027794348075000003,-0.017867794495499998,0.0034361146399999997
0 days 00:00:01.604279957,-1.4303097425,5.018347263500001,8.459824324,-0.007788526010500001,-0.0276416307325,0.02771798987
0 days 00:00:01.624279957,-1.270588815,5.118247509,8.5806622505,0.011708241344333334,-0.008399390615666667,0.02664897637666667
0 days 00:00:01.644279957,-1.089332521,5.18584465975,8.504091739500002,0.018631375625000002,0.010231985244,0.0026725332699999993
0 days 00:00:01.664279957,-1.03190475675,5.1798628565,8.41256642325,0.0065667962225,0.0229074298375,-0.0266489759075
0 days 00:00:01.684279957,-1.2003993193333333,5.120640437,8.417950312,-0.011300998275,0.02428187523,-0.046349365265
0 days 00:00:01.704279957,-1.4051851035,5.00339222,8.37846851375,-0.0113009982725,0.0054977829418250005,-0.034895651045000003
0 days 00:00:01.724279957,-1.521835208,4.991428137,8.2959160805,-0.012420916931666666,-0.018682280663483333,-0.01203912706
0 days 00:00:01.744279957,-1.459023625,5.01894545575,8.333603144000001,-0.0129808764925,-0.0226019972475,0.00068722286975
0 days 00:00:01.764279957,-1.260419339,5.07876598875,8.4394857885,-0.013286309314,-0.0058032155525,-0.01000291091575
0 days 00:00:01.784279957,-1.195613702,5.074379205666667,8.456235090833333,-0.006108647910999999,0.016951497645,-0.040851581840000005
0 days 00:00:01.804279957,-1.194018483,5.070391178,8.453842163,-0.004886918236,0.02367101051,-0.04787652567
0 days 00:00:01.824279957,-1.3292129634999998,5.076373338500001,8.5088772775,0.03023780626066667,-0.027336199766666663,-0.02822704364666667
0 days 00:00:01.844279957,-1.2239288089999998,5.111069083249999,8.28933572775,0.061926416114999994,-0.014966187076249998,-0.0297032999825
0 days 00:00:01.904279957,3.323630571,5.264209747,8.915657043,0.09193514657999999,0.068875003585,-0.050319986420000004
0 days 00:00:01.924279957,2.837887764,4.977071285,9.114261627,0.121943877045,0.15271619424625,-0.0709366728575
0 days 00:00:01.944279957,2.837887764,4.977071285,9.114261627,0.1319467872,0.1806632578,-0.07780890167
0 days 00:00:01.964279957,2.8019953967499998,5.001597642749999,8.8019982575,0.0778852580025,0.221896633525,-0.010919207705
0 days 00:00:01.984279957,2.6452654604999997,5.100301504,7.8735830785,0.05507964143999999,0.12670353489,0.002418006615666667
0 days 00:00:02.004279957,2.5441686514999997,5.0249274965,7.916055679499999,0.037720898747,0.01114828220725,-0.009239329492
0 days 00:00:02.024279957,2.575873533833333,4.945166667,8.189834435499998,-0.013744457391,0.017867794029500002,-0.0179441534
0 days 00:00:02.044279957,2.51007097975,4.86401009525,8.33779025075,-0.056504993697500006,0.0997236752625,-0.02573267883
0 days 00:00:02.064279957,2.486142814,4.7886362075,8.371290207000001,-0.07559451833,0.15745040215,-0.0264962595
0 days 00:00:02.084279957,2.5148565765,4.7952165605,8.38923645,-0.046120291101766665,0.150120019945,-0.026496260118333337
0 days 00:00:02.104279957,2.51306200025,4.807180643000001,8.272585869,0.0070249450370500005,0.079259702935,-0.022678354755
0 days 00:00:02.124279957,2.538386066833333,4.868596633,8.197810014,0.02046397049,0.041386088354999996,-0.012751802104499999
0 days 00:00:02.144279957,2.61056947725,4.928018331500001,8.3054873945,0.0164933493375,0.03512472379999999,-0.01015562715225
0 days 00:00:02.164279957,2.56331116,4.889732957,8.377272367,0.01802051114,0.039095345887499994,-0.0125990861575
0 days 00:00:02.184279957,2.4634108544999997,4.8095736505,8.3880395885,0.005090539848333333,0.06154462695166666,0.0035379252706666665
0 days 00:00:02.204279957,2.35812664025,4.76710081125,8.334201336,0.0006108647795,0.08796452918,0.025274530522499998
0 days 00:00:02.224279957,2.3050858576666666,4.8195434415,8.2500540415,-0.004581485874999999,0.101556271325,0.04711294547
0 days 00:00:02.244279957,2.2863420845,4.854438901,8.149355888,-0.004734202055499999,0.07254019007,0.0648280242475
0 days 00:00:02.264279957,2.3976082805,4.85204625125,8.11346316325,-0.0346665765415,0.0690277181575,0.0732274167275
0 days 00:00:02.284279957,2.447857499,4.908875703500001,8.2911305425,-0.07493274597166667,0.09697478142333332,0.06890045727333334
0 days 00:00:02.304279957,2.44965207575,4.8652067187500005,8.312666177499999,-0.07223476283500001,0.104305159275,0.061926417055
0 days 00:00:02.324279957,2.3497518103333337,4.748157660333334,8.238089640833334,-0.06352993846,0.1064431891,0.06452259048999999
0 days 00:00:02.344279957,1.9603199657500001,4.58584463575,7.856833100499999,-0.130419626815,0.14431680365,0.13125957364750002
0 days 00:00:02.364279957,1.96151638025,4.563710928,7.90768051125,-0.23014329369999997,0.19150611010000002,0.1906661764
0 days 00:00:02.384279957,2.0578274725,4.6456651685,8.3353977205,-0.26409721371666667,0.18575379998333333,0.2202931171
0 days 00:00:02.404279957,2.2025932072499996,4.74018144625,8.490332842250002,-0.21884230895,0.13881902585,0.216933358475
0 days 00:00:02.424279957,2.252842465666667,4.747758786166667,8.571888447000001,-0.19181153925000002,0.13057234515,0.18883357194999997
0 days 00:00:02.444279957,2.21036994425,4.6791648865,8.711070776,-0.17073670405,0.143400501475,0.189139004775
0 days 00:00:02.464279957,2.2887349125,4.68514680875,8.714061498749999,-0.13377938420000002,0.13881901655,0.189597155875
0 days 00:00:02.484279957,2.3102701900000002,4.6779682634999995,8.525627136499999,-0.10272709156666666,0.112450023525,0.18241949876666666
0 days 00:00:02.504279957,2.52024048575,4.712066054499999,8.6763749125,-0.09682206811249999,0.0853683520075,0.174020107825
0 days 00:00:02.524279957,2.718246579,4.754139900333334,8.951150576333333,-0.046731156295,0.080176003275,0.12224930895000001
0 days 00:00:02.544279957,2.6273192762499997,4.62412965325,8.93180847175,0.0148134711225,0.0965166352925,0.0718529690075
0 days 00:00:02.564279957,2.51724940575,4.52064025425,8.764909744,0.0390953449525,0.1207985077,0.057803080415
0 days 00:00:02.584279957,2.439482689,4.486542462999999,8.568697929499999,0.04550942592499999,0.12721259149666667,0.05301797266
0 days 00:00:02.604279957,2.35812664025,4.54755938075,8.49631476375,0.0507017755875,0.07589994837,0.049709121695
0 days 00:00:02.624279957,2.329412858,4.579862515333333,8.530014196833333,0.03695731889,0.017867794728,0.041615163905
0 days 00:00:02.644279957,2.2905293705,4.4703910355,8.65184855475,0.013133592902500001,0.0239764431015,0.03581194952
0 days 00:00:02.664279957,2.2354944945,4.41296315225,8.63808965725,0.0064140801552499994,0.047036587725,0.04543306958
0 days 00:00:02.684279957,2.2408784629999996,4.4422752855,8.5005021095,0.0038688103280000003,0.06765327540833334,0.06920589134166667
0 days 00:00:02.704279957,2.3862424495,4.521836638,8.32881760575,-0.0009162971407500001,0.061544627885,0.08254310302250001
0 days 00:00:02.724279957,2.4558337133333334,4.592225472,8.3673024175,-0.022296564655,0.062155490740000006,0.06543888897
0 days 00:00:02.744279957,2.362314224,4.58763909375,8.584849834749999,-0.023060146250000003,0.0618500579175,0.040546149017500005
0 days 00:00:02.764279957,2.276172519,4.49970304975,8.688339233250002,0.00137444562425,0.028710644230000002,0.0419205939375
0 days 00:00:02.784279957,2.2683959005,4.486542463,8.743374348000001,0.0278961576215,-0.04861465562166667,0.05210167603833334
0 days 00:00:02.804279957,2.36650162925,4.5236310955,8.784052134,0.0409279395825,-0.08826996199500001,0.064217161385
0 days 00:00:02.824279957,2.5060829323333333,4.560321171999999,8.698309421666666,0.005803215314999999,-0.019394956530000004,0.052916161715
0 days 00:00:02.844279957,2.48494631025,4.5948176385,8.64766097075,-0.01328630862,0.0581848677225,0.027870705815
0 days 00:00:02.864279957,2.4640091060000002,4.558327198000001,8.46700263,-0.00610864779475,0.0575740048625,0.011988221201749999
0 days 00:00:02.884279957,2.5040888785,4.558327198000001,8.410771369999999,-0.012420917008833333,0.04301506094333333,-0.007152208437500001
0 days 00:00:02.904279957,2.459821761,4.5619163515,8.55733227775,-0.0105374176075,0.015424335142499999,-0.0309250298875
0 days 00:00:02.924279957,2.3948166765,4.483351945666667,8.638488928666668,0.01557705179,-0.022449281535,-0.037797259165
0 days 00:00:02.944279957,2.3545374272500004,4.49132823975,8.6787679195,0.03252854897,-0.0277943476125,-0.0387135567175
0 days 00:00:02.964279957,2.26002103075,4.48893523225,8.606385231250002,0.0383317647475,-0.02580903657,-0.031994043382500004
0 days 00:00:02.984279957,2.3234307765,4.457828522,8.5543408395,0.017511457239666666,-0.002596175221,-0.027310746723333335
0 days 00:00:03.004279957,2.279163599,4.47338187675,8.627920389500002,0.0053450667185,0.014355322345000001,-0.0232892201775
0 days 00:00:03.024279957,2.3082763351666666,4.508476734166667,8.556334972666667,0.010079268599,0.0044287695205,-0.011835504788
0 days 00:00:03.044279957,2.4023939965,4.52123856525,8.564510584250002,-0.00351247237975,0.01191186255775,-0.011835505024
0 days 00:00:03.064279957,2.3635106085,4.558925509249999,8.58245682725,0.0033597561995,0.002138026524,-0.0190131657275
0 days 00:00:03.084279957,2.266003013,4.540380955,8.581858635000001,0.024740024083166667,-0.007686714949666666,-0.016518801448333332
0 days 00:00:03.104279957,2.2331017855,4.4949173925,8.3964147565,0.01221729558725,0.015271619895000001,-0.012293653564
0 days 00:00:03.124279957,2.2301106848333334,4.510071992666667,8.407979964833334,-0.0161879169755,0.023060145785,-0.006032289471499999
0 days 00:00:03.144279957,2.2683959005,4.5457646845,8.488538503250002,-0.029016077055,0.0276416311975,-0.005268708570000001
0 days 00:00:03.164279957,2.35094833375,4.61814773075,8.5567338465,-0.03619373683,0.0207694023875,-0.02038761181525
0 days 00:00:03.184279957,2.322234392,4.613362074,8.650053978,-0.04204785761666666,0.029270603945,-0.03586285375
0 days 00:00:03.204279957,2.30069893575,4.551148534,8.72004389775,-0.035888304935000004,0.049785478970000005,-0.042531458662499994
0 days 00:00:03.224279957,2.2432712316666668,4.482554515333334,8.6548391975,-0.006719512396999999,0.06001746282,-0.04146244563
0 days 00:00:03.244279957,2.174477637,4.487738967,8.462815523,0.014660754941500001,0.05558869336,-0.0321467588625
0 days 00:00:03.264279957,2.1816560029999996,4.55832695975,8.412566184750002,0.0198531053,0.034513859545,-0.0290924347925
0 days 00:00:03.284279957,2.121237278,4.5595235825,8.4526462555,0.0166969706165,-0.005345067009999999,-0.027310746410000003
0 days 00:00:03.304279957,2.08594316225,4.4691946505,8.54476976375,-0.005803215230749999,-0.039400778715,-0.01198822178725
0 days 00:00:03.324279957,2.16670088,4.4937208495,8.740183512,-0.031459535475,-0.0221438486199,0.007101303200499999
0 days 00:00:03.344279957,2.267797649,4.504488706250001,8.704490423,-0.0387899139925,0.04321868233005,0.01244637021
0 days 00:00:03.364279957,2.3078774217499998,4.5559341907499995,8.525029182499999,-0.0328339827275,0.06291907001,0.00939204590425
0 days 00:00:03.384279957,2.25403893,4.5702910425,8.401200771500001,-0.015678862576833333,0.02112573974833333,0.0023161955665166665
0 days 00:00:03.404279957,2.246860504,4.532604098249999,8.50528788575,-0.00794124213275,-0.023060144395,-0.001450803843925
0 days 00:00:03.424279957,2.2488545178333332,4.532005945833333,8.623732884833332,-0.0015271619486999998,-0.020922117869999996,-0.005726857111
0 days 00:00:03.444279957,2.2169501182499998,4.4751764532500005,8.5920281415,-0.01435532166235,0.014202606400000001,-0.006337721832250001
0 days 00:00:03.464279957,2.20917350075,4.4805603025,8.57707262075,-0.0248927390225,0.028405212795,-0.004352411488
0 days 00:00:03.484279957,2.2145572905,4.5332026485,8.5411806105,-0.027488914318333335,0.024281875228333333,-0.0008399390741666668
0 days 00:00:03.504279957,2.19840580225,4.523033023249999,8.589635134000002,-0.02122755068925,0.0077885258925,0.0005345066965499999
0 days 00:00:03.524279957,2.171885371166667,4.520041863,8.600203514166667,-0.007941242307,-0.026725334115,0.0067958704874999986
0 days 00:00:03.544279957,2.23669087875,4.500301241500001,8.58305478075,-0.023060144856750002,-0.01634063292225,0.011224640535
0 days 00:00:03.564279957,2.24566406,4.530211329249999,8.613563298999999,-0.0335975615275,0.01908952416925,0.007254019380500001
0 days 00:00:03.584279957,2.224128723,4.546363114999999,8.539984226000001,-0.025961753286666667,0.03151044218666666,0.0004836012959333333
0 days 00:00:03.604279957,2.23848563425,4.55892539025,8.4646098615,-0.0207694033125,0.0097738364675,-0.0058795735235
0 days 00:00:03.624279957,2.221337080333333,4.531208674166667,8.583852608833334,-0.02199113276,-0.01878409181,-0.011835505254999998
0 days 00:00:03.644279957,2.19362026475,4.49850678425,8.64885735525,-0.02138026804,-0.01069013367,-0.00908661366
0 days 00:00:03.664279957,2.2372892495000003,4.47936415675,8.626723527500001,-0.0282524968525,0.0135917417925,-0.0057268572275
0 days 00:00:03.684279957,2.2301107645,4.512863636,8.6153578755,-0.025350887951666665,0.018682281566166668,-0.0049123708161666665
0 days 00:00:03.704279957,2.246262312,4.528416991499999,8.607581377,-0.012675443897250002,-0.0004581486577500001,-0.00496327620925
0 days 00:00:03.724279957,2.2149561248333334,4.5192444326666665,8.634500662166667,-0.008552107029,-0.0044287698184499995,-0.008781181183000001
0 days 00:00:03.744279957,2.20079857125,4.5116672515000005,8.608179092,-0.008552107029,0.007635809536275,-0.01122464053
0 days 00:00:03.764279957,2.2043878437499997,4.49611389625,8.53639459575,-0.013133593134749998,0.012980876725,-0.015042545037499999
0 days 00:00:03.784279957,2.143969059,4.449453592499999,8.539984226000001,-0.014253511865999999,0.004225148199,-0.013464477633266666
0 days 00:00:03.804279957,2.1427727342500003,4.445864558,8.527421951500001,-0.0096211202895,-0.01130099850775,0.0011453714760500003
0 days 00:00:03.824279957,2.1838494538333335,4.487738847666667,8.546763578833334,-0.020463969555,-0.001374445856,0.003741546767
0 days 00:00:03.844279957,2.1816560625,4.4757746457500005,8.5962154865,-0.018020511135,0.005345067009,-0.00282524956825
0 days 00:00:03.864279957,2.16849547625,4.4566322565,8.575278044,-0.01542433607,-0.001069013262,0.0014508038875
0 days 00:00:03.884279957,2.2731814385,4.4997029305,8.5962152485,-0.03084867214666667,0.005650499059499999,0.0037415467278333336
0 days 00:00:03.904279957,2.2450658682499998,4.50329220275,8.65842843075,-0.04062250908,0.025961752515,-0.00710130319925
0 days 00:00:03.924279957,2.1523439885,4.4989052615,8.675577481666666,-0.020158537894,0.0157297679705,-0.004810560145499999
0 days 00:00:03.944279957,2.0721843242499998,4.4697926045,8.639286040999998,0.005803215433750001,-0.01420260558725,0.005726857169
0 days 00:00:03.964279957,2.03808671225,4.41894531275,8.59621524825,0.00015271623850000035,-0.0239764428725,0.01519526122225
0 days 00:00:03.984279957,2.0985054969999997,4.415954113,8.644072056,-0.021991132333166668,-0.010639228236666666,0.027158030311666664
0 days 00:00:04.004279957,2.23070895675,4.4255253075,8.62014365175,-0.0471893036725,0.023212861735,0.025274530055
0 days 00:00:04.024279957,2.2919253506666664,4.439483642333333,8.642476399833333,-0.048258317635,0.04382954724500001,0.01748600416
0 days 00:00:04.044279957,2.29471683525,4.41954326625,8.56331419975,-0.0172569295375,0.0190895237025,0.0092393297235
0 days 00:00:04.064279957,2.26959228525,4.421936273749999,8.565706968499999,0.001985310461,0.00412333713,0.00908661331025
0 days 00:00:04.084279957,2.2767707109999997,4.4315075875,8.5998044015,0.012420917008,-0.010435606760333333,0.006083195097833334
0 days 00:00:04.104279957,2.2067807315000003,4.365704894249999,8.72722268075,0.013897174035,-0.025350887795,0.009544762318
0 days 00:00:04.124279957,2.2480568093333333,4.3661036495,8.743373711833334,0.007024944873999999,-0.0087048227455,0.025427246469999998
0 days 00:00:04.144279957,2.2319052815,4.4362932445,8.64167881025,-0.008093958193,0.01572976854975,0.035811948122500006
0 days 00:00:04.164279957,2.2037897109999998,4.465006828,8.572287082999999,-0.0198531057675,0.0172569295375,0.04405862372
0 days 00:00:04.184279957,2.1690937285,4.4673998355,8.553144455,-0.018427753666666668,0.014304416563333333,0.048232865831666666
0 days 00:00:04.204279957,2.15772777775,4.45364129525,8.496315002750002,-0.0142026061675,-0.0184786594475,0.050930852067500004
0 days 00:00:04.224279957,2.2089741628333335,4.467798709499999,8.60139974,-0.023518294095,-0.03283398133,0.047112945465
0 days 00:00:04.244279957,2.19840580225,4.43629324425,8.68833875675,-0.031917684245,-0.0238237255275,0.041004298255
0 days 00:00:04.264279957,2.2049859764999997,4.38903486725,8.7367937565,-0.0317649683,-0.0027488913625,0.037797258235000006
0 days 00:00:04.284279957,2.2002004385,4.3944187165,8.679964066,-0.015067997583166667,0.0114537147655,0.03744092086666667
0 days 00:00:04.304279957,2.2761726377500002,4.43748974775,8.57647466675,-0.00534506671925,0.00778852589425,0.0355065152975
0 days 00:00:04.324279957,2.3206392523333332,4.491328239333333,8.629316011833332,-0.01252272772,0.0071776609399999995,0.02664897591
0 days 00:00:04.344279957,2.23728919,4.4368914365,8.751150369249999,-0.00320704002,-0.012675444477,0.029245150742500003
0 days 00:00:04.364279957,2.2642084957499997,4.3878384829999995,8.7583289145,0.0018325943384999998,-0.02901607705,0.03794997465
0 days 00:00:04.384279957,2.2504496575,4.360919237,8.732606411,-0.00030543239933333334,-0.016340632555166667,0.042836891485
0 days 00:00:04.404279957,2.2761725779999997,4.377070904,8.665607214249999,-0.00519235071225,0.008399390876749999,0.0406988654275
0 days 00:00:04.424279957,2.2871396935,4.398406903166666,8.597012678833332,-0.0116064310985,0.045662142334999996,0.031841326505
0 days 00:00:04.444279957,2.280958116,4.35493731525,8.5483589175,-0.0207694030825,0.08063415065749999,0.0184023007725
0 days 00:00:04.464279957,2.268395901,4.3244289160000005,8.493323803,-0.021227551155,0.07849612273499999,0.015195261217500002
0 days 00:00:04.484279957,2.288734913,4.3537409305,8.4777708055,-0.020463969558333333,0.03914625205166666,0.01891135579333333
0 days 00:00:04.504279957,2.309073925,4.35792815725,8.55015349375,-0.0267253341175,-0.005039634300000002,0.0216093412625
0 days 00:00:04.524279957,2.2644078733333335,4.341377735333333,8.678767840333334,-0.023518293165,-0.04352411535,0.02237292286
0 days 00:00:04.544279957,2.203789711,4.31605398625,8.745168209,-0.0138971733425,-0.04856375046,0.02176205814
0 days 00:00:04.564279957,2.21096813675,4.25802791125,8.665008783249998,-0.02183841611,-0.0134390252635,0.027259840627499997
0 days 00:00:04.584279957,2.2384855745000003,4.3106698990000005,8.4693956375,-0.03624464291666667,0.021329361941999997,0.028074326923333334
0 days 00:00:04.604279957,2.224726856,4.354339003750001,8.4550390245,-0.048258318565,0.016646065279999997,0.0263435435475
0 days 00:00:04.624279957,2.1734805905,4.3489553135,8.604590256833333,-0.033292129635,-0.03344484605,0.02176205814
0 days 00:00:04.644279957,2.17507582925,4.28075981175,8.720044135750001,-0.0316122518825,-0.0633772229775,0.024052800142499997
0 days 00:00:04.664279957,2.2031913995,4.290331006,8.8121676445,-0.0418442375975,-0.0423023859075,0.02481638081
0 days 00:00:04.684279957,2.242074847,4.328616380500001,8.7230348585,-0.046018480631666664,0.023467388623333335,0.013719004110000002
0 days 00:00:04.704279957,2.2253249879999997,4.37587463875,8.563912153499999,-0.038484480235,0.0500909118,-0.0089338973625
0 days 00:00:04.724279957,2.2325034938333332,4.3593241375,8.667999903333333,-0.018020510907999998,0.007788525894999999,-0.02038761228
0 days 00:00:04.744279957,2.3192433715,4.3280178307499995,8.81874799725,0.007941241961,-0.028099779039999998,-0.014889829095
0 days 00:00:04.764279957,2.3665016889999997,4.3651068209999995,8.834300995,0.00809395813925,-0.0232128608075,-0.009392045671999999
0 days 00:00:04.784279957,2.3210380075,4.3597228525,8.806783676,-0.0025452698658333336,0.0033088511163333334,-0.005014181564166667
0 days 00:00:04.804279957,2.2450658079999997,4.35074973125,8.72542762725,0.0053450667185,0.01007926909525,-0.00267253344625
0 days 00:00:04.824279957,2.254437724833333,4.3700915973333325,8.672785441,0.01771507878,-0.00473420223,-0.011224640299
0 days 00:00:04.844279957,2.2666012049999997,4.35374069225,8.6829550265,0.0227547129625,-0.014049890452750001,-0.0234419363575
0 days 00:00:04.864279957,2.283949196,4.36510658225,8.73200798025,0.026419901755,-0.0183259430325,-0.02771798987
0 days 00:00:04.884279957,2.322234392,4.4111685750000005,8.703892231,0.025452699513333333,-0.006566796452,-0.030059637501666667
0 days 00:00:04.904279957,2.371287227,4.4374895095,8.6703927515,0.0213802680325,0.0183259434975,-0.040088001639999996
0 days 00:00:04.924279957,2.3078775009999997,4.377669096333333,8.637292385333334,0.032986697739999994,0.016646065285,-0.060704685744999994
0 days 00:00:04.944279957,2.1990039945,4.227519274,8.5884389875,0.0487164650125,0.00351247240925,-0.0739909932025
0 days 00:00:04.964279957,2.29112768175,3.7926238775,8.57049274425,0.0453567085775,-0.013133592350249999,-0.07261654920749999
0 days 00:00:04.984279957,2.665604472,2.58065927,8.88694334,-0.006312269678733336,0.05350157370066667,-0.06223184987833333
0 days 00:00:05.004279957,2.3976083399999997,1.75274264825,9.093922615,-0.1123991180175,0.5009091124,-0.090789776285
0 days 00:00:05.024279957,1.4751752022333333,1.7910277646666668,8.620143731333334,-0.22785256055000003,1.0612248184,-0.12209659815
0 days 00:00:05.044279957,0.808774068975,2.0805592835,8.388039350249999,-0.19944734867500002,1.1468986270000001,-0.041615162755
0 days 00:00:05.064279957,0.7926224768250001,2.7954150440000003,8.2217383385,-0.0977383665675,0.8811724632,0.10621411326499999
0 days 00:00:05.084279957,0.9535398186,4.427918314999999,7.7958161829999995,-0.03156134765733334,0.47316567103333335,0.31843872121666666
0 days 00:00:05.104279957,1.412363589,6.293721914,7.6193455455,-0.16844596713249999,0.1817322671,0.54557861385
0 days 00:00:05.124279957,2.8015965025000003,8.913663070166665,8.066603819500001,-0.55283263325,0.29184064265,0.8369611203499999
0 days 00:00:05.144279957,5.4915280345,11.2008025675,9.1633143425,-0.8135191500000001,0.3611737862,0.743956968175
0 days 00:00:05.164279957,6.649654150249999,12.030514,9.634700774999999,-0.6950114071,-0.026725336899999994,0.05062542854999999
0 days 00:00:05.184279957,5.1696932315,9.653842925,10.0223379145,-0.44562586148333333,-0.6314814537500001,-1.0136537752166668
0 days 00:00:05.204279957,2.8301109672500004,5.7894345524999995,10.8622183775,-0.23625194657499998,-0.9980003385499999,-1.74272087225
0 days 00:00:05.224279957,0.3537389437666667,1.7268203695333335,12.56830104,-0.05375610292499999,-0.9103412626499999,-1.88932842
0 days 00:00:05.244279957,-1.44945231075,-1.09710916885,13.078570605,0.3312414251125,-0.305432394175,-1.4705805775
0 days 00:00:05.264279957,-0.9768698513999999,-1.441077441275,11.723036050000001,0.6330086216499999,0.26099196817500003,-1.03060521175
0 days 00:00:05.284279957,-0.2967100201565,0.05024927855000002,8.98265624,0.8116356929166667,0.6002255628333333,-0.6071232209499999
0 days 00:00:05.304279957,0.40498523122175,1.57387909305,7.03908598425,0.813213765625,0.468533299875,-0.38125599174999997
0 days 00:00:05.324279957,0.8681957920333333,2.5970101555,6.154738664666667,0.6853902935999999,0.149814587075,-0.2656498253
0 days 00:00:05.344279957,1.03669039905,3.4061829445000003,5.876772284499999,0.50258900225,-0.12400555051249999,-0.14546217765
0 days 00:00:05.364279957,1.23768752825,3.948755503,6.06281435525,0.3575086072,-0.2762635872,-0.053679743772499997
0 days 00:00:05.384279957,1.5684952139999997,4.368097543499999,6.5455663205,0.16075924770483332,-0.3744092037333333,-0.0059304790535666665
0 days 00:00:05.404279957,1.610369623,4.6151566504999995,7.3028945922499995,-0.05955931615325,-0.3486510664,-0.010766491760749999
0 days 00:00:05.424279957,1.4791632098333334,4.863411983166667,8.118448098333333,-0.28741187604999996,-0.1907425225,-0.0396298524
0 days 00:00:05.444279957,1.37886405,4.9902315142500004,8.9222371575,-0.414471760425,-0.12308925579999999,-0.078572480935
0 days 00:00:05.464279957,1.4027923047500002,4.93639302225,9.54556751225,-0.42058040947499997,-0.141262481,-0.1107955984875
0 days 00:00:05.484279957,1.3567304615,4.6600222585,10.150353431500001,-0.3551160643666667,-0.12853613061166666,-0.10977748904166666
0 days 00:00:05.504279957,1.377069473,4.53798830525,10.442875860000001,-0.231365043675,0.001985310572500003,-0.06375901122
0 days 00:00:05.524279957,1.3016955455,4.5834516685,9.8915298775,-0.064751664041,0.12721258775,-0.03168861009
0 days 00:00:05.544279957,1.1688938439999998,4.586442827999999,9.026325226,0.062460922697,0.1122464016,-0.016569707077500002
0 days 00:00:05.564279957,1.2305090722499998,4.53619349,8.573483467500001,0.10766491854749999,0.033597562225,-0.0026725333886999996
0 days 00:00:05.584279957,1.399801254,4.5726840499999994,8.427521229,0.10791944342666666,-0.034157523111666664,-0.0010435606813333333
0 days 00:00:05.604279957,1.407577872,4.6594238285,8.41974496875,0.063377219715,-0.03176496993175,-0.0132099511075
0 days 00:00:05.624279957,1.3495519756666665,4.673182726166666,8.605387847000001,0.0048869187,0.0080939582565,-0.024052800609999998
0 days 00:00:05.644279957,1.2305090129999998,4.54277360425,8.76789999,-0.016951497645,0.00397062105265,-0.0280234213
0 days 00:00:05.664279957,1.18085798625,4.44466793575,8.81456017475,-0.01740964642,-0.01725693065745,-0.01259908604
0 days 00:00:05.684279957,1.322034478,4.3788654805,8.902496815,-0.021889321198333336,-0.014609849078333334,0.0034361144063333334
0 days 00:00:05.704279957,1.3824532332500001,4.3345983025,8.891728877999999,-0.027336199305,0.0161879165075,0.007712167687250001
0 days 00:00:05.724279957,1.4009976585,4.2620158990000006,8.810771941833332,-0.027794348075,0.03894262947,0.0138208158305
0 days 00:00:05.744279957,1.41475635775,4.28315246075,8.732007742,-0.00351247249525,0.036041021349999994,0.030925030354999997
0 days 00:00:05.764279957,1.44526484625,4.35433888425,8.6267237665,0.02977965737075,-0.004428769462500001,0.045280353167499995
0 days 00:00:05.784279957,1.5397813915,4.431507587,8.602197169999998,0.051007209341666665,-0.063682651765,0.05759945822166667
0 days 00:00:05.804279957,1.4925231635,4.4584267135,8.72303485875,0.059559315439999996,-0.1039997301925,0.0571922156925
0 days 00:00:05.824279957,1.3922239736666668,4.405984163166667,8.701499780333334,0.063529936595,-0.1421787813,0.065133458
0 days 00:00:05.844279957,1.3507484195000001,4.35433900375,8.71824955975,0.0500909117975,-0.15699224914999999,0.0753654409225
0 days 00:00:05.864279957,1.3519447745000002,4.384847641,8.676375150750001,0.0313068199925,-0.161726444975,0.0860555749375
0 days 00:00:05.884279957,1.60678035,4.241278171499999,8.9527459145,0.02433277976833333,-0.15388702103333332,0.11827869092666667
0 days 00:00:05.904279957,1.176072314275,4.0205401182500005,8.900701999749998,0.07437278516750001,-0.1464548297,0.17050763222499998
0 days 00:00:05.924279957,0.25284159432333336,3.743570924166667,7.892725626833332,-0.004581484939999996,-0.13607013225,0.46372273565
0 days 00:00:05.944279957,0.4887340367,3.74237465875,7.641479254,-0.2177732866425,-0.16783509775,0.781219720875
0 days 00:00:05.964279957,0.666401125475,3.6478580234999995,8.346165418750001,-0.320245847125,-0.14080433544999998,0.9322560131750001
0 days 00:00:05.984279957,0.07298108935000001,3.0125637055,8.774480343,-0.36193738384999996,0.06582067908,1.2293399077833334
0 days 00:00:06.004279957,-0.380458794525,2.6356941462499996,8.352147341,-0.42653634402499996,0.31612251702499994,1.6773582995
0 days 00:00:06.024279957,-0.1511466317,2.9547372258333326,8.0849490165,-0.53114694355,0.3868301213,2.117944598
0 days 00:00:06.044279957,0.19561325202500002,2.83788770425,8.478967189999999,-0.6101012080499999,0.39981099965,2.47560584525
0 days 00:00:06.064279957,0.515055082775,3.02034038325,8.495716571749998,-0.6178897321,0.32925611732500004,2.7113996147500004
0 days 00:00:06.084279957,1.09710919855,3.2590243814999997,8.7242312435,-0.5191332747166667,0.06592249000333333,2.8740933336666665
0 days 00:00:06.104279957,1.887338787,2.7996025087499996,8.96710252775,-0.387593708925,-0.086590085175,3.0053783655
0 days 00:00:06.124279957,2.6508486270000002,2.4147568546666665,9.341180642833335,-0.40042185785,-0.02733619977,3.0748641494999998
0 days 00:00:06.144279957,3.278765321,2.100300074,10.089934587000002,-0.4343248606,-0.04459312977,3.0678392055000003
0 days 00:00:06.164279957,4.13479757325,2.052443564,11.188838480000001,-0.3371973559,0.08689551430499999,2.94536083925
0 days 00:00:06.184279957,4.600201607,2.013560295,11.554940700000001,-0.08715003976666665,0.001679878066666668,2.717304746
0 days 00:00:06.204279957,3.24227464225,0.863808959725,10.40818047475,0.11392627936250001,0.291382498195,2.48644882475
0 days 00:00:06.224279957,4.805186748333334,1.0117652022166668,8.845866521,-0.156075956275,0.94699311275,2.3696209195000004
0 days 00:00:06.244279957,6.486942053,1.5738791230000002,7.654639840250001,-0.1704312712,0.8379537612,1.8661155697499998
0 days 00:00:06.264279957,7.41595542425,1.75633186125,6.328417658500001,-0.44409867375000006,0.8910990059249999,1.2806016804999998
0 days 00:00:06.284279957,5.4484570025,1.6342978475,9.783055305,-0.5212712585666667,0.9942333051833332,0.9672789475
0 days 00:00:06.304279957,5.000999331499999,2.73439797775,9.4366941455,-0.183412140275,0.20341797170000003,0.8137482404749999
0 days 00:00:06.324279957,2.465006133333333,1.9274186491666667,9.270991484666666,0.17104214055,-0.3455967456,0.62896162275
0 days 00:00:06.344279957,-0.4839483794999999,1.0217352883,10.1431748875,0.31199918315,-0.0800232831425,1.0965786727
0 days 00:00:06.364279957,2.175674021,0.267397917825,10.4757771515,0.21762058137499998,0.5244274009025001,2.1484877767499997
0 days 00:00:06.384279957,3.7794634105,0.69391855585,8.450253009999999,-0.29810200631666667,0.8805106679833333,2.4806963603333334
0 days 00:00:06.404279957,3.6514473555,2.272583216,10.582856653499999,-0.634841233525,0.889877274625,2.2482115032500003
0 days 00:00:06.424279957,3.358326514333333,0.60498530655,9.364311376833333,-0.81947508465,0.7539598643500001,1.8228968385000002
0 days 00:00:06.444279957,2.240878433,-0.120837539375,9.56829929275,-1.7934989629999998,0.645073220125,1.7389029265
0 days 00:00:06.464279957,1.7383856770000001,-1.81734880775,10.9639132,-2.0098978875,0.75411257145,1.973780513
0 days 00:00:06.484279957,1.6689938305,-1.9381862875,10.0283198335,-2.3150757548333334,0.8430442810000001,2.4074944261666666
0 days 00:00:06.504279957,2.16490623325,-1.89032989725,10.03310537425,-2.6644394394999997,0.7098248601,2.26989716325
0 days 00:00:06.524279957,2.058625022833333,-3.1174490851666667,10.841879210000002,-2.7690500025,0.613460958,1.8968114855
0 days 00:00:06.544279957,1.76709947,-3.9852460027500003,11.353344915000001,-2.481485486,0.6783653199749999,1.80869424325
0 days 00:00:06.564279957,1.392622739,-3.8530427217499996,10.021141052499999,-2.28585594875,0.805730625975,1.8497748672499998
0 days 00:00:06.584279957,1.4955141545000001,-3.85244441,8.895318031499999,-2.1588978766666664,0.6442078302166666,1.7890956995
0 days 00:00:06.604279957,1.15334054825,-4.4907298685,8.984450579,-1.9949315785000001,0.449596472125,1.57381674625
0 days 00:00:06.624279957,0.38723847273333334,-5.242674509666667,9.1537429495,-1.777005613,0.5074759126,1.521435082
0 days 00:00:06.644279957,-0.474377080775,-5.86779916275,8.6177504065,-1.75974875725,0.7545707374749999,1.6568943265
0 days 00:00:06.664279957,-0.751346290125,-6.273382664,8.233702659750001,-1.95476737625,1.0367902216,1.820911497
0 days 00:00:06.684279957,-0.9332008361,-6.813562393000001,7.800601721,-2.2873831195,1.4226531183333335,1.9836561478333332
0 days 00:00:06.704279957,-1.40219408275,-7.073782086,7.24008297925,-2.6650503875,1.7887647747500002,2.1466552615
0 days 00:00:06.724279957,-1.5968103206666668,-6.979464769500001,7.2111697196666675,-2.961167097,2.0065380335,2.2908192869999997
0 days 00:00:06.744279957,-1.632503241,-6.79382169225,6.8482584955,-2.9773548842499995,2.101069331,2.25722169875
0 days 00:00:06.764279957,-1.60737863175,-6.476772785,6.374479651250001,-2.7204862835,2.0549491645,2.079460025
0 days 00:00:06.784279957,-2.1236300470000002,-6.498906374000001,5.426921844500001,-2.186386903166667,1.7659591835000004,1.767919024
0 days 00:00:06.804279957,-2.9126632812500004,-6.58026242225,4.9657053950000005,-1.726151168,1.338557422,1.490891814
0 days 00:00:06.824279957,-3.4301113290000003,-7.08115983,4.667998313666666,-1.4694352149999999,0.9833395780000002,1.2660936115
0 days 00:00:06.844279957,-3.99661213175,-7.71745109575,4.8335016965,-1.3474149705,0.7202095687000001,1.1475858095000002
0 days 00:00:06.864279957,-4.4913281199999995,-8.108677625750001,5.088935375,-1.36513003725,0.649349272225,1.089859128
0 days 00:00:06.884279957,-4.7641098495,-8.72064209,4.791627407,-1.6449570658333332,0.84202618405,1.1272236900000001
0 days 00:00:06.904279957,-5.507081389250001,-8.65603613825,4.9680980442500005,-1.839924753,1.18049618625,1.4313324985
0 days 00:00:06.924279957,-4.880161722333334,-7.419345299500001,4.9359941485,-1.6420045495,1.5599959495,1.7706679105
0 days 00:00:06.944279957,-3.49471741875,-7.135995269,4.3728833795,-1.3501638470000001,1.5409063992499998,1.675678402
0 days 00:00:06.964279957,-3.5850465294999996,-6.81834816925,2.9012974204999997,-1.6470441522500001,1.2571597097499998,1.395749688
0 days 00:00:06.984279957,-4.6432724,-7.4153573515,2.340180576,-2.4393866061666665,0.4706204123833333,1.2159008980000001
0 days 00:00:07.004279957,-6.38345241525,-7.17786979675,4.051048815250001,-2.7349943515,0.25106542745,1.3251948057499998
0 days 00:00:07.024279957,-6.965506712499999,-6.879365046666667,5.392624537166667,-2.3884813785,0.95859956765,1.4542399645
0 days 00:00:07.044279957,-7.002595544,-7.653443217,4.085146427,-1.870162547,1.470504284,1.587408483
0 days 00:00:07.064279957,-8.083553076000001,-6.48395133,4.2520457505,-1.2371538877500001,2.1403174105,1.53472137425
0 days 00:00:07.084279957,-8.4239320755,-5.498706579499999,2.6823541520000003,-0.5229002436,2.654360254666667,1.5078942375000002
0 days 00:00:07.104279957,-7.05224633175,-4.67856645625,-0.24227330090000004,-0.477390825775,2.6957463622500004,1.3433680235
0 days 00:00:07.124279957,-8.350551922333333,-3.8620158036666665,-2.2560330228666667,-1.22447842365,2.1467315555,1.056261599
0 days 00:00:07.144279957,-10.0827565175,-5.77806842325,-0.59521463475,-2.004094601,1.52899453075,1.5800781545
0 days 00:00:07.164279957,-8.121240258,-5.990431309,1.5655041786250001,-2.03540140375,1.52731463325,2.0049346085
0 days 00:00:07.184279957,-5.8133625984999995,-5.8719866275,0.3649054691,-1.2382229317833333,1.473151306,1.757228871
0 days 00:00:07.204279957,-5.25882601775,-4.0935213565,-0.41036908702499997,-0.17837252467500003,1.0923789591,0.838793657575
0 days 00:00:07.224279957,-6.2843497594999995,-2.855036179166667,0.37168509761666674,0.7000510396999999,0.55237448215,-0.11934770645
0 days 00:00:07.244279957,-5.84387111675,-2.40658128225,-0.43310089397500007,1.19637870775,0.952032759725,-1.0564143060500002
0 days 00:00:07.264279957,-5.9401822090000005,-3.66999161225,-3.81954312275,1.01556269815,1.50883603125,-1.5321252345
0 days 00:00:07.284279957,-8.470592259999998,-7.057630062,-5.6386866565,0.5316559870833333,1.13961916695,-1.4513383411499998
0 days 00:00:07.304279957,-9.3266243935,-9.415158987249999,-2.25882461625,0.7108938843249999,-0.5282453224,-0.17646357420000003
0 days 00:00:07.324279957,-7.609973589833333,-6.688737074666666,1.8959131834666667,1.5485422015,-0.3327685967,1.15522167095
0 days 00:00:07.344279957,-7.548158884,-4.811368108,-0.32183462390000006,2.152992874,0.32727080955,1.412548453
0 days 00:00:07.364279957,-6.2309100625,-3.89252418275,-2.963510752,1.9259038862500002,0.2255618237,1.270216942
0 days 00:00:07.384279957,-6.698706864999999,-4.0761734245,-1.963310957,1.3361649115,-0.15734858563333332,1.1754820344999999
0 days 00:00:07.404279957,-7.3980094195,-3.90628302075,-0.2380858472925,1.1864520905,-0.615598991525,1.3797144592500001
0 days 00:00:07.424279957,-7.516653696833333,-3.107478976,1.1884352740016666,1.6273437739999999,-1.0685552062,1.5696933865
0 days 00:00:07.444279957,-6.76211690875,-2.17866499715,1.29092779755,2.09664067625,-1.61130860475,1.8641302287500001
0 days 00:00:07.464279957,-5.59082996825,-0.5018945298999999,2.84865528325,2.4802636507500004,-1.8808526995000001,1.89192459
0 days 00:00:07.484279957,-5.0380880835,0.1411765367,2.3006989955,3.0294820068333332,-2.318486353,1.6376012566666667
0 days 00:00:07.504279957,-5.606981635,-0.0430708099075,2.5423741342499997,3.3977826240000004,-2.6288565997499997,1.69812774675
0 days 00:00:07.524279957,-7.171688159333333,-0.5706882092350001,3.237887859166667,3.4626870155000002,-2.2747077945,2.3830598595
0 days 00:00:07.544279957,-7.93519830675,-1.1766705515,2.51007086075,3.37365353125,-1.4761547744999999,3.4248897434999996
0 days 00:00:07.564279957,-8.95813012,-1.0139585660250001,1.75633178685,3.1651958227500003,-0.7428115904499999,4.079431236
0 days 00:00:07.584279957,-11.712866779999999,0.10169495645,0.039481565399999974,2.3259693980000002,0.26211190225000003,4.331616560666666
0 days 00:00:07.604279957,-13.0929269775,0.41694934667499994,0.007776677625000006,1.25761786105,1.113759219575,4.0331584815
0 days 00:00:07.624279957,-14.049458188333332,-1.6378871301833333,0.29631119475,0.6334667802,1.535255909,3.6054003239999997
0 days 00:00:07.644279957,-13.9842536425,-2.28454738875,0.7064808423,0.40149086712500004,1.5050180855,3.4878088830000005
0 days 00:00:07.664279957,-14.0967161675,-0.6634100675000001,-0.39541393160000005,0.051465356715,1.6171118022500002,3.04462635525
0 days 00:00:07.684279957,-16.009179595,1.089930713,-0.56111689305,-0.51546806218,1.9734495478333332,2.0580798385
0 days 00:00:07.704279957,-17.340188025000003,0.36311083665,1.0283155049750001,-0.564439043375,2.43948841075,1.3331360220000001
0 days 00:00:07.724279957,-16.043876015,0.015154543033333323,0.06859424833666666,-0.23212862015000002,3.0480625630000002,1.2575414775
0 days 00:00:07.744279957,-13.9914321925,0.68614190805,-0.8919246196749999,-0.20357069,3.08624154325,1.19614958775
0 days 00:00:07.764279957,-12.817154882499999,1.65583327375,-0.82432740185,-0.262671861775,2.6207626459999998,0.831921473225
0 days 00:00:07.784279957,-12.494123459999999,2.264806628,-0.177068881695,-0.5557851394500001,1.9468770023333333,0.2195804343
0 days 00:00:07.804279957,-12.497712852500001,1.9082761110000002,-0.16689937564750001,-1.52166414275,1.5389211175,-0.202272597675
0 days 00:00:07.824279957,-11.796216648333333,2.932005385833333,3.0544381366,-2.4272711275,1.4329360719999997,-0.16638429461
0 days 00:00:07.844279957,-10.779067996750001,5.27318286875,3.9092740420000003,-2.06609734875,1.5450297295,0.0362700968975
0 days 00:00:07.864279957,-9.125029445,6.0454665425,3.0993035435000005,-1.2797617315,1.359174162,-0.0836121141825
0 days 00:00:07.884279957,-7.647461176,6.406782626999999,1.630708605,-0.037670002298000015,0.6700677792249999,-0.7314342110333333
0 days 00:00:07.904279957,-7.3974112275,5.19960367675,-1.569691643,0.852614507075,-0.14996730373749997,-1.2367720599999998
0 days 00:00:07.924279957,-8.139584938833334,3.8472600378333333,-3.1397821905,0.93951001765,-0.64003357295,-1.1385756135
0 days 00:00:07.944279957,-9.1621177195,2.707478881,-3.20040035225,1.1950041798750002,-0.7301361114,-0.778776258275
0 days 00:00:07.964279957,-9.05803036675,1.75513547695,-3.11665153475,1.72355496875,-0.791528046125,-0.6978366375
0 days 00:00:07.984279957,-9.9015002265,-0.6041877270999999,-2.781656265,2.3132431705,-0.9670498271,-1.0776926875166666
0 days 00:00:08.004279957,-12.1968154925,-3.8285163645000004,-3.50548517725,1.98928120725,-0.93309591685,-1.1888192000000002
0 days 00:00:08.024279957,-12.553146205,-4.093720833166667,-2.854637484,0.12400552629999999,-0.37003134190000003,-0.8664353191999999
0 days 00:00:08.044279957,-10.04387283325,-3.9158542155000005,-0.68015980725,-1.65009851785,-0.191353391875,-0.50465065985
0 days 00:00:08.064279957,-6.81715166525,-2.198405728,1.90468683825,-2.01493749025,-0.445015009475,-0.277256246675
0 days 00:00:08.084279957,-4.7330031395,0.305084914,4.1826540235,-1.3484839798333332,-0.9395609399000001,-0.5489892736166667
0 days 00:00:08.104279957,-6.139384508,3.501297921,6.09272468075,-0.260228395475,-1.2136355937499999,-0.8989638687
0 days 00:00:08.124279957,-7.002595504333333,3.7443687123333333,3.8340996004,1.2147046325500002,-1.5022692080000002,-0.9919680357999999
0 days 00:00:08.144279957,-7.3232336042499995,2.2642084884,-0.63948185745,1.69820407,-2.51248687475,-1.2563197611499999
0 days 00:00:08.164279957,-9.530014276500001,-0.4181457385500001,-1.1641082167499999,1.50929412275,-2.8625122905000002,-1.3649009765
0 days 00:00:08.184279957,-9.323633193500001,-3.171686411,-0.81595252455,1.0066033749833334,-2.6184209186666667,-1.3436225253333334
0 days 00:00:08.204279957,-9.60718297975,-2.535195649,2.9347969067250004,0.469907723375,-2.052658379,-1.39788767675
0 days 00:00:08.224279957,-10.107282956666667,-4.186641971333333,6.315456707833334,0.8381064833999999,-1.3596323135,-1.236008525
0 days 00:00:08.244279957,-11.05005479025,-1.7970097955000002,5.507679581250001,1.19210261125,-0.53374311335,-0.834975793925
0 days 00:00:08.264279957,-9.63529825175,-1.73838567725,1.9962122437499998,1.0584759563750001,-0.6569850594,-0.5602393672
0 days 00:00:08.284279957,-7.4273214339999996,-1.1868400574,2.761317372,0.6638063888166666,-1.4317143261,-0.19397502143333334
0 days 00:00:08.304279957,-6.344569206,-0.43250269445,3.7776687742500004,0.708755850825,-2.0856450197500003,-0.2821431756
0 days 00:00:08.324279957,-10.991032126666667,-0.3828516354666666,4.979464054,1.02472567565,-1.8309143780000001,-0.009697467100000004
0 days 00:00:08.344279957,-14.5848519825,-3.0275189285,5.014160037,1.4648537935000001,-1.075427427825,1.349934816325
0 days 00:00:08.364279957,-15.402001380000002,-3.49352109475,6.7005016805,2.19560068875,0.035430163174999973,2.35572361925
0 days 00:00:08.384279957,-17.54656792,-3.268595815,4.578666210000001,2.610530575333333,1.7360267936,2.9667411246666666
0 days 00:00:08.404279957,-17.01895046,0.48275196575,-2.512463927,1.96255587035,2.79913520825,3.247433603
0 days 00:00:08.424279957,-13.114263215666668,3.3080773351666664,-3.0660034418333333,0.44745843739950003,3.21330142,3.1887905599999997
0 days 00:00:08.444279957,-8.77747142275,3.0107690395,-1.5445670482499998,-0.027183482072750002,2.85823619325,3.2753805515
0 days 00:00:08.464279957,-6.91525733425,2.37368002525,-3.242274761,-0.2125809481325,1.60672709325,3.58066022375
0 days 00:00:08.484279957,-4.9806602,4.009174228,-4.1240298745,-1.1574869800166667,-0.7928515870999999,4.095313707666667
0 days 00:00:08.504279957,-1.389631696125,6.619145632,0.20578271174999996,-2.02608573475,-2.9300129412500002,4.266203284
0 days 00:00:08.524279957,2.1471595903,9.5764751415,3.799403428833333,-1.6215405464999997,-4.176024318,2.7761512995
0 days 00:00:08.544279957,-2.539981236775,8.505288242999999,3.25184601575,-0.7217367291500001,-4.57812619225,1.105130761775
0 days 00:00:08.564279957,-9.11366319675,5.5214384795,1.4775680009999999,-0.13668099296545003,-4.974424601,1.356043487675
0 days 00:00:08.584279957,-3.4671999142,6.0155563355,10.9363960645,1.1366157194299,-5.518603245666667,1.7544800040000001
0 days 00:00:08.604279957,0.9571290349000001,7.86999368675,14.490934369999998,3.53644883625,-3.058141887,0.8526908715500001
0 days 00:00:08.624279957,-4.4247279761666665,4.2384864890000005,6.970292567833333,4.493521214,-1.5025746225,-0.025274531925
0 days 00:00:08.644279957,-5.54835736775,2.3150559665,3.0975087994250003,4.64104533175,-0.884379461475,0.3397171823125
0 days 00:00:08.664279957,-4.71206611425,1.98185533275,-0.841077174975,4.158461987499999,-1.4911209193250001,0.8397100046
0 days 00:00:08.684279957,-1.19521494215,4.3166520595,-1.9716858788499998,2.9525130591666664,-3.656178335,0.8829796016166668
0 days 00:00:08.704279957,-3.8644086498249997,5.39162755025,4.9896335635749995,1.85397458075,-3.79744094625,0.8368083834
0 days 00:00:08.724279957,-8.139584780166667,4.208576122833333,4.452245414,2.4892740250000003,-2.2157592175,1.8763476015
0 days 00:00:08.744279957,-5.556732297250001,2.0350956617500002,0.5030909775,2.90970170475,0.6959276799999999,2.8787766697499997
0 days 00:00:08.764279957,-2.359921358725,1.51465669265,-1.928016871,2.75927615125,2.4652974905000002,3.29981511825
0 days 00:00:08.784279957,-0.029910281299999997,0.9678967593,-2.7900311945000005,2.1601197321666663,3.234070896833334,3.4347653388333335
0 days 00:00:08.804279957,0.654436975725,1.1874382195000002,-2.0063818095,1.62138783925,3.0411903262499997,3.488114238
0 days 00:00:08.824279957,2.2544377345333335,7.9162547194999995,-2.864607493,1.2104285955,2.5120286944999997,3.2975244519999998
0 days 00:00:08.844279957,7.26700234375,27.5168614425,-8.07398176225,0.5571087002,1.0578650833,1.5561016204999998
0 days 00:00:08.864279957,8.361120372275,44.152362825,-3.9667017475,-0.60109092295,-1.3819288019,-1.4456878899999999
0 days 00:00:08.884279957,-2.16789740345,28.675587655,13.009776354000001,-0.08674279851666666,-0.18799364579999991,-2.9024476611666667
0 days 00:00:08.904279957,-4.1760738495,7.51166856275,3.0077780185,-0.651640012975,2.0354014035,-1.6772055778500001
0 days 00:00:08.924279957,-3.3116665283333333,3.0739794176666666,0.5335994437166667,-0.8967494668499999,1.3782636818999998,-0.6199514120499999
0 days 00:00:08.944279957,-3.2422745825000003,4.549354017000001,-0.23449661947500006,-0.437684617925,0.689513623725,0.033215772399999996
0 days 00:00:08.964279957,-1.5619149505,8.43828928475,-1.4650056660000002,-0.586735628525,1.294117078175,0.27343833817499996
0 days 00:00:08.984279957,1.191625655,11.2570343,-2.181057811,-0.8043052852166666,1.2844959102166666,-0.33630651735
0 days 00:00:09.004279957,-0.995414197,10.41655493,-0.1118644178,-0.7162389680749999,0.61223923415,-0.8769727647250001
0 days 00:00:09.024279957,-2.518047054833333,8.553144693833334,2.6321049727666668,-0.025350883599999985,0.2124282271,-0.43547023830000003
0 days 00:00:09.044279957,-2.9341987969999996,7.86879742125,2.40957236275,0.589942649025,0.400880016375,0.12973240390000002
0 days 00:00:09.064279957,-2.68414878825,8.72782063475,0.8943174778,0.53969902545,0.5597048625250001,0.307494048025
0 days 00:00:09.084279957,-2.354537487,9.9170532205,0.010767698299999998,0.18814635279833336,0.29988369843333335,0.17763438820000002
0 days 00:00:09.104279957,-2.63868516675,10.2197456325,-0.063409800645,-0.13683371245749998,-0.335975624625,-0.155236013225
0 days 00:00:09.124279957,-3.114258687,9.351948579,1.25024985739,-0.21258094905,-0.5621483027999999,-0.2366337404
0 days 00:00:09.144279957,-2.427518487,9.315856457,1.646860182325,-0.061544627877499994,-0.16569706983750002,-0.19570580495
0 days 00:00:09.164279957,-2.0099710227500003,9.7513506415,0.65742800755,0.007024945227500001,0.2086103204625,-0.2908479944
0 days 00:00:09.184279957,-1.884347856,9.722038746,-0.09571290576000001,0.01893680822,0.31576619548333335,-0.41134107611666665
0 days 00:00:09.204279957,-1.773081571,9.463015318250001,0.172283233145,0.076510814025,0.256257779875,-0.43928812445
0 days 00:00:09.224279957,-1.4249258833333334,9.655836741,0.48015973966666664,0.17562362555,0.1647807732,-0.36980226635
0 days 00:00:09.244279957,-1.26879423825,9.664012670249999,0.44805605709999996,0.1849393174,0.0714711779675,-0.2205985412
0 days 00:00:09.264279957,-1.389631778,9.42592668525,0.33439695835,0.050090913655249994,0.0539088174725,-0.04909825581025
0 days 00:00:09.284279957,-1.6331014635,9.591629505,0.5407779217,-0.13123411249883332,0.21629704226666666,0.0813213746955
0 days 00:00:09.304279957,-1.91964197125,9.859625339250002,0.4241278246,-0.18310672047499998,0.41645706442499997,0.0727692670225
0 days 00:00:09.324279957,-2.0650059975,9.4656074845,0.4725824644166667,-0.13041963057,0.51266826685,0.008933897131
0 days 00:00:09.344279957,-2.14516556225,8.816354751999999,0.474975287925,-0.040164358915,0.6065887064,0.0005345066312499999
0 days 00:00:09.364279957,-2.4293133017499997,8.6835534575,0.233898422675,-0.0030543241307500004,0.59116438035,0.02054032811525
0 days 00:00:09.384279957,-2.752942562,9.1274223325,0.1770688724,-0.028201590715166664,0.39283696316666666,0.028176137865000003
0 days 00:00:09.404279957,-3.0155547855,9.4582300185,0.342771835625,-0.0633772220425,0.2186895907,0.02634354448
0 days 00:00:09.424279957,-3.2650064625,9.297711372499998,0.2883351246333334,-0.11728603767,0.11530072612000002,0.042226027695
0 days 00:00:09.444279957,-3.062214792,9.0735838415,0.440877564275,-0.13225222377499998,0.085673782975,0.04894554149
0 days 00:00:09.464279957,-3.2715866562500002,8.768498898,0.531804822375,-0.09483675657999999,0.190589806055,0.08009964693
0 days 00:00:09.484279957,-3.3846476075,8.5148596765,0.24287149963500002,-0.04377864115,0.2310595972,0.169387714345
0 days 00:00:09.504279957,-3.51206552975,8.487342119000001,0.02392822644,-0.02183841523975,0.043371399875,0.2482401766
0 days 00:00:09.524279957,-3.646262924,8.823932648000001,0.05463611893966666,0.030237807310500003,-0.29031348975,0.32841618359999997
0 days 00:00:09.544279957,-3.86500680425,9.289535761,0.40259241315,0.132252223765,-0.6010909229750001,0.366900660125
0 days 00:00:09.564279957,-4.080959082,9.46421146375,0.65922263265,0.23121232535000003,-0.7480039000750001,0.3809505403
0 days 00:00:09.584279957,-4.244867325,9.603593826,0.76331043245,0.29392777384999996,-0.8744020064333333,0.35631232956666664
0 days 00:00:09.604279957,-4.5146580937500005,9.594022751,0.698704227775,0.269849508975,-1.0286962688249999,0.320169501
0 days 00:00:09.624279957,-4.116851210499999,9.338787873500001,1.3587244646999999,0.2458730787,-1.1779000165,0.2251800224
0 days 00:00:09.644279957,-3.264408231,9.027521609999999,1.4697912929999999,0.27550001445,-1.2803726195,0.03077231254
0 days 00:00:09.664279957,-3.037688315,8.89113092425,1.576271951,0.28603743765,-1.3684898315,-0.0225256392775
0 days 00:00:09.684279957,-2.530409932,8.986245632,1.4309079645,0.2155334552,-1.2399027941666667,0.030415975796666665
0 days 00:00:09.704279957,-2.450250447,8.980861902000001,0.9499505907250001,0.078037973495,-1.0494657155999998,0.08895718120250001
0 days 00:00:09.724279957,-2.284746845833333,9.238289514833333,0.91007019085,0.0085521067935,-0.8260418772500001,0.1143080704
0 days 00:00:09.744279957,-2.5950161817499997,9.293723344499998,0.96610212315,0.007788525774249999,-0.6896663158749999,0.132328577325
0 days 00:00:09.764279957,-2.686541677,9.366703987000001,1.2963116465,0.0560468412,-0.6542361676249999,0.20975568890000001
0 days 00:00:09.784279957,-2.9072794915,9.486345291,1.5326029065,0.03878991181666667,-0.6159044205833334,0.31803146751666667
0 days 00:00:09.804279957,-3.32901454,9.412168025749999,1.4853446185,-0.1082757841825,-0.5607738792999999,0.36949683727500005
0 days 00:00:09.824279957,-3.8616169295000002,9.308478991166666,1.0991032225500001,-0.34269513934999996,-0.6030762493999999,0.34154976905
0 days 00:00:09.844279957,-4.11146760025,9.31346368825,0.8063812107,-0.563828177775,-0.7988584191,0.22105668857500002
0 days 00:00:09.864279957,-4.22931408875,9.3355977535,0.5970092490250001,-0.7577777505000001,-0.9347758442,0.093538668
0 days 00:00:09.884279957,-3.943371892,10.688738821500001,0.43429730834999997,-1.1375320554500001,-0.9784526525666667,-0.053883363809999994
0 days 00:00:09.904279957,-2.59501618125,12.903295992499999,1.091725334825,-1.7478369172500001,-0.8726203442,-0.23922991755
0 days 00:00:09.924279957,-0.46181476606666666,13.527822971666666,3.5653057298333337,-2.9626942875,-0.7234165966499999,-0.41439539195
0 days 00:00:09.944279957,-0.15433707089999998,13.611571785,8.690732001,-4.35760378875,0.119424059975,-0.382935866725
0 days 00:00:09.964279957,-0.9152546897749999,12.929018975,10.907083984500002,-4.754971265749999,2.0167700349,-0.2801578641
0 days 00:00:09.984279957,0.21415762605,12.04068327,0.43908286100000016,-4.459618409333333,1.779092769,-0.24915646763333332
0 days 00:00:10.004279957,-1.1347961722,11.1936242575,-6.041278838749999,-4.176482558,-1.52960538825,-0.015500690799999994
0 days 00:00:10.024279957,-2.8007989526666663,6.538387894666667,1.3140584628333336,-3.2510223385000003,-1.7386738655,0.45333802700000003
0 days 00:00:10.044279957,-3.3038898107500003,2.4526431565,7.2209404710000005,-1.0651954113,-0.581543266675,0.6537016927999999
0 days 00:00:10.064279957,-1.8963120133499998,2.4209383132499998,6.28534674675,0.13668099050000002,0.5682569593,0.6834813207
0 days 00:00:10.084279957,-0.25363919134999996,7.8807616255,4.217349887,0.1647298633833333,0.5579740628666666,-0.08910989706999999
0 days 00:00:10.104279957,-0.6891329288499999,10.1228365925,4.258027970500001,-0.10461058839249998,0.174554608775,-1.24715676925
0 days 00:00:10.124279957,-1.0512467327166666,7.518647750833334,3.9357945121666664,0.105374179765,0.14004074781,-1.3841432330000003
0 days 00:00:10.144279957,-0.8207381815,5.2019963265,3.7525441642499997,0.414777182025,0.15867213163,-1.04694589965
0 days 00:00:10.164279957,-0.4474578481225,3.9020954970000004,4.3573300835,0.697607561975,0.63453581185,-0.9153045117749999
0 days 00:00:10.184279957,0.34097722545500003,3.903890252,4.3022949695,1.1873174806333333,1.1203769245166668,-0.8889355361833333
0 days 00:00:10.204279957,0.39900317045,5.082953572,4.606183409750001,1.53250706175,1.14323340375,-0.9321033060749999
0 days 00:00:10.224279957,-1.2929218658333335,7.2386874355,5.138586520833333,1.3555089835,0.50778136405,-1.08420863755
0 days 00:00:10.244279957,-3.4959138037499997,9.353543519999999,4.88554561125,1.003498107275,-0.22021675480000003,-1.309159547
0 days 00:00:10.264279957,-5.03808796425,9.65085172625,3.2793634535000002,1.235626757425,-0.654236190025,-1.3487130404999998
0 days 00:00:10.284279957,-7.555337667499999,8.7936234475,6.113661885500001,1.7551163233333333,-0.6503164269666667,-1.1368447744666668
0 days 00:00:10.304279957,-7.6911301615,9.0400841235,5.20438921475,2.131765395,1.35657794765,-0.730517938775
0 days 00:00:10.324279957,-6.972286383166666,9.5206422805,3.7092739745,1.2107340095,2.7273584605,-1.00265821835
0 days 00:00:10.344279957,-7.1748787165,8.3389866355,8.152945161,0.8523090631,1.050534680625,-1.356807083
0 days 00:00:10.364279957,-3.6819560227500006,8.222336769,7.635497093250001,0.91583901645,-0.7365502268749999,-1.34932398775
0 days 00:00:10.384279957,-0.1387837231,8.5591263775,4.6983070375,0.71796975535,-0.3838776251,-1.2586105268333334
0 days 00:00:10.404279957,0.2638086937375,7.7132638692499995,2.47358036075,0.568715095525,0.957225129,-1.0069342407750002
0 days 00:00:10.424279957,-0.924028354325,8.007182359833333,-0.47776695116666673,0.5867356062,0.31902414560000003,-0.5011381954
0 days 00:00:10.444279957,-2.644068956,9.44806051275,2.02672082175,0.495716765525,-0.3205512911,-0.18547382210000002
0 days 00:00:10.464279957,-4.244867205499999,9.93440127325,4.7527440785,0.3849975318,0.396909371025,-0.1503490955
0 days 00:00:10.484279957,-4.41236496,9.8799643505,5.0907301899999995,0.2735656177333333,0.9913825985833333,-0.29548038545000005
0 days 00:00:10.504279957,-4.66241502775,9.20997405075,4.606781959499999,0.12400554493500002,0.56062115355,-0.37697993222500004
0 days 00:00:10.524279957,-5.108277718166667,8.907282193166667,3.5290146671666665,0.04886918329,0.095447618505,-0.12301288918800002
0 days 00:00:10.544279957,-5.365904927000001,8.6422772405,2.1888344585,0.0007635813650000009,-0.2029598224725,0.182266773631
0 days 00:00:10.564279957,-5.3264231685,8.270791173,1.6821543277500002,-0.09056070561499999,-0.09315687882999998,0.2974147908
0 days 00:00:10.584279957,-4.3908295630000005,7.3232338425,3.011367321,-0.16544254246666668,0.6454295472433333,0.21143557451416664
0 days 00:00:10.604279957,-4.758127928,7.08634424175,2.93539524075,-0.1238528380975,1.3380993305,-0.042531460936249994
0 days 00:00:10.624279957,-6.653243462,6.389633893666667,2.0897317128333337,0.11850776475500001,1.5771001575,-0.1960112378
0 days 00:00:10.644279957,-9.4893362515,5.94676244225,1.357926845475,0.3984365612,1.5544981660000001,-0.1524871178
0 days 00:00:10.664279957,-11.503494737499999,6.13280439375,0.6227320954,0.5181660354000001,1.4787509145,-0.17569997905
0 days 00:00:10.684279957,-13.045669080000001,4.9471607209999995,0.45343987645,0.8436042369333334,0.6848303179,-0.45094547668333335
0 days 00:00:10.704279957,-11.5334053025,5.29232561575,0.6394818574000001,1.076954558875,-0.89919297395,-0.685466632275
0 days 00:00:10.724279957,-6.6604219275,8.045068343333332,-0.2508475880166667,0.8655953705499999,-2.5163047315,-0.5603920817
0 days 00:00:10.744279957,-2.4376880229499998,8.711070537249999,0.9332008361249999,0.493426017475,-3.00133138875,-0.258930303175
0 days 00:00:10.764279957,-0.20518454910000006,8.3521473405,3.1298120019999995,0.34284784645,-2.58319449425,0.022983791300000007
0 days 00:00:10.784279957,1.3435699344999998,7.5912299155000005,4.478167534,0.26908592633333334,-1.5534800687499999,0.30754495535000004
0 days 00:00:10.804279957,1.14616209275,6.790830731,4.51106905975,0.265268031525,-0.625372819575,0.589102700325
0 days 00:00:10.824279957,0.539581500645,6.975476821333333,3.4500514273333334,0.3903425932,-0.16416991131,0.94080811725
0 days 00:00:10.844279957,-0.027517461222500005,7.79043245325,2.04945257325,0.49434233457500004,-0.127212589605,1.1555270850000001
0 days 00:00:10.864279957,-0.245264329025,8.86301493675,1.1371889259999999,0.54748754205,-0.24129159374999998,1.1393391790000003
0 days 00:00:10.884279957,-0.879362315,9.40977478,1.0540383755,0.6383536955000001,-0.226783558745,0.9693151216000001
0 days 00:00:10.904279957,-1.8382860717499998,9.870393512,2.6937201615,0.77289666235,0.37155848739749997,0.96524269885
0 days 00:00:10.924279957,-3.0093733865,11.101899306666667,0.6951149912116666,0.72082045675,1.4915790555,1.375438452
0 days 00:00:10.944279957,-3.7381872537499996,13.0061874375,0.3134597745525,0.38469210265,1.674685776,1.95102578375
0 days 00:00:10.964279957,-4.732405066249999,13.556536914999999,0.57128644,0.039553495120000004,2.06686094425,2.203771055
0 days 00:00:10.984279957,-6.0287168025,12.881760595000001,-0.541974315635,-0.16880230358166667,1.6632320483333334,2.3190209068333334
0 days 00:00:11.004279957,-7.319644450749999,13.725230455,0.5108676357324999,-0.0024434607375,1.1099412592,2.2752421497500004
0 days 00:00:11.024279957,-8.313862006,11.759526726166667,0.5399802824000001,0.56688252095,0.11499528585000003,1.9685880540000003
0 days 00:00:11.044279957,-9.049655199250001,7.503891467750001,4.170689702000001,1.522885918825,-0.38973172757499996,1.75997781775
0 days 00:00:11.064279957,-7.4015985725,5.2444690465,3.7884362934999998,2.1791073384999997,0.23105960335,1.6865212920000001
0 days 00:00:11.084279957,-4.07497704,4.846662283000001,0.9882356973499999,2.1793619595,0.9764164139333333,1.25051659345
0 days 00:00:11.104279957,-2.7314070459999997,6.0801625255000005,-3.0179475623250003,1.363908380125,1.092684350975,0.728685341775
0 days 00:00:11.124279957,-3.9852461415000007,8.535198370833333,-5.9473606346666665,0.18264858424999997,-0.7634282260499999,0.26305364074
0 days 00:00:11.144279957,-4.21555531025,9.616754532,-2.59980184565,-0.557872258125,-2.7954699995,-0.14530945572999998
0 days 00:00:11.164279957,-4.055834472500001,9.7172529695,0.7914260998,-0.6734784245750001,-2.8166974785,-0.324292838575
0 days 00:00:11.184279957,-2.9910283090000003,9.525826931,1.9824535845,-0.5855138798666667,-1.2894846129500002,-0.4307869325
0 days 00:00:11.204279957,-2.5238297579999998,9.31645512575,-0.45702913375,-0.649349257325,0.325132776025,-0.546036735175
0 days 00:00:11.224279957,-2.752543608,8.687940438833333,-1.746760527,-0.97585645325,0.9188933076,-0.70852679015
0 days 00:00:11.244279957,-3.33679109775,8.17986416825,-1.81675058625,-1.32802000625,1.25883960725,-0.6662244201
0 days 00:00:11.264279957,-3.49830669125,8.630313396,-1.61515530925,-1.46302109975,1.43782299775,-0.514119073775
0 days 00:00:11.284279957,-3.347558975,9.914660929,-1.4285151365,-1.2767074108833334,1.10703972995,-0.40686140455
0 days 00:00:11.304279957,-2.9527431132500004,10.66241789,0.337387979025,-0.7296779975250001,0.52045678345,-0.45150543745000005
0 days 00:00:11.324279957,-2.7058835428333334,10.012766523666667,1.74157599645,0.25961752235,0.28084507585,-0.6068178117
0 days 00:00:11.344279957,-2.6985057,8.8085787295,0.6221338662750001,1.181107044475,0.15118902925,-0.627892643225
0 days 00:00:11.364279957,-2.568096817,8.2923269275,-0.460618343225,1.4924953285,-0.20677772165,-0.5515345484
0 days 00:00:11.384279957,-2.8079773190000004,8.6488571165,0.7118647468999999,1.5133156578333333,-0.8078177819666666,-0.29252787681666664
0 days 00:00:11.404279957,-3.42293274375,9.918848274750001,1.93998104325,0.799316584975,-1.3860522210000001,0.282143164425
0 days 00:00:11.424279957,-3.876372774,9.772686481500001,1.0061819755,-0.35033094885,-1.504407227,0.68241229655
0 days 00:00:11.444279957,-3.982853472,9.37507867825,-0.313459754,-0.6230820566499999,-1.5242603417499998,0.6460658461
0 days 00:00:11.464279957,-3.62811738275,9.274580239999999,-0.18424733357499998,-0.5662716627,-1.5848886372500002,0.421878479425
0 days 00:00:11.484279957,-3.745963812,8.979066848999999,-0.07537391040000001,-0.38800094524999995,-1.3814198180000001,0.11054106957166666
0 days 00:00:11.504279957,-3.601796329,9.281161069749999,-0.8189435378000001,-0.32513278725,-1.0028872344250002,-0.0729219843725
0 days 00:00:11.524279957,-2.2372892501666666,9.970094203166665,-0.6085745444333334,-0.3970621079,-0.5151117295000001,-0.42050405594999996
0 days 00:00:11.544279957,-0.96071827445,9.9433748715,0.7459624483249999,-0.258701235025,0.093156874175,-0.9220239964000001
0 days 00:00:11.564279957,-0.6963113993750001,9.479167223249998,1.78325107675,0.19578216222499997,0.562453739375,-1.2166135312500002
0 days 00:00:11.584279957,-0.5527420342,9.2434740065,1.2765708864,0.66502812005,0.6460404160416666,-1.1353176534833331
0 days 00:00:11.604279957,0.47916275264999997,9.666405439,0.09152546338999998,0.27916520092499997,-0.4586067367875,-0.48052151875
0 days 00:00:11.624279957,-0.61336020625,10.714262324333333,2.87936321532,-0.41019569335,-1.2454005779,0.3647626266
0 days 00:00:11.644279957,-2.091326952,10.569695711249999,2.714657284225,-0.392633333825,0.18387030065000004,0.566348001325
0 days 00:00:11.664279957,-3.4534412625,9.431908845999999,0.09212367977500002,-0.281914085125,0.7851139754,0.52007499335
0 days 00:00:11.684279957,-3.8871403934999997,8.748159409,0.2105684281999999,-0.09285144506666665,0.17669263980000002,0.4928406129
0 days 00:00:11.704279957,-2.9659037587499997,8.76431131375,0.8620143534,0.1182023324325,-0.529925204825,0.37682721762500004
0 days 00:00:11.724279957,-2.261217455,8.761718909166667,0.9635099372,-0.022601995635,-0.6815723776999999,0.25511240215
0 days 00:00:11.744279957,-1.74556410325,8.845667362,1.6265212299999998,-0.021838415073,-0.577114477775,0.226859908575
0 days 00:00:11.764279957,-1.7174484732500002,9.032905340500001,1.87417832025,0.184481168284,-0.6200277358249999,0.25908301775
0 days 00:00:11.784279957,-2.155933201,9.401400089500001,1.8317056895,0.2936223472333333,-0.7036653359333332,0.37046403688333335
0 days 00:00:11.804279957,-2.59980183825,9.4630150795,1.90588322275,0.13454296296749998,-0.667675212,0.4731911346
0 days 00:00:11.824279957,-2.7968109448333336,9.351948261,2.077767709833333,-0.046120292505,-0.5429060757,0.4713585377
0 days 00:00:11.844279957,-2.73798733975,9.265008926,1.3010973332,-0.0893389731675,-0.5674933791,0.366442501525
0 days 00:00:11.864279957,-2.4975085855,9.118448734000001,0.6640082895499999,-0.0991128124575,-0.6670643538,0.24518585202499998
0 days 00:00:11.884279957,-2.166700959,9.346364975,0.9762716293999999,-0.06241001934166666,-0.5316050847166668,0.08152499546333333
0 days 00:00:11.904279957,-1.92382937675,9.7878408435,1.7605192662499998,0.1366809960425,-0.30695954712499995,-0.057803079487500006
0 days 00:00:11.924279957,-1.994018873,9.598409493833334,1.6809578934999998,0.2651153207,-0.3944659233,-0.020387613215000003
0 days 00:00:11.944279957,-2.27677077075,9.245268583249999,1.83050930525,0.06826414076000001,-0.614835388975,0.059177523012500004
0 days 00:00:11.964279957,-2.4263221022500003,9.125627279,2.07397907975,-0.08659008235500001,-0.6308706104499999,0.046043932435000004
0 days 00:00:11.984279957,-2.3521445990000003,9.147760867999999,1.9298114185,-0.15261437865000002,-0.5180642306666666,-0.014991639181666667
0 days 00:00:12.004279957,-2.2851455805,9.4731850625,1.80179548275,-0.169514972725,-0.411722868675,-0.0483346749075
0 days 00:00:12.024279957,-2.2608186006666666,9.722836335666665,1.5445669886666666,-0.18692462145,-0.3856084049,-0.0579557959
0 days 00:00:12.044279957,-2.2917259335,9.36191868825,1.2921242414999998,-0.210290193575,-0.42959065735,-0.1207221560075
0 days 00:00:12.064279957,-2.40837603825,9.095717191999999,1.3244273665000001,-0.199600067,-0.42455101012499996,-0.194178648275
0 days 00:00:12.084279957,-2.4227329490000002,9.2865448,1.5397813319999998,-0.20321435233333332,-0.235946521165,-0.31309365478333334
0 days 00:00:12.104279957,-2.6901308889999997,9.46660423275,1.6995022595,-0.258701231325,0.0088575407825,-0.430125162
0 days 00:00:12.124279957,-3.3140592971666663,9.546963373666667,1.663410544666667,-0.3231474608,0.09575305506,-0.5194641501
0 days 00:00:12.144279957,-3.7250266072500002,9.391231059999999,1.7718851265,-0.34406958519999997,0.10018182358,-0.6243801564
0 days 00:00:12.164279957,-3.65563482025,9.337392330250001,2.03569382425,-0.3052796796,0.111330106875,-0.811152070775
0 days 00:00:12.184279957,-3.59641242,9.104690075,1.4751751425000001,-0.40469792979999997,0.010741038990133333,-1.0361539421000001
0 days 00:00:12.204279957,-3.334398389,8.9258265495,2.0183459517499998,-0.5363392978999999,-0.0455094268575,-1.19019362325
0 days 00:00:12.224279957,-3.0400811831666665,8.632506211333334,3.556133190666667,-0.44959649445,-0.009926551950000001,-1.222569466
0 days 00:00:12.244279957,-2.45922338925,8.595019101750001,3.81296283,-0.2203694731,0.01237001177025,-1.1683552865
0 days 00:00:12.264279957,-2.0943179127500002,8.817551612750002,3.0143583420000004,-0.14156790819999998,0.00809395825475,-1.1645373405
0 days 00:00:12.284279957,-2.4562324285,8.9431743625,2.007578194,-0.10649409021666667,-0.13871721147433333,-1.0384955705666667
0 days 00:00:12.304279957,-3.562912881,9.19442105325,0.248853545525,-0.03344484698,-0.584139451475,-0.7551052123499999
0 days 00:00:12.324279957,-3.9748773575,9.320841948,1.3838491069499999,0.02840521373,-0.9921971263499999,-0.5451204479
0 days 00:00:12.344279957,-3.73459792125,8.855238675750002,2.83669126075,0.16035200472,-0.589331798275,-0.56191922725
0 days 00:00:12.364279957,-3.73639249825,8.2408810855,2.19541472225,0.219911321975,-0.38866271825,-0.5774963051
0 days 00:00:12.384279957,-4.0486559865,7.788637638,2.0650060175,0.32630360376666667,-0.5557342171999999,-0.46458812555
0 days 00:00:12.404279957,-4.26221525675,7.7868429425,2.5627130862499996,0.53725556285,-0.7990111262,-0.286419216525
0 days 00:00:12.424279957,-4.526422898,7.894719362166668,2.958326379166667,0.74403330685,-1.0245729387,-0.18379393965
0 days 00:00:12.444279957,-4.4656051395,7.83828890325,3.75015121675,0.828943520775,-1.09298980225,-0.1095738708975
0 days 00:00:12.464279957,-4.138984919,7.697710514,3.75074946875,0.774271130575,-0.8733839243500001,-0.0092393299575
0 days 00:00:12.484279957,-4.15633297,7.756334543,2.5986053945,0.7533998787499999,-0.9367102285333333,0.08376483308333334
0 days 00:00:12.504279957,-3.85244447025,8.3192464115,2.57886457475,0.83719018105,-1.12139502175,0.14851649847499998
0 days 00:00:12.524279957,-3.454438209333333,8.184251149666666,2.594617287166667,0.8597922027,-1.2557852865,0.19646938889999999
0 days 00:00:12.544279957,-3.0412775869999997,8.2755768295,2.86779797075,0.850781932475,-1.29258990275,0.25999933105
0 days 00:00:12.564279957,-3.0221350190000003,8.907880306,2.206780761,0.838106483225,-1.2356267870000002,0.27542366087500003
0 days 00:00:12.584279957,-3.562912941,9.25783062,1.0815558133,0.7905608117500001,-1.4314089218333332,0.28575744731666664
0 days 00:00:12.604279957,-4.171886206,9.157332182,0.580857686675,0.928056284775,-1.7302744985,0.3739255965
0 days 00:00:12.624279957,-4.3022952876666665,9.780662695666665,1.3136596236166667,1.302669108,-1.8110613825000001,0.49060079455
0 days 00:00:12.644279957,-3.4462629852499997,10.524830105,2.57048970475,1.79044464225,-1.67468580625,0.44829840215000005
0 days 00:00:12.664279957,-1.3597214592500002,10.885548115,1.45244331665,1.69026282425,-2.12642031925,0.337579146025
0 days 00:00:12.684279957,-1.0671988875,9.919445991,3.5569308103000004,0.6441569017550001,-2.5529566808333333,0.48622290788333333
0 days 00:00:12.704279957,-3.5832519535,8.85464000675,2.19960217185,-0.04062250891225,-1.1615593733749998,0.696614921075
0 days 00:00:12.724279957,-4.446263392666666,8.862616062333332,-0.7357929846500001,0.1096502303805,-1.2408190967500001,0.66897329685
0 days 00:00:12.744279957,-4.01515656725,8.9623172285,-0.38524445892500003,0.4651735462,-1.7777692680000001,0.28947354849999996
0 days 00:00:12.764279957,-3.77707052225,8.427521467000002,0.386440865675,0.748156651825,-1.75974875675,0.002519818012500001
0 days 00:00:12.784279957,-3.4013973475,8.542376995,0.46181477605,0.9461277326166666,-1.465311865,-0.218816852825
0 days 00:00:12.804279957,-3.0041888955000005,9.36790060975,1.4560325589,0.9555452317249999,-0.832761436475,-0.356821380525
0 days 00:00:12.824279957,-2.6891338824999997,9.885149322833334,1.345962745065,0.8310815096,0.11133010684999999,-0.43974627549999995
0 days 00:00:12.844279957,-2.42273285975,9.44865846625,-0.31405796470749997,0.592996954925,0.368198752425,-0.41454810649999996
0 days 00:00:12.864279957,-1.291525989725,8.97547769525,-0.912861823675,0.328950680825,-0.295353122075,-0.37362015989999997
0 days 00:00:12.884279957,-1.4584254024499999,8.574679851500001,-0.2117648125,0.022907429073333332,-1.1386010348333333,-0.26127194614
0 days 00:00:12.904279957,-2.5028925537499997,8.58484935725,0.5934200138,-0.18493931740000003,-1.2333360014,-0.06940951175425
0 days 00:00:12.924279957,-2.8342983724999997,9.364311536333334,0.30348968006666666,-0.2241873741,-0.78664112095,-0.014889828393499999
0 days 00:00:12.944279957,-3.0335008502500003,9.6592271325,-0.20338992029999997,-0.22082761302499998,-0.5300779119,-0.1326340138725
0 days 00:00:12.964279957,-3.192025423,9.52582716925,-0.205184541675,-0.1907425299,-0.45219264925,-0.22426373135
0 days 00:00:12.984279957,-3.190829039,9.437292575999999,-0.209371984,-0.09977457996433332,-0.45178541538333333,-0.2822449877666667
0 days 00:00:13.004279957,-2.94556468725,9.45643472675,-0.4396811798,0.014660755405500001,-0.49189887192500004,-0.32597272094999996
0 days 00:00:13.024279957,-2.4027926923333336,9.609575589666667,-0.4059822459666667,0.14110976829,-0.6012436747500001,-0.35880669950000005
0 days 00:00:13.044279957,-2.05722934,9.396614790000001,-0.2027917224925,0.254730604575,-0.681266948575,-0.2926805764
0 days 00:00:13.064279957,-1.9405791159999999,9.26620578775,-0.040079781785,0.28573200107499996,-0.673020258525,-0.146989332475
0 days 00:00:13.084279957,-2.3605195285,9.598807812,0.329013101735,0.35674503445,-0.7015272974833334,0.02939786639000001
0 days 00:00:13.104279957,-3.369094312,9.466604471,1.304686531725,0.462882779575,-0.6482802480250001,0.1677587368
0 days 00:00:13.124279957,-3.6945181688333335,8.941579182666667,1.5880366565,0.36224281045,-0.486401096,0.19097159805
0 days 00:00:13.144279957,-3.69990199825,9.014959573750001,1.51525494425,-0.0284052137,-0.4326449856,0.0240528001475
0 days 00:00:13.164279957,-3.8004004955,9.26022362725,1.7964116335,-0.221896620425,-0.35292712595,-0.15569416389250001
0 days 00:00:13.184279957,-4.011567116,9.237492085,1.7814564705,-0.15709406012000002,-0.24785838773333335,-0.2088393917
0 days 00:00:13.204279957,-4.15094888225,9.099904775499999,0.800997391325,-0.09147700295,-0.248163815575,-0.1524871178
0 days 00:00:13.224279957,-3.992025733,8.8797645565,0.6524429917,-0.051312642173500005,-0.5117519647000001,-0.126372654
0 days 00:00:13.244279957,-3.7794634697499996,8.91087126725,0.602393113075,0.06215549353575,-0.7098248898999999,-0.0677296333075
0 days 00:00:13.264279957,-3.49830675125,9.09272623075,0.28534410897499995,0.1175914741875,-0.7948878109249999,-0.045280351302499994
0 days 00:00:13.284279957,-3.2841490505,9.013762474,0.28594230119999997,0.18081597236666666,-0.9092213213666667,-0.09185879368
0 days 00:00:13.304279957,-3.2620155215,8.902496337999999,0.39780677109999996,0.26480987665,-0.952185481825,-0.13904809769999998
0 days 00:00:13.324279957,-3.5186457633333332,9.090332985,0.4554339051166667,0.2987128794,-0.9723440111,-0.08941533046
0 days 00:00:13.344279957,-3.762115419,9.084949493499998,0.488734029225,0.2350302227,-0.94164803625,-0.05810851324249999
0 days 00:00:13.364279957,-3.8039897087499996,8.9539425375,0.7375875860750001,0.154396072,-0.8784235417749999,-0.079030630175
0 days 00:00:13.384279957,-4.1024944785,8.974281310999999,0.5874379425999999,0.068111424401,-0.9134973486666667,-0.090535252045
0 days 00:00:13.404279957,-4.264608025999999,9.078967333,0.2111666016,-0.0175623624805,-1.074358374,-0.10117447748
0 days 00:00:13.424279957,-4.497708876833333,8.8271226885,-0.3254238789333333,-0.06902772188,-1.3031272889999999,-0.11720968035
0 days 00:00:13.444279957,-4.195814431,9.01376295075,-0.607776969675,-0.07101303153,-1.5740458665000001,-0.165315285325
0 days 00:00:13.464279957,-3.55573439625,9.32542777075,-0.5419743433499999,-0.0595593154425,-1.5548035505,-0.273591056475
0 days 00:00:13.484279957,-2.410768807,9.269794941,-0.39481572805,-0.08002328625166666,-1.2841905158333333,-0.35727952915
0 days 00:00:13.504279957,-2.2707887592500002,9.45643496525,0.48813582955,-0.130114197775,-1.069013387,-0.366442508975
0 days 00:00:13.524279957,-2.8211378256666664,10.037093160833331,1.4133606154,-0.3335321695,-0.9573778212,-0.3261254281
0 days 00:00:13.544279957,-2.90129739025,9.861420393,1.3363914490000002,-0.8228348642500001,-0.80725778635,-0.49564039709999996
0 days 00:00:13.564279957,-2.2887347937499998,9.741778850500001,1.6480565667500002,-1.0948223915,-0.429743357,-0.7099012285749999
0 days 00:00:13.584279957,-0.9966106415499999,9.763912678,1.9441683885000003,-1.160948475,0.2066250245,-0.8903608521
0 days 00:00:13.604279957,0.013758730124999993,9.45224738125,2.3802604075,-1.1490366757500001,0.203876130275,-0.7456368059
0 days 00:00:13.624279957,-0.9551350251666667,8.916853586833334,4.746163686,-1.1478149295,-0.7680097522499999,-0.35666867345000003
0 days 00:00:13.644279957,-3.899702609,8.2977108955,6.6819572445,-0.9706641434250001,-1.10306909675,0.024969099099999996
0 days 00:00:13.664279957,-4.83589446575,8.2097743745,6.741179466,-0.71837696435,-0.7742711305000001,0.11797326057499999
0 days 00:00:13.684279957,-4.627719163999999,7.6247293945,5.5812587735,-0.5024362852166666,-0.5083921998500001,0.020031273984266663
0 days 00:00:13.704279957,-3.98883545375,7.194021225,6.0257257225,-0.19562944959,-0.19165882843,-0.035964663611
0 days 00:00:13.724279957,-2.5395824908333333,6.458627065166667,4.361317992333333,0.21288637442,0.11988221109000001,-0.26839871335
0 days 00:00:13.744279957,-4.500301242,6.68614459025,2.98444813475,0.59849475325,0.14233148845,-0.5255728065749999
0 days 00:00:13.764279957,-5.142175794,6.878767013499999,2.6488547327500003,0.9570723621,-0.064751669725,-0.507399558975
0 days 00:00:13.784279957,-4.957928419,6.672385931,2.5208387375,1.227939983,-0.4160498207,-0.31502805154999997
0 days 00:00:13.804279957,-4.030709684,5.836094499,2.690729082,1.3213005365,-0.709366738825,-0.211588293275
0 days 00:00:13.824279957,-2.8594230411666666,5.241079092,2.3334009048333333,1.3869684935000002,-0.58047425745,-0.17829615619999997
0 days 00:00:13.844279957,-1.81076857475,5.47896552075,1.17846518725,1.6505566535,-0.5729911624999999,-0.17249294
0 days 00:00:13.864279957,-1.3280165791999998,7.250252604250001,-0.7369893790000001,1.82526400675,-0.870635032625,-0.11064288393249999
0 days 00:00:13.884279957,-1.0564312339,11.7320094085,-1.50269264,1.7982841333333333,-1.3442588152,-0.07679079473166667
0 days 00:00:13.904279957,-3.4175488350000003,19.781464337499997,12.0113716155,1.8469496665,-1.0807724597500001,-0.253737956275
0 days 00:00:13.924279957,-7.104290405666667,18.828722953333333,5.854040623333333,0.5033526121,0.16814056034999994,-0.114766217755
0 days 00:00:13.944279957,-4.299902438749999,8.88634526625,4.8628138042,-1.1284199507000001,-2.277456566825,0.5675697587224999
0 days 00:00:13.964279957,-10.20479059,5.3976095915,0.30448667334999996,-0.48609565200000004,-2.41230499725,1.725158482825
0 days 00:00:13.984279957,-7.088736890499999,5.172086000499999,0.010767698499999886,0.9050979914999999,-1.2718713680333333,2.9857797623333333
0 days 00:00:14.004279957,-2.79003125425,4.9914278985,-0.7280162870000001,1.158505037725,-1.066264510175,3.3686901925
0 days 00:00:14.024279957,7.792226888166667,10.121639647666667,0.7796614057666668,0.062002770605,-0.9576832058499999,2.0315071938
0 days 00:00:14.044279957,0.3523430525,9.011968613,3.866801522375,-0.0696385866,-1.381928802,-0.27603451907500004
0 days 00:00:14.064279957,-3.7579280730000004,8.6787679185,0.702891655375,0.1766926264075,-0.802218154175,-0.361097440125
0 days 00:00:14.084279957,-1.33519497495,10.912467479999998,2.1631116870000002,0.23599742106666666,-0.51887871575,-0.35167995096666665
0 days 00:00:14.104279957,-2.160718872975,11.435897587500001,4.33579480625,0.18341214579999998,0.06520981717500002,-0.49564041945
0 days 00:00:14.124279957,-2.1140587630166667,9.798209984333333,3.716053664466667,0.29290965945,0.91644987465,-0.36796967685000004
0 days 00:00:14.144279957,-0.680159851825,9.04845905325,0.8991030901500001,0.101861702285,1.0571014732500001,-0.31222826984999996
0 days 00:00:14.164279957,-1.4117653665,7.931010365750001,1.1455638259,0.22342379574500001,0.5490147024250001,-0.171118497875
0 days 00:00:14.184279957,-2.0805593135000002,7.1545395855,1.841277003,0.43076148626666666,0.3437641461666667,0.2561305115333333
0 days 00:00:14.204279957,-2.24147662525,8.7541419265,1.73120716175,0.419053249075,0.5416843593,0.43837183712499994
0 days 00:00:14.224279957,-3.3136605026666666,9.9764753975,1.7359928491666665,0.42638361455,0.60796317455,0.5321395993
0 days 00:00:14.244279957,-3.86620325255,11.8719894875,3.1286156477500002,0.56382820755,0.77366025745,0.56130836905
0 days 00:00:14.264279957,-0.03649054094999998,8.806783438,1.9250257907500001,0.40500334652500003,0.9781472384500001,0.28641921652499996
0 days 00:00:14.284279957,-0.8195417525999998,8.106883049,2.3760728835,0.28283039981666663,1.1251620051666666,0.30255623903333334
0 days 00:00:14.304279957,-3.1657043700000003,10.177871229,1.6839489042499998,0.06123919415000001,1.43324145675,0.45455975827499995
0 days 00:00:14.324279957,-2.969891767,11.282557808333332,2.4311078189999997,-0.23151774704999997,1.4778346420000001,0.269467722605
0 days 00:00:14.344279957,-1.4925231635,12.207582949999999,3.52642244075,-0.443640545,1.31259566525,-0.1437822934475
0 days 00:00:14.364279957,-0.890130035925,11.736196992500002,2.3102702869750003,-0.515264421675,1.380859792,-0.176463566725
0 days 00:00:14.384279957,1.29810632765,10.582258224999999,0.10648060588500001,-0.40703956785,1.3689988256666668,0.11227185776666666
0 days 00:00:14.404279957,2.0470598342499997,12.430713412500001,0.4654039852175,-0.16462805680749998,1.5598431824999999,0.33559384194999997
0 days 00:00:14.424279957,0.9024929516333334,8.405985990666666,-0.8737790681666667,-0.10812306776500001,1.840688288,0.27130031585000003
0 days 00:00:14.444279957,-0.0490528643125,10.229915142500001,-0.25124636852,-0.1240055524,1.72477674475,0.253279801425
0 days 00:00:14.464279957,0.2590230535625,10.57807112,0.07477570884000001,-0.18524475027499998,1.716224611,0.25572327149999996
0 days 00:00:14.484279957,1.1066804827999999,10.900503635,0.283549487595,-0.40398525446666667,1.9209152461666665,0.4270708510999999
0 days 00:00:14.504279957,1.0426724851999998,9.65444111825,-0.7854440208525001,-0.5494728833,2.0796892045,0.537790104775
0 days 00:00:14.524279957,1.03130653485,8.690333207333333,-1.0005986787166667,-0.55283263325,2.2340852019999997,0.45303259790000006
0 days 00:00:14.544279957,0.4139583036,8.36351299325,-0.669392123825,-0.571311280175,2.4576616285000004,0.31604615602499997
0 days 00:00:14.564279957,-0.664606489325,8.24686312675,-0.7866404205499999,-0.602312654275,2.433685303,0.35727953167500004
0 days 00:00:14.584279957,-1.5098711255000001,8.1858463285,-0.5192425251,-0.52554734055,2.1480550765,0.43043058616666663
0 days 00:00:14.604279957,-0.790229678225,8.18764114375,-0.8745766729,-0.37980518492500004,1.7336342337500001,0.490448050175
0 days 00:00:14.624279957,-0.33459637588333324,6.549554348166667,-0.2799602548,-0.18967352065,1.3122902515000001,0.31406086685
0 days 00:00:14.644279957,3.1579276922500004,8.943772911749999,3.3332020042500003,-0.242360595625,1.881463617,0.297109350575
0 days 00:00:14.664279957,1.58404859925,8.045866132,2.67697030325,-0.335364759,2.36038154325,0.801530964675
0 days 00:00:14.684279957,-0.5623132590000001,9.803394318,1.4392827744999999,-0.4259763807166667,2.384561598,1.2135592500166668
0 days 00:00:14.704279957,-2.38923341025,10.38365411525,1.53499573425,-0.453872524225,2.0841179194999997,1.25204375375
0 days 00:00:14.724279957,-2.5391835371666667,7.982057412166665,2.4881367283333335,-0.50243626535,2.4817909005,0.80580699445
0 days 00:00:14.744279957,-2.2707886097500003,7.88076138475,2.3874388484,-0.39614579827499996,2.82402789625,0.75999216735
0 days 00:00:14.764279957,-3.451048434,8.89651489225,0.659222647525,-0.307875841875,2.9196281432499998,0.9030872434249999
0 days 00:00:14.784279957,-5.0165526865,9.059226512499999,-0.5647061467,-0.094684037695,2.52190425,1.0516800877833334
0 days 00:00:14.804279957,-5.2881380315,8.92582654975,0.19082762302499995,0.0368046024825,1.832136214,0.723951131125
0 days 00:00:14.824279957,-5.111069222166666,8.888937313833333,0.7334001362666666,0.11484257876,1.03648477815,0.4777726233
0 days 00:00:14.844279957,-1.59541448975,10.9190475925,2.2025932372,0.087506378065,1.037095636325,0.30352343989999997
0 days 00:00:14.864279957,-3.1752756832499998,10.9926271475,0.7387839816249999,0.16310089268,1.0001383424249999,0.25999931615000005
0 days 00:00:14.884279957,-3.645465374,10.28794098,0.32183464615,0.23691372573333336,0.6261873145666667,0.27364196376666666
0 days 00:00:14.904279957,-2.636890471,9.375078916,1.0660024730500002,0.234266646225,0.19043709608175,0.09537126540999999
0 days 00:00:14.924279957,-3.134996354333333,8.1734832125,-0.0502492981666666,0.3045160994,-0.6406444254865,0.17875430826999997
0 days 00:00:14.944279957,1.74915337575,9.335597277,3.672384441,0.28634286670000003,-0.23747367590000001,0.2016617395
0 days 00:00:14.964279957,1.4273187514999999,9.460024118500002,2.44008097075,0.27534729989999995,0.1838702951,0.19692752882499998
0 days 00:00:14.984279957,0.43070808055000004,9.0903334615,1.5996019245,0.3203985741,-0.0067704183366666575,0.46239917976666667
0 days 00:00:15.004279957,-0.26440691947499995,9.03111100225,2.1427726744999998,0.3874409944,-0.35399614277499997,0.45517062397499997
0 days 00:00:15.024279957,-0.4478566398333333,9.414161999833333,2.547159751166667,0.3662134409,-0.3856084049,0.26610797645
0 days 00:00:15.044279957,-0.3308077249675,9.609575987,2.4819552305,0.23411392792500002,-0.2550360486,0.193873211725
0 days 00:00:15.064279957,-0.0771685298525,9.525228739,1.3980066182500002,0.134237533425,-0.49418961257500005,0.243658684175
0 days 00:00:15.084279957,-0.004785649450000003,9.235098839,1.6809579135000001,0.19028438505,-0.8426370819666666,0.3143662859833333
0 days 00:00:15.104279957,0.37088750677500004,9.0006022455,2.2313072082499996,0.282830402225,-0.9819651544,0.256792284525
0 days 00:00:15.124279957,0.6596214572666667,9.717651684666667,2.1870399711666666,0.27824890615,-0.9714277387,0.100869044675
0 days 00:00:15.144279957,0.9786644578999999,10.776077032500002,2.1894327405,0.2379318252,-1.014493689175,0.019624030915
0 days 00:00:15.164279957,1.497906983,11.133803610000001,2.6183462145000003,0.15561779585,-0.951880022975,-0.0466547959975
0 days 00:00:15.184279957,1.1473584471,10.908878805,2.5710878375000004,-0.04449132085333333,-0.8214603861166666,-0.19529855993666667
0 days 00:00:15.204279957,0.823729187275,10.6372928625,3.1429725287499997,-0.16539163887499997,-0.895527750275,-0.27664538845
0 days 00:00:15.224279957,-0.2313061853166667,11.597213588333332,3.4384860993333333,-0.38942629095,-0.7292198241,-0.41470082105
0 days 00:00:15.244279957,-0.33978082234999996,11.814561845,3.64905446775,-0.5946768522250001,-0.8300125300749999,-0.43547021595
0 days 00:00:15.264279957,0.9577272682500001,11.720643045,4.554139733,-0.691498935225,-0.1644753422525,-0.7166207433
0 days 00:00:15.284279957,0.9667003674000001,9.927820684,3.004188895,-0.7684679130666666,0.42470373583833326,-1.2177843847333334
0 days 00:00:15.304279957,-1.0342975593,9.35713291175,4.5230329634999995,-0.688139170425,0.753196269275,-1.3755910992500002
0 days 00:00:15.324279957,0.07218349978333334,10.578270116833332,2.1678973537333337,-0.7974839509999999,0.9109520912,-1.4046072365000002
0 days 00:00:15.344279957,0.5012963638000001,8.886943102250001,-0.9254241735000001,-1.97019165775,0.6119337976249999,-1.439579219
0 days 00:00:15.364279957,0.7782655581750001,6.9882386924999995,-0.9104690254000001,-2.119242668,0.36682429167499997,-0.92950710665
0 days 00:00:15.384279957,1.8484554290000001,7.1246294975,-0.7142575830499999,-1.35978497065,0.16844596464999997,-0.45583239445
0 days 00:00:15.404279957,1.72701969775,8.404191374499998,0.6179464683,-0.7965676635750001,0.13515383005,-0.058261223125
0 days 00:00:15.424279957,2.1882362965,9.558130105166667,0.33579278491666664,-0.84604769945,0.30253078045,0.40110907704999993
0 days 00:00:15.444279957,2.7254249455,8.3377908465,0.17228324150000002,-0.57024225595,0.43966991455,0.893924221425
0 days 00:00:15.464279957,1.8861424325,5.75593495375,-0.38763728170000006,-0.055588690572499995,0.47418377545,1.2732712779
0 days 00:00:15.484279957,0.139980078,4.2891345025000005,-1.2921242714999999,0.4678206182783334,0.02204203853666668,1.6702824635000002
0 days 00:00:15.504279957,-2.2863420244999997,4.855635166,1.1126625534999999,0.8523091079,-0.6924152075249999,1.7972405555000002
0 days 00:00:15.524279957,-4.085744539666667,5.4691948095,6.099304835000001,1.4932589534999998,-1.2515091895000001,1.871766031
0 days 00:00:15.544279957,-3.8787655235000003,12.4247317305,4.2837505345,1.19362980175,-0.8768963963,1.5083015265
0 days 00:00:15.564279957,-5.3533424135,20.3563408825,-3.1549368199999996,0.784350395325,-0.2912297882,0.457766804925
0 days 00:00:15.584279957,2.3976082799999996,14.329418661,-0.6245267093,1.3936879636833333,1.0400481745166665,-0.6310487513666666
0 days 00:00:15.604279957,10.24187910875,8.442476272250001,4.0701914281,1.2266164721725001,0.241444304575,-0.172645643375
0 days 00:00:15.624279957,2.9312076974999997,12.6644126565,7.062017361666666,-0.370794922105,-0.6864593029,1.0562615694
0 days 00:00:15.644279957,-2.63808691475,10.981859684749999,2.458625205225,-0.455857850625,-0.3778198734,0.7796925158000001
0 days 00:00:15.664279957,-1.81854513325,8.13200771775,-0.551545612475,0.07757982612500001,-0.0633772212335,0.43608108160000003
0 days 00:00:15.684279957,1.4093725085,5.2941200735,0.5623132887000001,0.6565778205999999,-0.073660106963,0.4980329573333333
0 days 00:00:15.704279957,0.6622136534,7.077371359,2.9180471900000002,0.7550288737249999,0.16890410895,0.6523272394999999
0 days 00:00:15.724279957,0.18783656756666667,11.636695388500002,1.6542380749166667,0.59284427765,0.20326525344500002,0.54160797595
0 days 00:00:15.744279957,-1.17786693565,11.698509694750001,1.121635600875,0.350483670875,-0.3281871136025,0.31085380162500004
0 days 00:00:15.764279957,-1.546959794775,8.428119540249998,2.39222443075,0.15118903109999998,-0.366671592,0.26152647284999997
0 days 00:00:15.784279957,0.73459653545,8.076972722999999,1.6199409365,0.2533052600666667,-0.10878483725966666,0.20838124308333336
0 days 00:00:15.804279957,2.8671997187500002,9.744770048,0.8512466400750001,0.5143481492749999,0.00549778284,0.23113595322500002
0 days 00:00:15.824279957,2.6679972210000003,10.847462338333335,1.2327024438499998,0.4914407283,0.070096732097,0.35651594400000003
0 days 00:00:15.844279957,1.60139650125,10.797612189999999,1.4362917842499998,0.318718701625,0.19746204092499997,0.415922544925
0 days 00:00:15.864279957,0.9828518628,10.3615200535,1.4069797689999999,0.2273944207,0.2512181327,0.416838854525
0 days 00:00:15.884279957,0.717846781,9.863214970000001,0.86500540355,0.25401793668333333,0.25274530798333333,0.43501207231666666
0 days 00:00:15.904279957,0.13698909617750002,9.212367296499998,0.3696911037,0.32421648505,0.123700112605,0.485866568975
0 days 00:00:15.924279957,-0.27557339983833334,8.867800553833334,0.70229344575,0.3711003512,-0.038942630400000004,0.48235408960000004
0 days 00:00:15.944279957,0.110668044075,9.59462094275,1.15453690325,0.32772895695000004,-0.09575305693,0.43531751632500004
0 days 00:00:15.964279957,0.45583271235,9.787841319750001,1.1904292405499999,0.290924347975,-0.0995709598,0.412562802425
0 days 00:00:15.984279957,0.86620181805,9.3391866685,0.9750752448999999,0.25686864558333333,-0.17577633755,0.4815396120166667
0 days 00:00:16.004279957,1.2442677615,9.281759024,0.9212367236750001,0.20082179832500002,-0.22601996359999998,0.59108804165
0 days 00:00:16.024279957,0.9184450705500001,9.611170769,1.1214361984499999,0.1759290546,-0.23319762945,0.5895608663499999
0 days 00:00:16.044279957,0.733998328475,9.238688469,1.37288203825,0.178067076925,-0.24541492015,0.51839514075
0 days 00:00:16.064279957,0.81535431745,9.932008504999999,1.2777673004999999,0.14523309837499998,-0.30940299849999997,0.46555532515
0 days 00:00:16.084279957,1.024128139,11.556137084999998,2.2600209715,0.03828085958166667,-0.25763221579999995,0.4050797074666666
0 days 00:00:16.104279957,0.683749079725,12.501899957500001,3.64785808325,-0.1359174177125,-0.02977965025000001,0.283517625175
0 days 00:00:16.124279957,1.81096796205,12.341381548333333,4.6652065115,-0.41263917089999996,0.571311295,-0.09796743839999998
0 days 00:00:16.144279957,3.3672996165000004,12.6370947325,3.402593851,-0.843298822675,0.9699005337000001,-1.1149045975749998
0 days 00:00:16.164279957,2.42273286,12.195618867499999,2.159522474,-1.3289363387750002,0.9604321570000001,-1.8794018927499998
0 days 00:00:16.184279957,1.01934248215,11.830115319999999,2.4131616355,-1.690975567,0.8280781010833334,-2.391153812666667
0 days 00:00:16.204279957,0.6191428452500001,11.2833552375,3.0598220227499997,-1.8582506775,0.6122392267,-2.546618879
0 days 00:00:16.224279957,1.6410775483166669,11.671789961666667,3.1046874128333335,-1.9309435490000002,0.93172153825,-2.5588362215
0 days 00:00:16.244279957,2.51665115325,12.4139637975,2.13021028025,-1.8322889507500002,1.4674499334999997,-2.6438991425
0 days 00:00:16.264279957,2.6620151995,12.751949790000001,2.299502492,-1.60993415125,1.54884767525,-2.6614614127499996
0 days 00:00:16.284279957,2.9623143675,13.050454620000002,2.9180471894999997,-1.4158827863333332,1.494837006,-2.631630858
0 days 00:00:16.304279957,2.82113784575,12.9756789225,3.5401810405,-1.5890120269999999,1.1302525695,-2.58082741475
0 days 00:00:16.324279957,0.9694919586333333,11.961321355,3.0348966123333336,-1.6783509854999998,1.219744265,-2.2115595935
0 days 00:00:16.344279957,-1.2795619368,10.9190480725,2.20199495575,-1.4643955825,1.3339759412499999,-1.5967241825
0 days 00:00:16.364279957,-3.347558975,9.83809018325,1.5511472524999999,-1.278845429,1.25044021,-1.36994060875
0 days 00:00:16.384279957,-4.593023061499999,8.530412673999999,1.158126116,-1.2143991591666665,1.0716095663666667,-1.6465096673333335
0 days 00:00:16.404279957,-5.0739803315,6.924828648750001,1.603191137,-1.16766804475,0.90148371455,-2.2544729112499997
0 days 00:00:16.424279957,-4.3302112815,6.238088608000001,1.8983059923333332,-1.2932007315,0.64492049815,-2.643135548
0 days 00:00:16.444279957,-3.2374890445,6.17348241825,1.9549361765,-1.3733767272500002,0.207846738375,-2.7564510110000002
0 days 00:00:16.464279957,-2.23908382625,5.72363173975,1.390828177475,-1.476612866,-0.23701554540000003,-2.71430122825
0 days 00:00:16.484279957,-2.4311078785,5.186443090499999,1.43449714795,-1.5523092351666667,-0.5965603639333333,-2.3885067105
0 days 00:00:16.504279957,-2.78105807325,4.4823548795,3.4235310555,-1.257770568475,-0.7704531848,-1.83251801125
0 days 00:00:16.524279957,-2.525225401,3.372683524833333,4.514458855,-0.8103121518999999,-0.6159044206000001,-1.4186570639999998
0 days 00:00:16.544279957,-2.3288146259999998,3.94576454125,4.098306835,-0.38301221282500003,-0.6588176488499999,-1.279227227
0 days 00:00:16.564279957,-3.1106694934999997,3.96550548075,3.1310084465,-0.018020506950000008,-0.674852877875,-1.0344231427500001
0 days 00:00:16.584279957,-4.2233319284999995,2.55792737,3.4815568925,0.3279325788,-0.44537132481666664,-0.5798379480666668
0 days 00:00:16.604279957,-4.1336011885,2.85344094025,3.75673151,0.5210676491,-0.05589412895,-0.104686953125
0 days 00:00:16.624279957,-3.4169507819999994,3.9732819,4.136392831833334,0.62522009015,0.24022257325,0.25663957
0 days 00:00:16.644279957,-3.0191439989999997,4.6570310594999995,4.404588342,0.763275518975,0.29306238145,0.573067523575
0 days 00:00:16.664279957,-3.6586257817499996,5.586044311249999,4.2975096705,0.83031795915,0.306654110575,0.782288715225
0 days 00:00:16.684279957,-4.645665169,7.6127650735,4.38724041,0.8304706712333333,0.45911578834999994,0.8472440043833332
0 days 00:00:16.704279957,-5.167898654749999,9.005985975,4.77487766775,0.86055576805,0.674394741675,0.74120804665
0 days 00:00:16.724279957,-5.901099363999999,8.716255188166667,5.031308412833334,0.78648841385,0.57650364935,0.7007382512000001
0 days 00:00:16.744279957,-6.21535682675,7.042675257000001,5.90369176875,0.6876810341999999,0.29856015745,0.74273520705
0 days 00:00:16.764279957,-6.13579547375,6.14536666875,5.8743796352499995,0.497854806475,0.045967573309999996,0.70531976225
0 days 00:00:16.784279957,-5.6279189585000005,5.7523455619999995,5.245067120000001,0.263689965,-0.4606429599533333,0.5808051328166667
0 days 00:00:16.804279957,-4.88674211525,6.003592133500001,4.5152561662499995,0.1430950761,-0.7044797987,0.582994088525
0 days 00:00:16.824279957,-4.959922552,6.689534663833334,3.8464623691666664,0.1414151937,-0.5929969847500001,0.9151518047999999
0 days 00:00:16.844279957,-4.6396831275,7.6462647915,3.03589373825,0.16539163515,-0.6560687571749999,1.1515564922500001
0 days 00:00:16.864279957,-4.9698925017499995,7.272386193499999,2.76490652525,0.247247513375,-0.750294640625,1.21462821975
0 days 00:00:16.884279957,-4.600201606500001,6.2919270995000005,3.200400233,0.4896081239,-0.8075123429333333,1.2107085188333333
0 days 00:00:16.904279957,-4.2502514125,5.60040128225,3.0831519957499998,0.727998122575,-0.7362447679249999,1.147738546
0 days 00:00:16.924279957,-4.181457519333333,5.9210396605,3.2877383230000006,0.8439097106499999,-0.659581244,1.1087959410000001
0 days 00:00:16.944279957,-3.99421924375,6.93858754625,4.080959082,1.078939944175,-0.613155514025,1.12666377425
0 days 00:00:16.964279957,-3.779463351,8.167900324249999,4.1838502882499995,1.3489421899999998,-0.6049088538,1.1788926422500001
0 days 00:00:16.984279957,-3.6969109775,9.7615203875,4.2903308865000005,1.5288927353333335,-0.4326449831166667,1.2572360831666667
0 days 00:00:17.004279957,-3.14596354975,11.577672245,4.2460638285000005,1.4727950095,-0.32131487875,1.2744929790000001
0 days 00:00:17.024279957,-2.5970102149999996,11.521440825666666,4.312663952333334,1.1716386675,-0.48120872680000004,1.0339649914
0 days 00:00:17.044279957,-2.67517566675,9.1609213355,4.2927238945,0.708755850875,-0.832150533775,1.0454187392
0 days 00:00:17.064279957,-2.187638104,8.32582640625,4.0295134785,0.3840812147,-1.1255183519499998,1.176449239
0 days 00:00:17.084279957,-2.219342947,8.3964147565,4.005584955500001,0.09295325509833334,-1.3667590218333334,1.2764783301666667
0 days 00:00:17.104279957,-2.8773691652499997,8.86181855225,4.2867416147499995,0.002596174829999999,-1.416289985,1.3073269727499999
0 days 00:00:17.124279957,-2.7637100616666666,9.1389870645,4.310271103999999,0.165238924305,-1.3019055725,1.224249363
0 days 00:00:17.144279957,-1.9657037855000001,9.6676015855,3.921836138,0.37003134937500004,-1.1224640015,0.9945642202999999
0 days 00:00:17.164279957,-1.6432709994999999,10.11565733075,3.64127785,0.474183782925,-0.94729852685,0.741208031775
0 days 00:00:17.184279957,-1.6857435705,9.7998046875,3.7112679484999997,0.5600611716666667,-0.6480766237000001,0.5772417783333333
0 days 00:00:17.204279957,-1.2562318445,9.692127943,3.64127784975,0.61941687765,-0.5619956105999999,0.5327504426
0 days 00:00:17.224279957,-0.9052845637166667,9.970493317,3.7762729724999997,0.5186241865,-0.5319105088999999,0.49609856310000006
0 days 00:00:17.244279957,-0.6125625819,10.218549012499999,3.6388849614999996,0.28451027345,-0.46150834112500005,0.40813403574999996
0 days 00:00:17.264279957,-0.575473830125,10.668399807500002,3.4145579335000003,0.089338975015,-0.424703732125,0.286571942275
0 days 00:00:17.284279957,-0.79920277,10.95553827,3.3415768144999998,-0.046425723780000004,-0.4246019323666667,0.07796161621833332
0 days 00:00:17.304279957,-1.0642078668,10.331011772500002,3.1016963122499996,-0.099265528835,-0.363769985725,-0.0767398886525
0 days 00:00:17.324279957,-0.39042890069999997,9.915857156666668,2.491725961166667,-0.082466747615,-0.33582291010000004,-0.23724460605
0 days 00:00:17.344279957,0.0394815728,9.8943214425,1.7455640735000002,-0.1050687450725,-0.4109592736,-0.450894556975
0 days 00:00:17.364279957,0.06101697682500001,9.99781084225,1.861017793,-0.1689041164,-0.351552672675,-0.5846739560750001
0 days 00:00:17.384279957,-0.3218346387,9.804590702,2.199004054,-0.18824815998333333,-0.25875213741666664,-0.6303361058333333
0 days 00:00:17.404279957,-0.747757077225,9.38524889925,1.9932212530000002,-0.116675176185,-0.32864526655000004,-0.52083856615
0 days 00:00:17.424279957,-1.0679965019333333,9.110273202166667,2.0406789181666665,0.023518293165,-0.60277083515,-0.30352344365
0 days 00:00:17.444279957,-1.18564358325,9.38823962225,2.17866510125,0.1398880370175,-0.565813511625,-0.1146135069525
0 days 00:00:17.464279957,-1.13958175445,9.707082987500002,1.445264906,0.27152939517499997,-0.661719262625,0.009850193750000003
0 days 00:00:17.484279957,-0.19501504304999998,10.577472685,1.2909278275,0.4042906810833333,-0.7180206328833334,0.010970112555000001
0 days 00:00:17.504279957,0.814157902925,11.59143138,1.6480566262499998,0.48044513907499997,-0.416609779025,-0.14408773183999998
0 days 00:00:17.524279957,0.9954141773333333,12.085748511666667,1.563709617,0.57360202075,-0.117133320305,-0.32520914079999996
0 days 00:00:17.544279957,0.8745766580000001,11.5256280925,1.20299163475,0.449596487025,0.1278234529225,-0.09353867174250001
0 days 00:00:17.564279957,1.79461696725,10.76650524,1.1922239065,0.17333288678,0.042913250055149996,0.2511417865525
0 days 00:00:17.584279957,2.470589399,10.090533255,2.190629065,-0.20586143559333334,0.20021093620670002,0.37331472835
0 days 00:00:17.604279957,1.63728889825,9.2889373305,2.14815652375,-0.3845393881,0.83108155435,0.29894194005
0 days 00:00:17.624279957,-0.037088761683333325,8.2939217885,1.7435701291666668,-0.416915223,1.1867575645,0.2673296928
0 days 00:00:17.644279957,-0.638285450625,7.35912597175,2.05902391675,-0.48181959237500005,1.26113033275,0.19677481057500001
0 days 00:00:17.664279957,-0.65084775545,6.7824559214999995,2.522633314,-0.53542296585,1.3298526105,0.0234419345
0 days 00:00:17.684279957,-1.554138303,6.646064997,3.2685956955,-0.5076286445333333,1.16832977555,-0.2318486319666667
0 days 00:00:17.704279957,-2.2259233,7.3459653855,4.247858405,-0.351705387275,0.8184060901249999,-0.436691954725
0 days 00:00:17.724279957,-3.1082767251666668,8.596614361,6.0163536865,-0.29779657724999997,0.7267763614999999,-0.64041537045
0 days 00:00:17.744279957,-4.703093052,10.007980825,6.39721125375,-0.476627223175,1.4584396931,-0.936684742325
0 days 00:00:17.764279957,-5.16670238975,9.854241850500001,2.8133612870749998,-0.73227413,1.89032104625,-1.1231512424999999
0 days 00:00:17.784279957,-4.011567116,8.361718655,-0.17467605325000002,-1.03093612225,1.0718131249083334,-1.3064615926666667
0 days 00:00:17.804279957,-2.5316063165,5.578865885500001,1.9950159232999998,-0.7909171804749999,-0.10995565913750001,-1.41926792225
0 days 00:00:17.824279957,-0.9431709051,5.674977699666667,3.0472596089999997,-0.218689586965,-0.6360629498999999,-1.5557962060000001
0 days 00:00:17.844279957,-3.0095726252499997,9.283553839500001,2.45982158175,-0.1618791613825,-0.34804020452499995,-1.82656207725
0 days 00:00:17.864279957,-5.7445690635,11.6237342375,1.8933208587500001,-0.18066326154999998,-0.10002910719,-1.84183365125
0 days 00:00:17.884279957,-5.810969829499999,12.30269766,2.715853691,0.11463895438333332,-0.1579594462866667,-1.671453317
0 days 00:00:17.904279957,-3.6466617579999996,10.9268250475,2.2624138295,0.4227184206,-0.3381136507,-1.63795757275
0 days 00:00:17.924279957,-2.872184793166667,10.514860155000001,2.3928226031666666,0.4862483739999999,-0.67179852725,-1.5417463185000002
0 days 00:00:17.944279957,-3.9517466427500003,10.6127667425,3.46600359675,0.41050113740000005,-0.6939423680250001,-1.336037636
0 days 00:00:17.964279957,-5.4071811435,10.849656345,3.5892339945,0.202348955,-0.748462051175,-1.08543038375
0 days 00:00:17.984279957,-7.1270222665,10.963913439999999,3.980460405,-0.13846268253333335,-0.9159408310833334,-0.6561960528166667
0 days 00:00:18.004279957,-8.21874725825,11.0117697725,3.72383016375,-0.35369071365,-1.0693188012500001,-0.28977897389999996
0 days 00:00:18.024279957,-7.489534695833332,11.208379906666666,2.8446672361666665,-0.370489493,-1.172707677,-0.3746891692
0 days 00:00:18.044279957,-6.89551675275,10.231111287,2.2450658082499997,-0.269544091075,-1.3512329162499999,-0.707457751025
0 days 00:00:18.064279957,-6.3942202327499995,9.069994092,2.3928226235,-0.26633704825000004,-1.49188449975,-0.909043163025
0 days 00:00:18.084279957,-4.4267218115,7.239484786999999,2.2037895919999997,-0.4901171773833333,-1.5455387829999998,-0.9739475448833333
0 days 00:00:18.104279957,-3.1968110207500002,5.5920265915,1.85862499475,-0.648127540925,-1.65559628625,-0.909348592175
0 days 00:00:18.124279957,-3.9294135966666666,4.702694018666667,2.998605529666667,-0.5827650129499999,-1.651625693,-0.86612987515
0 days 00:00:18.144279957,-4.58404982075,4.771288394999999,3.49651205525,-0.2952004112,-1.3833032845,-0.729448914525
0 days 00:00:18.164279957,-4.69352161925,5.276772261,3.2057840825,-0.12660172581,-1.21485730975,-0.6816487461249999
0 days 00:00:18.184279957,-4.5786662105,5.3623154164999995,3.5425739285,-0.12828160324666668,-1.02945986405,-0.76045028365
0 days 00:00:18.204279957,-4.43509685975,5.397609710499999,3.310470104,-0.24449862169999997,-0.8713985979500001,-0.984637662675
0 days 00:00:18.224279957,-4.945565780333333,5.678168138,2.6564318735000003,-0.37323836985,-0.6892082095,-1.051527321
0 days 00:00:18.244279957,-5.164309502,6.78664314775,1.601396561,-0.41676249355,-0.64400418105,-0.9883028416499999
0 days 00:00:18.264279957,-5.53998255725,8.172087312,1.7144574525,-0.32528548687500003,-0.706312373275,-1.01731891955
0 days 00:00:18.284279957,-6.3349981305,8.941977977999999,2.3856441975,-0.08867720017666665,-0.5705986022666667,-1.1191296971666667
0 days 00:00:18.304279957,-7.3633136747500005,7.9477604625,2.2438694835,0.16997312382500002,-0.3488037959,-1.1550689635
0 days 00:00:18.324279957,-6.573881467,7.550950686166666,2.200200478333333,0.35399614275,-0.29061891135,-1.0475566985
0 days 00:00:18.344279957,-2.4323041735,6.723233342,2.861217737,0.8101594299249999,-0.559552147975,-1.09169170275
0 days 00:00:18.364279957,-1.70488613875,7.563114166250001,2.15234397355,1.0181589127500001,-0.50732320545,-1.1197914782499998
0 days 00:00:18.384279957,-2.3569303155,8.081758499000001,1.3100703656000001,1.1948515176666668,-0.8533271849333333,-1.0666971406999999
0 days 00:00:18.404279957,-2.9066812992499997,7.24187791325,2.5477578045,1.41827526675,-0.9317215085,-0.9484439492
0 days 00:00:18.424279957,-2.7597221928333333,6.1296140355,3.081157922666667,1.530827105,-0.8462004363500001,-0.81390097735
0 days 00:00:18.444279957,-3.1459636687500003,6.0825552940000005,3.16570431,1.6424627004999999,-0.7863356768750001,-0.5973493755
0 days 00:00:18.464279957,-3.7710884809999996,7.12223660925,3.0897321699999996,1.70904693,-0.73059427735,-0.380645111225
0 days 00:00:18.484279957,-4.2843489645,8.0099740025,3.7663028240000003,1.8721987205000001,-0.6729184587666667,-0.06711876640666667
0 days 00:00:18.504279957,-3.9056848285,7.327421426499999,3.8344982265,1.9471314849999999,-0.665689915375,0.2680932768
0 days 00:00:18.524279957,-3.23788778,5.592026472166666,3.4408789079999997,1.7455461024999999,-0.62659454345,0.41454809904999995
0 days 00:00:18.544279957,-3.02213489975,4.88195633875,2.1487546559999995,1.242040813,-0.634688481675,0.443716906025
0 days 00:00:18.564279957,-3.7459638117500003,4.9405804875,2.4011974929999997,0.8578068464749999,-0.6898190230250001,0.6233111545250001
0 days 00:00:18.584279957,-4.704289436500001,5.7631132605,2.7912275789999996,0.8130610088166668,-0.8538362383666667,1.1383211016833334
0 days 00:00:18.604279957,-5.585446119749999,7.4039915797499996,2.5244279502499998,0.97875809665,-0.94348064065,1.735390544
0 days 00:00:18.624279957,-5.980461438333333,9.883554141666666,2.4167509075,1.249523878,-0.9744819999000001,2.142379165
0 days 00:00:18.644279957,-5.251049161,12.28834105,2.7308089134999998,1.61146125175,-1.0251838265000002,2.137034118
0 days 00:00:18.664279957,-4.256831527,12.735798840000001,2.5716861189999998,1.776242018,-0.8155045061999999,1.69262999325
0 days 00:00:18.684279957,-5.0907301899999995,10.5044913305,2.0398812889999998,1.6189952495000002,-0.4561632822000001,1.1876993178333333
0 days 00:00:18.704279957,-4.9340003725,9.45763158775,2.21156632875,1.45034572475,-0.362853683525,0.984179541825
0 days 00:00:18.724279957,-3.5094732445,9.849655310666666,1.8360925315,1.319467902,-0.6592758298,0.7822887003000001
0 days 00:00:18.744279957,-2.27377963075,9.9816596525,1.43330073375,0.957225099175,-1.057406917575,0.6010145694
0 days 00:00:18.764279957,-1.85383933775,9.5790674685,1.23290187125,0.45509425550000004,-1.226310998,0.6071232259499999
0 days 00:00:18.784279957,-1.6486547585,8.7146601675,0.9834500848,-0.08480839430999998,-1.318602562,0.7978657484166667
0 days 00:00:18.804279957,-0.8907282351499999,8.700901508250002,0.6801598370249999,-0.5010618493,-1.63803392675,1.0067815035
0 days 00:00:18.824279957,-0.5024927481983333,9.802596569333334,1.7371892235833333,-0.69546955825,-1.7377576235,0.9982294140999999
0 days 00:00:18.844279957,0.021535404032499997,11.2259275925,2.02372974175,-0.691957086325,-1.421482325,0.710206657625
0 days 00:00:18.864279957,-0.23030917717500005,11.7942228275,2.389831543,-0.486095659425,-0.990364536775,0.39759660514999995
0 days 00:00:18.884279957,-1.0085747537999998,11.63031435,2.477767825,-0.07880155990666667,-0.499229228105,0.20563235383333334
0 days 00:00:18.904279957,-0.7639086096,10.9782702925,2.590828717,0.25473061575,0.0352774420775,0.26992587747499996
0 days 00:00:18.924279957,0.1770688792,10.873384795,2.4829523565,0.120340362175,0.100334541885,0.21326816825000003
0 days 00:00:18.944279957,-0.372083932125,11.217552659999999,3.056831002,-0.2926042377625,-0.2620609952075,0.1199585702
0 days 00:00:18.964279957,-0.1333998665,11.89352465,3.8691941502500002,-0.40973755715,-0.3794997558,-0.02512181551
0 days 00:00:18.984279957,0.69391854095,12.284751415,4.4063827995,-0.239764430885,-0.24531311915666665,-0.3348811628633333
0 days 00:00:19.004279957,1.06540426575,12.6185502975,4.627718806000001,-0.0531452363375,0.09544762409500002,-0.623463883975
0 days 00:00:19.024279957,-0.11605189246666665,12.421142101666668,4.030310869166667,-0.06200277621,0.6702713966,-0.7237984239999999
0 days 00:00:19.044279957,-1.2586246724999999,11.669198032499999,2.4299114645,-0.274278285025,1.065500885025,-0.571693062775
0 days 00:00:19.064279957,-1.101894795625,10.864012955,0.863210734075,-0.5957458764500001,1.0948223772499999,-0.550007358175
0 days 00:00:19.084279957,-0.26201409104999995,9.968499186,-0.40677986294999996,-0.9932661353666666,0.8049670756666666,-0.8225548763833332
0 days 00:00:19.104279957,0.470189645875,8.918648242749999,-0.59820565585,-1.26922434575,0.509766645725,-1.23631390925
0 days 00:00:19.124279957,1.2594223122833335,8.891330083166666,0.3672982751666667,-1.3658936620000002,0.6940950900499999,-1.398804009
0 days 00:00:19.144279957,1.3782658350750001,8.8295152185,1.3890335557500002,-1.188590169,1.3090832384,-1.3120611902500001
0 days 00:00:19.164279957,-0.14835501477500002,7.8550384045,2.3778675199999997,-0.809548571775,1.8541273475,-0.808555886025
0 days 00:00:19.184279957,-1.6450655465,6.900900602,2.796013236,-0.3880009551666667,2.2033384245,0.03397935626666665
0 days 00:00:19.204279957,-2.8205395940000004,7.6085779665,3.1890343427500003,-0.38759370147499994,2.2059854867500004,0.4466185197
0 days 00:00:19.224279957,-4.3676988685,10.102895814999998,3.2761730351666665,-0.76846790315,2.0025674104999998,0.4029416889
0 days 00:00:19.244279957,-6.15673267875,12.76451254,3.6460634470000004,-1.196989580675,2.0140210987500002,0.133397601555
0 days 00:00:19.264279957,-7.427919865,13.600804092499999,3.60538548275,-1.446527809,1.7854050100000003,-0.106366828065
0 days 00:00:19.284279957,-8.151150465,12.711870194999998,3.938586116,-1.8695516783333332,1.0199914472,-0.1660788581
0 days 00:00:19.304279957,-6.38165795825,9.886545180999999,4.4333020444999995,-2.32174432325,0.196393027925,-0.0810159425975
0 days 00:00:19.324279957,-4.388835668833334,7.186444123333334,4.3920258285,-2.725067735,-0.30375251174999995,0.215406190605
0 days 00:00:19.344279957,-3.20099848525,5.272584796,3.76570469125,-3.0376777647499997,-0.46807513385,0.47471828014999995
0 days 00:00:19.364279957,-3.043072224,4.29930412775,3.6269208195000004,-3.1261005402500004,-0.4289797917,0.617966070775
0 days 00:00:19.384279957,-2.7589244845,3.512663603,4.438685894,-2.9743006624999997,-0.276772658,0.7760782540000001
0 days 00:00:19.404279957,-2.451446891,4.456033945250001,4.493122816,-2.6768094305,-0.0971274976575,0.813137367375
0 days 00:00:19.424279957,-2.6352953715000003,5.782256047166666,4.930411100666666,-2.2730278970000004,0.106137751585,0.61979866025
0 days 00:00:19.444279957,-1.858625025,5.212764143999999,5.79840743525,-1.4436261950000002,0.359799362675,0.3572795242
0 days 00:00:19.464279957,-1.968096644,4.048057615499999,5.271986484499999,-0.699745595375,0.28817546365,0.30230169745
