time,acc_x,acc_y,acc_z,rot_x,rot_y,rot_z
0 days 00:00:00.049293179,1.9058832126666667,4.764508882833333,9.289336204166666,-0.05566505343,0.04894553869999999,0.05146535859
0 days 00:00:00.069293179,1.81435775725,4.7754758595,8.763114929,0.09827287311749999,0.0938441027,0.0423023849775
0 days 00:00:00.089293179,1.83948242675,4.8269213437500005,8.611768722250002,0.11430807415,0.140880692775,0.0511599238975
0 days 00:00:00.109293179,1.79820621,4.893322229,8.653643131499999,0.0440077171735,0.2266053756166667,0.04881827595
0 days 00:00:00.129293179,1.6923238037500001,4.8430731295000005,8.7762749195,0.01076649199325,0.282143160725,0.021227550750749998
0 days 00:00:00.149293179,1.6542380450000003,4.762115796500001,8.6703925135,0.022525639275,0.31864233315,-0.0099265527685
0 days 00:00:00.169293179,1.588834196,4.691727042,8.7176508905,0.04436405375500001,0.306119620825,-0.022296564185
0 days 00:00:00.189293179,1.55114725225,4.6528435945,8.704490899749999,0.10514510147,0.24869833142500003,-0.017715077845
0 days 00:00:00.209293179,1.5074782375,4.7198426725000004,8.601000785499998,0.21057017891666666,0.12499820689166667,-0.014508038605
0 days 00:00:00.229293179,1.49790698275,4.7868417505,8.567501306499999,0.270842179675,0.015042545740000001,-0.013591741444249999
0 days 00:00:00.249293179,1.5676976445,4.860221545000001,8.694320837833333,0.24976733325,0.008628465234999999,-0.0148134706535
0 days 00:00:00.269293179,1.5092728735,4.909473896,8.736195564500001,0.20211988684999999,0.06039925432,-0.023823726455
0 days 00:00:00.289293179,1.4943177104999998,4.896911502,8.751150369249999,0.16317725555,0.095982130635,-0.013897173572500001
0 days 00:00:00.309293179,1.6079768535,4.957928419000001,8.7050886155,0.14296781518333335,0.10870847854166667,-0.011351903589666666
0 days 00:00:00.329293179,1.60498583325,4.939982175500001,8.6751787665,0.1323285792,0.0817795228225,-0.036804601547499996
0 days 00:00:00.349293179,1.376670639,4.913262367333334,8.944769700333334,0.12240202724999999,0.007101302035000001,-0.04902189784
0 days 00:00:00.369293179,1.14496558925,4.829912423750001,9.111270428000001,0.13858994279999998,-0.0336739211375,-0.021838416115000002
0 days 00:00:00.389293179,1.1240283847499999,4.80837702725,9.046066045749999,0.1891390048,-0.04482220393,0.007177660937500001
0 days 00:00:00.409293179,1.2287144065,4.89930439,8.8857469555,0.2781725501,-0.06508255066833334,0.033852089196666664
0 days 00:00:00.429293179,1.279561877,5.018945694,8.75414180725,0.35056001692500005,-0.1106428820575,0.040927941915
0 days 00:00:00.449293179,1.2490534581666666,4.989434163,8.668398539333333,0.418671459,-0.1572213247,0.046273007990000004
0 days 00:00:00.469293179,1.2675978245000001,5.117649555,8.5178501605,0.49548769740000004,-0.176310852175,0.0919351484425
0 days 00:00:00.489293179,1.4590235950000001,5.3156555894999995,8.237890243750002,0.522518441075,-0.177838008875,0.117438754025
0 days 00:00:00.509293179,1.659422517,5.5082776550000005,7.972884893500001,0.4819977531666666,-0.14887283371666668,0.12090032298333335
0 days 00:00:00.529293179,1.8203398587500002,5.614758253,7.92143917075,0.41439539194999997,-0.081779524685,0.1007926873875
0 days 00:00:00.549293179,1.8392830095000001,5.599204858499999,7.896314620666668,0.3643044829,-0.010002911555,0.05818487145
0 days 00:00:00.569293179,1.840080619,5.51306343125,7.93280529975,0.32749987395,0.0686459296825,0.02886336111
0 days 00:00:00.589293179,1.8137595355,5.458028436,7.8388870955000005,0.303217999675,0.1308014169,0.019089524635
0 days 00:00:00.609293179,1.773081541,5.510670662,7.671389341499999,0.2685005267833333,0.20267984519999996,0.017460551886666665
0 days 00:00:00.629293179,1.68933281275,5.60279428975,7.41954469675,0.21662792565,0.247171156125,0.01313359267
0 days 00:00:00.649293179,1.4951153596666664,5.571687459833334,7.345168034499999,0.1541669965,0.20044000445,0.01267544413
0 days 00:00:00.669293179,1.46560388825,5.489733219250001,7.52482903025,0.1068249754625,0.121638450775,0.033292129870000006
0 days 00:00:00.689293179,1.56071856625,5.53998267675,7.6959156987499995,0.092927804215,0.104228803875,0.043982263655000006
0 days 00:00:00.709293179,1.4883356690000002,5.6602220535,7.6737823485000005,0.08687006185666667,0.09425134584,0.04484765666166666
0 days 00:00:00.729293179,1.46620208025,5.6961141825,7.7988071439999995,0.0732274167225,0.072921983895,0.0458148578175
0 days 00:00:00.749293179,1.4967105788333335,5.765904744833333,7.771489143499999,0.07444914430499999,0.07429642975,0.04169152304999999
0 days 00:00:00.769293179,1.59003064075,5.87079024325,7.7383884192500005,0.046807514504999995,0.0678823497125,0.033902994359999994
0 days 00:00:00.789293179,1.48355004225,5.866602897250001,7.6295150519999995,0.010155627169475,0.0607046885375,0.018020510439999998
0 days 00:00:00.809293179,1.0648061038999999,5.6195437905,7.398607492499999,-0.10147990998511668,0.05454513290666666,0.06775508401833333
0 days 00:00:00.829293179,1.36929273595,5.4406803845,7.7796645165000005,-0.18547382205000001,0.0089338973474,0.164933487775
0 days 00:00:00.849293179,1.4189438025,5.481956561333334,8.081359863333333,-0.1585957706,0.014431680524800003,0.1409570426
0 days 00:00:00.869293179,1.3866407277500001,5.307878970999999,8.271987915250001,-0.112475479,0.055665052027499995,0.1572976746
0 days 00:00:00.889293179,1.4039886595,5.167898654749999,8.37188839925,-0.0610101195025,0.1248454898275,0.179746955675
0 days 00:00:00.909293179,1.3543375734999998,5.237888813,8.1523468495,-0.019114976751666665,0.19310962656666666,0.21812962989999998
0 days 00:00:00.929293179,1.315454215,5.2307103875,7.75154912475,-0.018860450015000002,0.18089233335,0.2590066716
0 days 00:00:00.949293179,1.2382857003333334,5.1341997783333335,7.580063263499999,-0.06757691689,0.10147991402999999,0.30558510125
0 days 00:00:00.969293179,1.1347961725,5.054239630500001,7.8741811515,-0.120416721345,0.025274529585,0.36957319082499995
0 days 00:00:00.989293179,0.98285190735,5.07218587425,8.30728244775,-0.113544492025,0.057192216157499996,0.43417213855
0 days 00:00:01.009293179,0.8602197468,5.254638433499999,8.579465866,-0.09506583213333332,0.22691081591499998,0.5223402926999999
0 days 00:00:01.029293179,1.0965110065500001,5.66500759125,9.09571742975,-0.117209682275,0.459599383175,0.5858193039999999
0 days 00:00:01.049293179,1.3515459893333333,5.945366779833333,9.356335639666666,-0.09017891438999999,0.6940187513500001,0.5566505194000001
0 days 00:00:01.069293179,1.3447662889999998,5.977869152999999,9.276973008750002,0.04726566374,0.71768973765,0.480292424575
0 days 00:00:01.089293179,1.33639141925,5.78524672975,9.163314104,0.215558912595,0.608344972125,0.448832906775
0 days 00:00:01.109293179,3.3918261530000002,5.670989512999999,6.07537663,0.2646317134166667,0.5477166374666667,0.34966918083500004
0 days 00:00:01.129293179,3.7585262652499996,6.254838347250001,4.984847844,-0.6362920328999999,0.9525672643750001,-0.1365282796425
0 days 00:00:01.149293179,1.7994026740000002,5.2354960440000005,7.878767172833334,-1.286863029,1.0565669535,-0.18402301895000003
0 days 00:00:01.169293179,1.4572289869,4.3429729345000005,8.66201806075,-1.06878429675,0.8815542311,-0.03634645324
0 days 00:00:01.189293179,0.139381917175,3.3571301105,8.728418588250001,-0.9927316159999999,0.7722094505999999,0.26816964242
0 days 00:00:01.209293179,0.38524444405,3.4492539165,10.20419216,-0.7146863490666666,0.6718239883166666,0.5780308097833333
0 days 00:00:01.229293179,1.00438728955,4.6073798537499995,9.5766746995,-0.363235479225,0.5820777564999999,0.62033319475
0 days 00:00:01.249293179,0.7314061185000001,5.251846790333333,9.087142467333333,0.032910335799999996,0.2325104028,0.2811505087
0 days 00:00:01.269293179,-0.030508487952499996,5.047060966249999,9.573084831,0.47899436202499995,-0.231594115525,0.0175623619075
0 days 00:00:01.289293179,0.1513460390175,5.1152564289999995,8.560921191999999,0.776332765825,-0.354072503725,-0.024129158815
0 days 00:00:01.309293179,1.8723837734500002,5.6985070705,7.0121667384999995,0.45909032906999997,-0.3664425064833334,-0.08526654137833334
0 days 00:00:01.329293179,2.53998124625,5.9587267637500005,8.5680996175,-0.12744166608500002,-0.07490728055000001,-0.271071244025
0 days 00:00:01.349293179,1.0305089355000001,4.911268472500001,8.950353304333333,-0.56512628495,0.59444779155,-0.2542724684
0 days 00:00:01.369293179,0.6257231384499999,4.22811770475,9.08136034,-0.784732148075,0.70623604955,-0.08536835201000001
0 days 00:00:01.389293179,0.41934216022500004,4.289732814250001,8.758328676249999,-0.8117629439,0.6503419131,0.00885753846
0 days 00:00:01.409293179,0.1148554864375,4.235296011,8.778069496,-0.5974003027166667,0.43684467671666666,0.08272127216666668
0 days 00:00:01.429293179,-0.26321048873125,3.78065967575,9.04367303875,-0.2589303124425,0.234037578075,0.058337586930000004
0 days 00:00:01.449293179,-0.23290139931666667,3.7603208223333335,9.186445077333333,-0.0370336771,0.12530363725,0.055741412565
0 days 00:00:01.469293179,-0.12681960150625,4.0474594835,9.055038928750001,0.00526870874425,0.0875827390775,0.0902552735025
0 days 00:00:01.489293179,0.08614161355625,4.0193438530000005,9.068797588,-0.03596466471025,0.08834631927,0.134237540885
0 days 00:00:01.509293179,0.41635113954999997,4.17308259,9.108279705000001,-0.102396206945,0.189139007295,0.16702061641666666
0 days 00:00:01.529293179,0.7178467959,4.4865425825,9.3218386175,-0.0732274171725,0.21647521105,0.138360876575
0 days 00:00:01.549293179,0.8953144646833334,4.606981198,9.180861632166666,0.089109900405,0.05077813750500001,0.074983650815
0 days 00:00:01.569293179,0.467198625175,4.445266366,9.0957171915,0.145156741125,-0.0008399388774999999,0.074830933475
0 days 00:00:01.589293179,0.3684946969,4.2646082637500005,9.1298146245,0.07444914523,0.12133301468999999,0.1295033302225
0 days 00:00:01.609293179,0.21535404029999997,4.4039900305,8.860622406,-0.021660246573333337,0.2205985387,0.15449788666666667
0 days 00:00:01.629293179,0.144765775625,4.358526468000001,8.60578680075,-0.11217004433000001,0.295124046525,0.15745039655
0 days 00:00:01.649293179,0.3489533091333334,4.244069894333333,8.680761496333334,-0.12805252895,0.2025780305,0.16264274720000002
0 days 00:00:01.669293179,0.48215375842499997,4.23230516875,8.398807526,0.009086614472499997,0.016111558765,0.1256854292
0 days 00:00:01.689293179,0.5228317231249999,4.731806874,8.282755852000001,0.09537126495750001,-0.06711876625,0.0792597047975
0 days 00:00:01.709293179,0.4965106845,4.4410789015,8.837890148,0.134415706,-0.11211914195666667,0.07539089272166667
0 days 00:00:01.729293179,0.48993043599999997,4.552345037749999,9.048458576249999,0.179976038625,-0.131412288175,0.07498365268000001
0 days 00:00:01.749293179,0.5284149845333334,4.572684208333334,9.408977190666667,0.30505060405,-0.13889538125,0.06948586553000001
0 days 00:00:01.769293179,0.55573304,4.6899323465,9.6257276535,0.508010439575,-0.17936516925,0.060781044884999996
0 days 00:00:01.789293179,0.534197643375,4.66241490825,9.7064852715,0.6941714734000001,-0.2209039703,0.046425722537500005
0 days 00:00:01.809293179,0.44985064865,4.3645086285,9.713663578,0.9233475923833333,-0.33101235083333336,0.03873900727833334
0 days 00:00:01.829293179,0.439082950375,4.81854677175,9.331410169249999,1.13781204825,-0.46754062920000006,0.0332921301025
0 days 00:00:01.849293179,0.58105710645,5.0811590351666664,8.955138842166667,1.253418207,-0.48617200555,0.02855792921
0 days 00:00:01.869293179,0.4911268577,5.4412785765,8.551350117,1.33741211925,-0.498847447325,0.0013744459725000004
0 days 00:00:01.889293179,0.8093722612,5.7535420657500005,8.0703926085,1.4181989135,-0.5822305083000001,-0.058490302527499996
0 days 00:00:01.909293179,0.9643075467500001,5.8600227835,7.676175117499999,1.6157627701666666,-0.7815251251,-0.17995058246833331
0 days 00:00:01.929293179,1.1066804827499999,5.4460644725,7.682157158499999,1.9093342125000001,-1.002047315325,-0.3039052412
0 days 00:00:01.949293179,0.46061836804999995,5.265805085333333,7.219544728333333,2.1657447815,-1.2060761455,-0.24969098715000002
0 days 00:00:01.969293179,0.22253250147499998,5.252843856749999,6.50429034225,2.136270583,-1.44171726725,0.102319847825
0 days 00:00:01.989293179,0.78843504185,5.607580066,5.2540404800000005,1.79830956475,-1.45866876875,0.431881405425
0 days 00:00:02.009293179,1.688136339,6.397211313500001,6.4893350605,1.4464514256666667,-1.5717805226666666,0.5791507164666666
0 days 00:00:02.029293179,1.98664104925,7.1760751012499995,7.66002345075,1.418809772,-1.48554679775,0.596509471575
0 days 00:00:02.049293179,2.305484652666667,7.3507510825,7.649455229333334,1.432401538,-0.9828050434,0.5648972094500001
0 days 00:00:02.069293179,2.5591237545000003,7.45962440975,7.684549808750001,1.22883084375,-0.163940835285,0.535575687925
0 days 00:00:02.089293179,2.6913271547499997,7.3238319155000005,7.37767040725,1.036713883175,0.644996860505,0.455094263
0 days 00:00:02.109293179,2.3090738060000002,6.850651264,6.9966132640000005,0.7354048242333334,1.6106213131,0.4486292799666666
0 days 00:00:02.129293179,1.5822539625,6.74536704975,6.235097647,0.363693626625,2.66436308625,0.72723449765
0 days 00:00:02.149293179,1.2486546235,7.2865437665,4.9886363346666664,-0.03703367335000001,3.387932539,1.1122320593500001
0 days 00:00:02.169293179,0.8907282057,6.9116684195,5.0626144405,-0.354836083925,3.41190892475,1.387732059
0 days 00:00:02.189293179,0.05084747819999999,5.96411061275,5.896513104249999,-0.51381365955,3.59974986325,1.74905860425
0 days 00:00:02.209293179,-0.3337987512,6.118447542000001,2.4693929552,-0.7105121115333333,3.7394850653333336,2.3974915545
0 days 00:00:02.229293179,1.1066804822999998,6.06999266125,0.66640114785,-1.65765795075,3.717341185,2.84937870525
0 days 00:00:02.249293179,-0.03310071408333334,5.0344988505,2.9790642063333337,-1.9615632295,2.6377904415,2.7591234445
0 days 00:00:02.269293179,0.16510476312500003,4.790431023,4.130609989,-1.80502906475,1.9394193290000001,3.01064705825
0 days 00:00:02.289293179,0.4396811619255,4.25264394275,4.894518732749999,-1.9004766645000002,1.73936107725,3.1816891432500003
0 days 00:00:02.309293179,-0.23808585714900002,4.115654944999999,7.2263245585,-2.100433111,1.7365612983333332,3.4144796131666664
0 days 00:00:02.329293179,-0.007776677625000006,4.357330202750001,8.20498919525,-2.0363941195,1.7573816475,3.5830273630000002
0 days 00:00:02.349293179,1.2673984072833333,4.7860440415,7.7140614193333334,-2.2474478485000002,1.9493458270000001,3.4918557405
0 days 00:00:02.369293179,1.6181463305000001,4.34835696225,9.528818132,-2.4245986344999997,2.0157773494999995,3.020420909
0 days 00:00:02.389293179,1.0336993487000001,3.6215370892500003,10.491929294999998,-2.14024114625,2.05609452725,2.6568037275
0 days 00:00:02.409293179,0.34935209154999997,3.237488985,10.69950628,-1.7379866638333332,2.131179929,2.450636824
0 days 00:00:02.429293179,0.5874379724250001,2.99162650125,10.264611245000001,-1.6385684015000002,2.3583198787499997,2.35732716325
0 days 00:00:02.449293179,1.0161520144666667,3.1369905475,9.724830468666667,-1.8369467259999999,2.455141902,2.2200353145
0 days 00:00:02.469293179,1.497906983,2.7128626705,10.060024976000001,-1.81862080125,2.010890484,1.9686644675
0 days 00:00:02.489293179,1.8604196607499999,2.2845474777500003,10.695319175000002,-1.5275437537499998,1.4339287280000002,1.72248592975
0 days 00:00:02.509293179,1.5337993504999998,1.02532449355,11.335997104999999,-1.1056398056666668,0.9803107181999998,1.4434225955000002
0 days 00:00:02.529293179,0.3565305798575,-0.684347286975,12.60658574,-0.9212604463,0.7793871015,1.4031564
0 days 00:00:02.549293179,-0.25244279399166664,-1.1792627773333335,12.970693746666669,-0.8442915082,0.8504001498,1.576794744
0 days 00:00:02.569293179,-0.9349954727500001,-1.21794674535,13.0522496725,-0.454407036325,0.8284089863249999,2.16001793775
0 days 00:00:02.589293179,1.8460626900000001,0.6664010957,13.527822735,-0.17692171412500002,1.009377673625,2.1230606439999997
0 days 00:00:02.609293179,2.4789643285,1.2478569745,11.4233350755,0.058464849983333324,0.9957859617666666,1.5128575363333334
0 days 00:00:02.629293179,1.8628124592500002,1.1545369027499999,9.91645503075,0.17692171410000002,0.36216646802499997,0.9947932656999999
0 days 00:00:02.649293179,-0.24327030534999997,1.3483555516666665,10.707083857333332,0.4440223277,-0.5875755474000001,0.74815663695
0 days 00:00:02.669293179,0.04546363282499999,1.3872388897499999,10.8825573875,0.5700132101500001,-1.2564724537749998,0.573907464725
0 days 00:00:02.689293179,-0.5982056707,1.068395286575,11.235498665,0.41744972022500004,-1.3462696374999998,0.422260276975
0 days 00:00:02.709293179,-0.47138608620499994,0.14356936515,11.956934455,0.03341939239666667,-0.9823978247833333,0.2971348091666667
0 days 00:00:02.729293179,-0.3445664625525,-0.600000269675,12.3338043675,-0.240451652525,-0.3574322574,0.193796850725
0 days 00:00:02.749293179,0.012761719530000002,0.32303105795,11.276176611666665,-0.2529743761,-0.064064443115,0.2606865391
0 days 00:00:02.769293179,0.40259241315000005,0.9631111175,10.04985499675,-0.158290334025,-0.19494222108249998,0.298712864475
0 days 00:00:02.789293179,0.6083751768000001,0.869791016025,9.655637740749999,-0.15416699647499998,-0.3898080848,0.287564590525
0 days 00:00:02.809293179,0.6257231235499999,0.56590256095,9.680164337,-0.131310474105,-0.5194641202333333,0.2531525467666667
0 days 00:00:02.829293179,0.531804814975,-0.041276197900000006,9.81595683075,-0.03764454229,-0.601778179425,0.23289220032500002
0 days 00:00:02.849293179,0.97228362155,0.010767703256666669,10.314261756166667,0.01488982886,-0.3875173554,0.16233731804999998
0 days 00:00:02.869293179,0.92004027965,-0.022731807049999997,10.251450542,-0.0448222015975,0.049403686050000006,0.14630211145
0 days 00:00:02.889293179,1.0636096448,0.46660042555000003,10.0139629835,-0.10957387089000001,0.233732141525,0.1397353113
0 days 00:00:02.909293179,1.3998012544999998,0.8506484329499999,10.359725475,-0.012802708896666673,0.08101594448333334,0.058286679915
0 days 00:00:02.929293179,1.1850454512500002,0.7268198728249999,10.4919290575,0.1810450442,-0.18196134265,-0.033902994127
0 days 00:00:02.949293179,1.075174987166667,0.5104688356333333,10.358928201666666,0.21525347235,-0.22380558400000003,-0.020616685503999997
0 days 00:00:02.969293179,1.074377358,0.409172669075,10.7371931075,0.189902588725,-0.1382845156,-0.08017600048000001
0 days 00:00:02.989293179,1.092921703825,0.46779682485,10.843673944999999,0.19158247109999998,-0.02878700330825,-0.13713913782249998
0 days 00:00:03.009293179,1.03250294915,0.9750752446999998,10.186245917,0.2512944936666667,-2.5453548499999406e-05,-0.18310671795
0 days 00:00:03.029293179,1.16590285275,1.17188486425,9.51805043225,0.269925866275,-0.112628195445,-0.25961753354999995
0 days 00:00:03.049293179,0.9001001416833333,0.8195417324,9.308877786,0.19478950650000001,-0.2577085793,-0.33154687285
0 days 00:00:03.069293179,0.946361377875,0.48215377330000003,9.88116121325,0.1008690446675,-0.31390814484999996,-0.34116799384999996
0 days 00:00:03.089293179,1.26460680375,0.330209523425,10.646863937500001,0.0634535783925,-0.187764558925,-0.37461283059999995
0 days 00:00:03.109293179,1.275374472,0.6125625968,10.365707395000001,0.10947205811,-0.01682423302833333,-0.40098182855
0 days 00:00:03.129293179,1.42073842875,0.966700345025,10.0343019955,0.20822853595,-0.10041089727750001,-0.443640559875
0 days 00:00:03.149293179,1.15972135455,0.6959125796166666,10.167900882333333,0.34475681184999996,-0.33192864805,-0.5221366733
0 days 00:00:03.169293179,1.001994490725,0.73818579315,10.225727317499999,0.499152868975,-0.54466229675,-0.515875294825
0 days 00:00:03.189293179,1.1168500038,0.485144801425,10.3214406975,0.5971966833,-0.5752055347,-0.5180133432
0 days 00:00:03.209293179,0.9726823866,0.7322037367000002,10.570293905,0.7004837493166667,-0.3874155382333333,-0.47051860388333333
0 days 00:00:03.229293179,1.4943177697499999,1.54636165525,10.2664053475,0.805654302225,-0.34933829304999997,-0.5335903838
0 days 00:00:03.249293179,2.0546369948333334,1.9964116611666667,10.560722828333333,0.8368083834500001,-0.3511708826,-0.72158402205
0 days 00:00:03.269293179,2.4717857839999997,2.467000067,10.73121142,0.88674660025,-0.21281001720000003,-0.9366084486249999
0 days 00:00:03.289293179,2.578266382,2.82771819825,10.77248764,0.975474670425,-0.09277508967,-1.157894238925
0 days 00:00:03.309293179,2.4311078785,3.3296127319999997,10.95434189,1.191313545,0.01280270734666667,-1.4559452931666668
0 days 00:00:03.329293179,2.26420849525,3.528217018,10.6408822575,1.4656936825,0.14912736232499998,-1.7686062755000003
0 days 00:00:03.349293179,1.8875382341666667,3.5820555686666666,10.010772388166666,1.6162718535,0.28260131185,-2.0474660394999997
0 days 00:00:03.369293179,1.6360924842500002,4.0492542385,9.647861004,1.67476210025,0.27221661807499997,-2.2094979885
0 days 00:00:03.389293179,1.5876378717500002,4.451846718500001,9.4325067995,1.78196892175,0.115071656185,-2.325562239
0 days 00:00:03.409293179,1.14137640605,4.510470628499999,8.666803837000002,1.8674390713333333,-0.24834197883666667,-2.52017351
0 days 00:00:03.429293179,0.53180482235,4.15992212275,8.38923645,1.71737000325,-0.54786932465,-2.61999899175
0 days 00:00:03.449293179,-0.018743780441333336,3.710470358333333,8.5826559065,1.297705889,-0.46937321125,-2.476293087
0 days 00:00:03.469293179,-0.6065805405,3.8237304685,8.37248611475,0.8629228770999999,-0.226859904825,-2.1516185400000003
0 days 00:00:03.489293179,-0.91585284465,4.19701075575,8.01057195675,0.636444762375,-0.26381722835,-1.8600832817500002
0 days 00:00:03.509293179,-1.0241280795,4.620540619,7.8221371175,0.49879655245,-0.7075086980333333,-1.5776091816666666
0 days 00:00:03.529293179,-0.9385847003250001,4.7048876285,8.304889321000001,0.425849102425,-1.1623993217500002,-1.353523612
0 days 00:00:03.549293179,-0.7469594677333333,4.886143843166667,8.436295032166667,0.353003487,-1.3432152869999998,-1.2084432845000002
0 days 00:00:03.569293179,-0.6089733690000001,4.892723917750001,8.703294039,0.22563818472500002,-1.404454529,-1.1559089122500001
0 days 00:00:03.589293179,-0.48095735907500003,4.75274395975,9.147761106499999,0.152487121525,-1.3629157247500001,-1.11528640975
0 days 00:00:03.609293179,-0.3577269763,4.7246284485,9.3080801965,0.18460842225,-1.2956696751666668,-1.054098129
0 days 00:00:03.629293179,-0.326022081075,4.91007220775,8.976674556750002,0.28977897765,-1.28762662425,-1.027627319
0 days 00:00:03.649293179,-0.17986050651666666,5.274179776666666,8.466205279,0.33986988665,-1.325194776,-1.0340413450000001
0 days 00:00:03.669293179,0.04725824715,5.6428740025,7.991429805499999,0.32902704182500003,-1.427361876,-1.08443769825
0 days 00:00:03.689293179,0.28354948012500003,5.7481582165,7.66181814675,0.28809911015,-1.5420517925000001,-1.1702642440000002
0 days 00:00:03.709293179,0.56590256095,5.5334022045,7.570890665,0.14724386515500001,-1.5915318330000001,-1.3006838558333333
0 days 00:00:03.729293179,1.0420742334500002,5.38863647,7.81555688425,-0.0428368919525,-1.469358891,-1.38864839075
0 days 00:00:03.749293179,1.6259230178333333,5.5633125308333335,7.4584282239999995,-0.11614066360000001,-1.2992330189999999,-1.5187625285
0 days 00:00:03.769293179,1.70249331,5.46520686175,7.17607498175,-0.1587484851,-1.3691770132499999,-1.76891168975
0 days 00:00:03.789293179,1.134796127425,5.108676314249999,7.47936522975,-0.1711184978,-1.398803949,-1.823278666
0 days 00:00:03.809293179,0.46660043295,4.7712883945,8.1332039835,-0.31059929231666666,-1.5320743520000002,-1.9074761871666668
0 days 00:00:03.829293179,0.08733802939249999,4.439284205,8.77268576625,-0.3887390867,-1.4354558885,-1.84053555175
0 days 00:00:03.849293179,0.10767701826833333,4.322235186666666,8.582655985999999,-0.46555531025,-1.0328959523999999,-1.7157664300000002
0 days 00:00:03.869293179,0.45702912657499994,4.5373898740000005,7.3429744239999994,-0.6381246298250001,-0.551076382375,-1.6047417519999998
0 days 00:00:03.889293179,0.6939185858,4.718646049,6.379265308,-0.869031518725,-0.37804894895,-1.57053333525
0 days 00:00:03.909293179,0.6939185858,4.718646049,6.379265308,-0.931645155,-0.35056003930000007,-1.5654937030000002
0 days 00:00:03.929293179,0.6939185858,4.718646049,6.379265308,-0.931645155,-0.3505600393,-1.565493703
0 days 00:00:03.949293179,0.5643073556516667,4.476970990000001,6.84706219,-0.8366556763999999,-0.6034580618000001,-1.6067270635000002
0 days 00:00:03.969293179,-0.1507478263175,3.23270338725,9.0849497315,-0.7421243637999999,-0.353767067175,-1.5581632855
0 days 00:00:03.989293179,-0.501894541075,3.1549367305000002,8.5399839875,-0.84902569655,0.47028954330000006,-1.3784163892499999
0 days 00:00:04.009293179,-1.3411770761500001,3.6502509115,7.5469624995,-1.0701078276333333,1.0159444811666667,-1.1702642245000001
0 days 00:00:04.029293179,-1.84307166925,4.42552530775,7.47996366025,-1.100091070225,0.7399863079,-1.021824047275
0 days 00:00:04.049293179,-1.1258231003333334,4.439483404333334,7.871588706833333,-0.83115789295,0.17478368805,-0.8862120807
0 days 00:00:04.069293179,-0.451645284875,4.15752923525,8.5112700465,-0.48571385440000003,-0.329485194775,-0.847727596775
0 days 00:00:04.089293179,-0.522233545775,4.255036831250001,8.84925675425,-0.225332740675,-0.553367123025,-0.8833104520749999
0 days 00:00:04.109293179,-0.9774680733,4.377669096000001,9.256634712,-0.033775730680000005,-0.8094212710666667,-0.9057597318999999
0 days 00:00:04.129293179,-0.97866447265,4.0283169745,9.88295602825,0.04344775830075,-0.9098067432500001,-0.8633046448499999
0 days 00:00:04.149293179,-1.0189436575000002,3.790231029333333,9.964909871833333,-0.0752127296285,-0.6449968517000001,-0.8071050942000001
0 days 00:00:04.169293179,-1.2209377885000001,3.9146577715,9.9972126495,-0.283212177475,-0.38705918195,-0.74998925625
0 days 00:00:04.189293179,-1.25503551925,3.92781829825,10.2526466875,-0.33589927105,-0.3594175577,-0.6666062176
0 days 00:00:04.209293179,-1.2837493415,3.924229145,10.201798915,-0.14821107312333334,-0.6193405290333334,-0.5873974164333333
0 days 00:00:04.229293179,-1.25683012575,3.6640096305,10.5170533675,0.15004366076999998,-0.9647845476750001,-0.5198459476249999
0 days 00:00:04.249293179,-1.1314063268333332,3.4679975905,10.662816208333334,0.4275289922999999,-0.9754746854,-0.40698866549999996
0 days 00:00:04.269293179,-1.0289137365,3.4618161914999996,10.2335040605,0.55428342525,-0.747011289025,-0.2835939676
0 days 00:00:04.289293179,-1.15872436775,3.5072797534999998,9.7681005,0.488157317025,-0.557185024,-0.179594241075
0 days 00:00:04.309293179,-1.2658031585,3.6634114985000004,9.590433121,0.33885179460000003,-0.3649153435833334,-0.01430441625
0 days 00:00:04.329293179,-1.06600245875,3.8356947897499998,9.40020370475,0.24625487625,-0.186695551475,0.123241970325
0 days 00:00:04.349293179,-1.0360922216666666,3.862015764,9.010173320833333,0.1853211075,-0.06528617161,0.18585561220000002
0 days 00:00:04.369293179,-1.0803594589999999,3.739383519,8.78106093375,0.09140064381749999,0.052458010147500005,0.27000223474999996
0 days 00:00:04.389293179,-1.2257234160000001,3.60239452125,8.66321468325,-0.022831072095000002,0.1760054156175,0.35750862215
0 days 00:00:04.409293179,-1.412961781,3.5545380115,8.8390870095,-0.12459096621499999,0.28606288381666667,0.5155189633666667
0 days 00:00:04.429293179,-1.300499141,3.515654564,8.97368335725,-0.10987930560999999,0.36598435790000006,0.7107411772250001
0 days 00:00:04.449293179,-0.9471589823333333,3.5182468098333337,8.8713900245,-0.040393433529999995,0.37697991729999997,0.87399479745
0 days 00:00:04.469293179,-0.4953143001,3.5347972509999996,8.97129034975,-0.0034361146967499994,0.34170247612500004,0.994640588425
0 days 00:00:04.489293179,-0.129810624765,3.5054852364999998,9.04427146875,0.01427896349775,0.33131777495000003,1.0665698945000002
0 days 00:00:04.509293179,0.27278178742,3.5413775445,9.250652313,0.0018580468601000003,0.25979570051666667,1.1579450765
0 days 00:00:04.529293179,0.948155976875,3.70827680825,9.519844770750002,0.006185005534249999,0.19158246369999998,1.2586869002499999
0 days 00:00:04.549293179,1.6271193823333334,3.8133616448333334,9.454042434833333,0.0741437115,0.13080142439999998,1.2600613239999998
0 days 00:00:04.569293179,1.9704894422500001,3.8476588127499998,9.321838856,0.1741728205,0.049403688875,1.1963786785
0 days 00:00:04.589293179,2.1445673107500003,4.0211384295000006,9.07298564925,0.23617559300000002,-0.013057234695,1.1420117317499998
0 days 00:00:04.609293179,2.354537487,4.165904283500001,8.797212601,0.23775366195,-0.08208495626666666,1.0351612469833331
0 days 00:00:04.629293179,2.3204396962500002,4.231706977,8.81216740625,0.2082285285,-0.128816109125,0.918893322325
0 days 00:00:04.649293179,2.3146571715,4.0981076955,9.2414797145,0.24396412820000002,-0.1724929437,0.81871151925
0 days 00:00:04.669293179,2.8277181985,3.9427735805,9.52941632275,0.35300349445,0.13064869865,0.701120033825
0 days 00:00:04.689293179,2.76550477775,3.8979081515000003,8.17507851125,0.366747945525,0.45685049145,0.529161609725
0 days 00:00:04.709293179,1.8568303584999999,4.1850469115,7.4057860375,0.20069453306833332,0.4754309704,0.4081085821166666
0 days 00:00:04.729293179,1.42014023625,4.746761798750001,7.0151578185000005,-0.028787001042499996,0.21189370940000002,0.40286532789999996
0 days 00:00:04.749293179,1.3910275494999997,5.190430958833333,8.420741716666667,-0.1854738146,-0.267176982,0.3733910918
0 days 00:00:04.769293179,1.9782661792499998,5.403591633,10.09352445675,-0.1227074637875,-0.464486315825,0.29810202119999996
0 days 00:00:04.789293179,2.3850460055,5.2031928305,10.349556449,-0.020693045224999998,-0.278630696225,0.11331542021749999
0 days 00:00:04.809293179,1.7515461444999998,4.7748775485,9.230313301,-0.010155627426666666,0.04354956746,-0.04698568458333333
0 days 00:00:04.829293179,1.00498549635,4.5206401345,8.26181817075,-0.10224349423250001,0.10132719689935749,-0.0510072084155
0 days 00:00:04.849293179,0.8833503624666666,4.394418795666667,8.7692961695,-0.11675153298,-0.09888373835128501,0.020616685974
0 days 00:00:04.869293179,1.1724830869999998,4.34895503525,9.768100499500001,0.0071013029675000006,-0.234495718075,0.076205382125
0 days 00:00:04.889293179,1.56490603125,4.4045883415,10.036096333,0.1480583511275,-0.17615813019999998,0.08155044913500001
0 days 00:00:04.909293179,1.7599210145,4.441078901499999,9.8177514075,0.2910007015166667,0.06095921495666665,0.00799214840066667
0 days 00:00:04.929293179,1.6229319872499999,4.296312928,8.9282197955,0.365984357925,0.28229589759999996,-0.075594514595
0 days 00:00:04.949293179,1.2590235073166667,4.132404565833333,7.595217784166667,0.2913061455,0.29145886005,-0.09239329768
0 days 00:00:04.969293179,0.949950575825,4.033700764500001,7.23589551475,0.156610455375,0.011988220730000013,-0.01618791633525
0 days 00:00:04.989293179,0.7579265684000001,3.9164524080000005,7.6319078207499995,0.14347686995,-0.28107416444,0.09086613456824999
0 days 00:00:05.009293179,0.5491527915000001,3.780659795,7.8783686159999995,0.24121523648333335,-0.5982657025333333,0.26547164968333337
0 days 00:00:05.029293179,0.86081795395,4.28375077225,8.679366111499998,0.37713264674999997,-0.8392518609749999,0.44165524092499997
0 days 00:00:05.049293179,1.2909278077,4.676771799833333,9.071190516166666,0.4699840844,-0.6727912128,0.4918988496
0 days 00:00:05.069293179,0.9152546968499999,4.75274407825,8.45085096325,0.518853284425,-0.46326456967499996,0.502741701925
0 days 00:00:05.089293179,0.53718867155,4.6642093655,7.66421079625,0.5339721888,-0.5950586647,0.597578451075
0 days 00:00:05.109293179,0.44745783505000003,4.5248274805,7.439285755,0.5525526305166667,-1.01151574665,0.86208293835
0 days 00:00:05.129293179,0.70767728985,4.7012982367500005,8.10090088825,0.6625591963249999,-1.4853940605,1.1885901690000003
0 days 00:00:05.149293179,0.9738788405833333,4.705884536166667,8.910073757166666,0.9999093117000001,-1.869475305,1.496465981
0 days 00:00:05.169293179,1.1072787345,4.8448677060000005,9.107083081999999,1.48890656275,-2.0547200145,1.770896971
0 days 00:00:05.189293179,1.2346965375,4.8879383802500005,9.3601243495,1.95514917375,-2.1179444792499997,2.03081995225
0 days 00:00:05.209293179,1.8819550274999999,4.5966124535,8.4897348885,2.5659629901666663,-1.7599268751666666,2.3142103753333334
0 days 00:00:05.229293179,1.43988099675,4.613960147,6.51745069025,2.83326715225,-1.039004661225,2.5276057720000003
0 days 00:00:05.249293179,1.5098711051666667,5.071986357166666,4.285545309500001,2.328540206,-0.09369138442499998,2.864497662
0 days 00:00:05.269293179,2.77926343725,4.83170711975,4.26939386125,1.6066507102499998,-0.1476001990875,3.0268349645
0 days 00:00:05.289293179,3.3451660875,4.52123844625,5.95334279525,1.3531418145,-0.1133917719075,3.1256423590000004
0 days 00:00:05.309293179,4.516452789500001,4.447060823499999,5.8588261605000005,1.4501165948333334,-0.04461857925166666,3.259014566333333
0 days 00:00:05.329293179,4.8981078865,4.32981264625,5.6925250292500005,1.87879100425,-0.42661267522499996,3.2869107125
0 days 00:00:05.349293179,4.573880592666666,2.48813675355,4.829114953833333,2.3939026595,-0.6004036963,3.1760387425
0 days 00:00:05.369293179,4.33639287925,0.1651047570275,3.4456645847500003,2.1782674792499996,-0.22991422565000003,3.24430275
0 days 00:00:05.389293179,4.948357105,-0.02871387079,3.24466753,1.502345622,0.06116283687500001,3.43580895675
0 days 00:00:05.409293179,4.948357105,-0.02871387079,3.2446675299999996,1.313282967,0.1240819097,3.488190651
0 days 00:00:05.429293179,4.948357105,-0.02871387079,3.24466753,1.313282967,0.1240819097,3.488190651
0 days 00:00:05.449293179,4.948357105,-0.02871387079,3.2446675299999996,1.313282967,0.1240819097,3.488190651
0 days 00:00:05.469293179,6.191428542000001,0.4839484031575,4.1760737895,1.313282967,0.1240819097,3.488190651
0 days 00:00:05.489293179,9.8195459845,1.99740877775,6.684350252,1.3306925595,1.242422566175,2.1581853029999998
0 days 00:00:05.509293179,9.571290493,1.7288143635,4.4889353515,1.5761584245,1.2193624176833333,1.4454587898333333
0 days 00:00:05.529293179,9.7196457385,1.521236986,2.907279432,1.5619049375,0.65843586625,1.14674589
0 days 00:00:05.549293179,10.100104174499998,1.4504493078333336,6.974280436833333,1.14560055755,0.3791179508,0.9616538582
0 days 00:00:05.569293179,9.65085220325,1.4410773815,11.907283545,0.8699478209,1.614897407475,0.87598009405
0 days 00:00:05.589293179,9.196215868,1.2269197702499999,11.162517545,0.5846739635,3.17550426725,0.7417425662499999
0 days 00:00:05.609293179,8.5555377005,2.1008983254999998,9.6598248475,0.28652103496666664,4.1414343115,0.7032580872666667
0 days 00:00:05.629293179,9.526425123000001,3.7232321502500003,8.898309469500001,0.284892056125,4.0097929235,0.40637780164
0 days 00:00:05.649293179,9.188040415166666,3.583650748,8.595816771333334,0.5753582567,3.3399796485,-0.21578798817
0 days 00:00:05.669293179,7.2167532439999995,2.3623140755,8.22054254975,0.8168025612750001,2.650465906,-0.6436987518999999
0 days 00:00:05.689293179,5.748158216249999,1.531406492,8.23310458625,0.828408986325,2.1620795729999998,-0.6230820715000001
0 days 00:00:05.709293179,4.3166521785,1.229910791,9.5940222755,0.7118865251666667,1.8632139763333333,-0.2806414564
0 days 00:00:05.729293179,3.74297291025,1.657029659,9.700502634500001,0.6685151308999999,1.90505820525,0.23823726180000002
0 days 00:00:05.749293179,3.897908052,2.7170500758333334,8.493323723666668,0.7213549315500001,1.633834243,0.65225088595
0 days 00:00:05.769293179,3.862015784,3.2105697985,7.970492244000001,0.834670364875,0.99471692735,0.79137532415
0 days 00:00:05.789293179,3.3248269555,2.79840606425,8.17328405425,0.8748347312,0.48876816775,0.855668857725
0 days 00:00:05.809293179,2.8151557445,1.813759625,9.0747795105,0.8389464219499999,0.1972838689666667,1.09757129375
0 days 00:00:05.829293179,2.5998017190000002,1.493121296,9.410971164500001,0.7888555079499999,0.309021219575,1.43217244775
0 days 00:00:05.849293179,3.324827035333333,2.3441685038333335,8.608976840666667,0.73845916985,0.41149377819999994,1.7337869405
0 days 00:00:05.869293179,4.29571497425,3.2285159227499998,8.122436284750002,0.7292962074,0.15752675384249998,1.8347323235
0 days 00:00:05.889293179,4.7988057135,3.1698918345,7.5296148057500005,0.7630464881500001,-0.24640759080250002,1.72783100625
0 days 00:00:05.909293179,5.014159918000001,2.5160530805000003,6.953542709000001,0.5727111895833333,-0.5575413604666667,1.4894410571666665
0 days 00:00:05.929293179,4.9226343635,1.8011972905000002,6.41156828375,0.18165590705999998,-0.7686969638,1.2797617317499999
0 days 00:00:05.949293179,5.046462933333333,1.4185450473333334,7.5114692055,-0.07979421132999999,-1.04022634015,1.1580469009999999
0 days 00:00:05.969293179,5.09850668875,1.7928223612500003,10.039685726999998,-0.353156201525,-0.6772199421,1.072067678
0 days 00:00:05.989293179,4.692923367,3.8380874395,13.436297657499999,-1.754479966675,1.58572860055,0.3602574915
0 days 00:00:06.009293179,3.06999135,2.51007092,10.70429182,-1.9827398159999998,2.2180245123333333,0.11021018773333331
0 days 00:00:06.029293179,4.92682176825,2.5926232935,9.996614932,-0.4736492783,1.285641252625,0.3326158747
0 days 00:00:06.049293179,5.925825198666668,2.891726136166666,7.917849938000001,0.8029053809000001,0.8919389247999999,0.133626673355
0 days 00:00:06.069293179,5.57826781275,1.9334006609499998,5.16131842125,1.06603542,0.708068624125,-0.1533270645975
0 days 00:00:06.089293179,4.64506685725,0.7262216619924999,4.2017964125,0.5961276666249999,0.6453022808,-0.21548255535
0 days 00:00:06.109293179,3.720839262,0.08374879138500001,2.495713949,-0.32668539385,0.05352702736999998,0.042200572783333334
0 days 00:00:06.129293179,3.84287309675,-0.1908276025,3.60897469475,-0.8914807736499999,-0.882165089275,0.34513859449999995
0 days 00:00:06.149293179,3.6063825286666664,-0.4446662068166667,5.8711892765,-0.83848828075,-1.854509115,0.6745474338499999
0 days 00:00:06.169293179,4.559523701250001,0.6281159519999999,9.317651271999999,-0.949512958525,-1.5880193412499999,0.739146381575
0 days 00:00:06.189293179,4.9034919734999995,0.78305119275,9.548558711750001,-0.9259946346,-0.8484147936249999,0.55894126
0 days 00:00:06.209293179,5.422136068,1.89511549495,9.766305449,-0.6603193829166667,-0.66149021185,0.5392408668833334
0 days 00:00:06.229293179,7.5272216795,4.708476722,14.025529625,-0.03749183570000003,-0.9892191587,0.46715885588750006
0 days 00:00:06.249293179,7.180063167833334,4.908078193333334,9.905488014666666,0.63064152,-0.6599630415500001,-0.34529131277499997
0 days 00:00:06.269293179,2.9820551870000003,3.643670857,9.33739244975,0.8905645013,-1.4211005720749998,-0.35873033102499996
0 days 00:00:06.289293179,4.06361115,2.0919252334999996,7.128218532,1.138728320625,-1.9595778289999999,-0.09743292814750001
0 days 00:00:06.309293179,3.5904302599999998,1.621137321,6.050251961,1.0445024471833333,-2.891655643833333,0.3743073902783334
0 days 00:00:06.329293179,4.4757746455,2.2791635987500003,6.677171468499999,0.516562528925,-3.62418436975,0.917213439825
0 days 00:00:06.349293179,4.503292242666666,3.542972842833333,6.919245402166666,0.36522077024999994,-3.109836221,1.0172425505
0 days 00:00:06.369293179,4.3884366755,3.68075957925,4.728815794000001,0.44341146205000004,-1.94033563125,1.2620466647500002
0 days 00:00:06.389293179,5.2498526575,1.7383856180000001,3.7908293005000004,0.19845469295,-1.8089996875,1.812283099
0 days 00:00:06.409293179,7.1784677505,1.6295121909999999,3.9302111865000007,-0.08468113342666667,-2.892673750666667,1.824805816166667
0 days 00:00:06.429293179,8.08056211475,3.0406794247500004,2.86540514225,-0.45349074897499997,-3.37464606725,1.151174664475
0 days 00:00:06.449293179,8.798408985,3.8002011776666667,3.5545380908333333,-0.83726653455,-3.4546694755,0.09392046929999999
0 days 00:00:06.469293179,9.44387292875,3.98345148575,3.37986207,-0.76106117665,-3.52965301275,-1.0338886083249998
0 days 00:00:06.489293179,8.52323412875,2.6362923379999996,4.16829717175,-0.530459701975,-3.2920266390000004,-1.7282891870000001
0 days 00:00:06.509293179,7.110272407500001,1.4871392845000002,5.824130296500001,0.08147409061666665,-2.4181337358333335,-1.9105304878333333
0 days 00:00:06.529293179,7.3501529695,1.8167506455,6.062216043499999,0.9719622134749999,-1.4598904254999998,-1.70507633725
0 days 00:00:06.549293179,7.668597698166667,2.4626133245,5.1270213128333335,1.6898810265,-1.263191998,-1.4869976045
0 days 00:00:06.569293179,8.677571534750001,2.73439812675,4.57627344125,1.9578979907499998,-1.03029979765,-1.2835796475
0 days 00:00:06.589293179,9.47198843925,2.71046984175,4.323830365999999,1.79601880925,-0.802599981425,-1.1476622225000002
0 days 00:00:06.609293179,9.129814625000002,2.803191662,4.1288154125,1.3925935623833332,-0.6007091700833334,-1.0531818268333335
0 days 00:00:06.629293179,8.231309890750001,2.87078887225,4.49731004225,0.891633480825,-0.4511999823,-1.0172426104999999
0 days 00:00:06.649293179,8.523633161833333,2.985046227833333,4.222534219666667,0.4482983798,-0.2170860693,-1.0346522335000001
0 days 00:00:06.669293179,9.123832702249999,3.392424405,3.70349115125,0.06085740496,-0.476398177425,-0.9356921167500001
0 days 00:00:06.689293179,9.082556724499998,3.6370905045,3.8679976465,-0.07063123863250001,-0.9177479442250001,-0.7128791809499999
0 days 00:00:06.709293179,9.0951189995,3.780659795,2.6919254065,-0.39886924997833334,-1.1768564381666666,-0.4762200067333333
0 days 00:00:06.729293179,9.25842928925,4.4805603625,1.7868403195,-1.0018945931,-1.2173771265000002,-0.47357291725
0 days 00:00:06.749293179,10.560324031,6.147161483666667,1.6777674354999998,-1.341535389,-1.5035672785,-0.6330086291
0 days 00:00:06.769293179,12.4803648,6.929015994249999,2.04885432125,-1.4273618755,-1.72790738975,-0.6220130473500001
0 days 00:00:06.789293179,13.47936773,6.439683795,1.3531412426475,-1.7531055804999998,-1.370551527,-0.57253301145
0 days 00:00:06.809293179,13.399806499999999,5.1170511245000005,-0.063409801555,-2.3246204855,-0.24121523903333333,-0.47072221338333337
0 days 00:00:06.829293179,12.3062865725,3.7854453925000002,-1.1425728424250001,-2.57930022475,0.78473217795,-0.493884176
0 days 00:00:06.849293179,10.988240558333333,2.658426006833333,-0.9511470199333334,-2.177503824,1.3830742240000002,-0.4540252537
0 days 00:00:06.869293179,10.730015037500001,2.02073872125,-0.80279197739375,-1.3794089855,1.78761938225,-0.33719734845000005
0 days 00:00:06.889293179,11.2337038525,2.3467608095,0.46839504206875004,-0.6811905652999999,2.32945653825,-0.0801759984915
0 days 00:00:06.909293179,11.176874640000001,2.2743779424999997,1.8783658149999998,0.4440223276666666,3.311472575,0.43437577559633334
0 days 00:00:06.929293179,11.7230360525,2.7385854719999996,1.08454686415,1.3925426007500001,4.122955441,0.593149721625
0 days 00:00:06.949293179,10.4514505045,2.9176483548333336,1.1501500605666666,1.57106781,4.1298277375,0.29794929175
0 days 00:00:06.969293179,9.116654158,2.7122645377500003,2.71525537925,1.3940697910000002,3.28545987625,0.37384925412500003
0 days 00:00:06.989293179,8.803792715499998,3.2829527254999995,4.487140536,1.136743009,3.0081272125,0.650265552075
0 days 00:00:07.009293179,8.122436285,3.6346975564999995,5.3814580439999995,0.8560506403333333,3.0767986771666664,0.7936660647333333
0 days 00:00:07.029293179,6.4307106735,3.73699069025,5.16490757475,0.83253231645,2.84670615225,0.64049170915
0 days 00:00:07.049293179,6.504489501333334,3.0464620191666665,5.844868023833333,0.8529962897,1.9578979614999998,0.39171703160000004
0 days 00:00:07.069293179,7.658827185749999,3.22432845825,9.38823986025,0.8148172497999999,1.91299936175,0.39767297355
0 days 00:00:07.089293179,7.6378899815,4.01635271325,11.797811747499999,0.903545349875,3.4664285185,0.6169734150249999
0 days 00:00:07.109293179,7.381857872,4.5475592615,10.3896360415,0.9553161462166667,5.360923886333333,0.9724458159166667
0 days 00:00:07.129293179,6.32183754425,4.922634244,7.5655071737499995,0.593684215125,6.15774583825,1.1873683932499999
0 days 00:00:07.149293179,4.638885497833333,4.046262979333334,6.549155632833333,0.111101034927,5.9639492035,1.193477094
0 days 00:00:07.169293179,3.5910286905,3.2081769705,5.682355642499999,0.043142324256,5.261607527500001,1.23532131325
0 days 00:00:07.189293179,3.421736449,3.3517463207500002,5.0883374217499995,0.0695622246725,4.3054512735,1.13483402125
0 days 00:00:07.209293179,1.283749312,4.0390846725,7.622336626,-0.05261073106166666,3.684303720833334,0.9087122777666666
0 days 00:00:07.229293179,0.96550397575,5.7601224185,8.230711460250001,-0.0138208153675,3.3239443895000003,0.5485565867475
0 days 00:00:07.249293179,-0.39481571318333336,4.564708034333333,7.7340016365,-0.12011128851000001,3.0519567725,0.035582873035000004
0 days 00:00:07.269293179,-0.6125625973,2.532204642975,9.049057483,-0.18516838175,2.7075816987500003,0.14202606632
0 days 00:00:07.289293179,0.34995029732500005,1.755733594175,9.8961164935,1.6135228980749998,2.899698734,0.17409646885
0 days 00:00:07.309293179,1.03968140495,5.6662039755,5.9892349245,1.9113194941666667,3.9398487806666664,0.15154537065
0 days 00:00:07.329293179,-0.515653297275,7.313662290249999,6.95294451725,1.1729367373500001,3.624337077,-0.26587889345
0 days 00:00:07.349293179,-1.9206389584999999,6.507281144666667,7.2000033063333335,0.50907944145,3.2178065774999998,-0.5126682669
0 days 00:00:07.369293179,-2.059622109,5.242674232000001,6.827919245,0.1219438808025,2.84792792775,-0.742964267725
0 days 00:00:07.389293179,-2.83070910025,4.23409956725,5.888736486500001,-0.05902481172,2.2143085004999996,-0.942106202225
0 days 00:00:07.409293179,-3.9170507195,3.367897868,7.161718130000001,0.026292638235,1.3772710464666666,-0.7656681040666666
0 days 00:00:07.429293179,-3.7758741975000003,3.6161532995,8.617750525249999,0.483270406725,0.96050851045,-0.540309906
0 days 00:00:07.449293179,-3.5776687068333337,4.280759613,9.664211590833332,0.8438333571,1.2108103632,-0.4616610557
0 days 00:00:07.469293179,-2.3318056465,4.8490552905,8.84686374625,0.59414236995,1.91422122725,-0.416915215525
0 days 00:00:07.489293179,-2.75473701975,4.796413124000001,7.86281514125,0.09246965964500001,2.2039237025,-0.75151638685
0 days 00:00:07.509293179,-3.6526437995,3.4468610290000004,8.322237252999999,0.15650864379333332,2.2899029651666667,-0.9272418121833333
0 days 00:00:07.529293179,-3.5114672777500004,4.572085917000001,6.5419772865,0.38858636467499996,2.150778562,-0.833677724025
0 days 00:00:07.549293179,-2.9647071761666672,6.414359966666667,5.804190238166666,-0.0031306744000000144,1.59840405,-1.0850485859
0 days 00:00:07.569293179,-4.342972993750001,6.263811469,7.587640523999999,-0.4287507236,1.32550025,-1.62138783925
0 days 00:00:07.589293179,-5.14755964275,5.3431727887500005,6.68913579,-0.531986877325,1.379103601,-2.0306671855
0 days 00:00:07.609293179,-5.874379635,3.8775689605,4.9100722075,-0.47013681631666665,1.3356303771666667,-2.4151048658333334
0 days 00:00:07.629293179,-7.665407181000001,2.08893418325,5.4335021375,-0.396222177875,1.27235496075,-2.585332394
0 days 00:00:07.649293179,-8.511269966666665,1.6749758921666666,5.247061172833333,0.03810269385000001,1.3106867075,-2.4955352545
0 days 00:00:07.669293179,-7.261020184,1.83290213375,5.536393523499999,0.43944083149999996,1.31374105825,-2.40436375125
0 days 00:00:07.689293179,-7.23828828375,1.3579268454999998,5.939584017,0.61017753185,1.3529891075,-2.20476371075
0 days 00:00:07.709293179,-7.3854470254999995,0.6723831892000001,6.812366247,0.6124173800333333,1.3493748705,-1.7293072743333333
0 days 00:00:07.729293179,-8.3653082845,0.697507798675,6.168696880500001,0.6343066989999999,1.5040254595,-1.2728894947499998
0 days 00:00:07.749293179,-8.582257588666666,0.20338992368333333,5.732804378166667,0.4901426136,1.3543635605000002,-0.9414953292499999
0 days 00:00:07.769293179,-8.256434679000002,-0.23389841942499998,4.9680980447500005,0.2007454373,1.41453373425,-0.567951500425
0 days 00:00:07.789293179,-8.39820957175,-0.635892637075,4.61156737825,-0.05535961875,1.73080900325,-0.19837833196749996
0 days 00:00:07.809293179,-9.963713648,0.556331262,3.5461632015,-0.05841394638666666,2.339179495833333,-0.002290743871333333
0 days 00:00:07.829293179,-12.002996685,2.08055932795,0.966102138125,0.08681915698,2.1352015135,0.016798781464
0 days 00:00:07.849293179,-10.501301128333333,2.4973092478333334,2.7641090057499995,0.01947131381,1.07183861725,0.082314029335
0 days 00:00:07.869293179,-9.4546402685,3.1567313075,3.9170506595,-0.36949682047500004,0.30947937445,0.31047201339999997
0 days 00:00:07.889293179,-7.57747113725,3.754338682,5.8055859805,-1.086652115175,0.526641812175,0.28863360735
0 days 00:00:07.909293179,-10.4602241535,3.9254254100000003,5.965306759,-0.5347866764166667,0.8710677126833333,0.743167907
0 days 00:00:07.929293179,-12.2572336225,0.8895318022875,5.79122912875,0.6167443618749999,0.855592474225,1.51479199525
0 days 00:00:07.949293179,-11.377472559333333,0.6081757371083334,4.782853802166667,1.352378249,1.4111739989999998,2.4008513685
0 days 00:00:07.969293179,-9.5084788795,1.07138630725,2.46460741725,1.5648065205,1.7276019455,3.16641759875
0 days 00:00:07.989293179,-9.5922279335,1.4805589915,1.7431713340000001,1.4820343255,2.01867896325,3.7939283845
0 days 00:00:08.009293179,-6.2045891285,4.636093736,-1.880758643,1.0865503054166668,1.4697151780333335,3.992052236833333
0 days 00:00:08.029293179,-4.353142619,6.6628147365,0.7441678045000001,1.094898745375,0.78656476735,3.74460107075
0 days 00:00:08.049293179,-7.007779916166666,5.215555628166666,3.2227332195000002,1.549076736,1.0864993929,3.457952738
0 days 00:00:08.069293179,-8.7206424475,2.309672028,0.8237292762499999,1.1460586787,2.274784148,4.128377020249999
0 days 00:00:08.089293179,-4.4051864145,3.7369907207499997,-6.009573817750001,-0.13477205485,2.06938079,4.83117699625
0 days 00:00:08.109293179,-1.9022939205,8.2289168855,0.04546355999999996,-2.2213843716333335,-0.7947605650166665,3.343313892333333
0 days 00:00:08.129293179,-2.70867514575,8.9647096395,5.752345561,-0.710664805025,-0.145156770825,3.77942037575
0 days 00:00:08.149293179,-4.882953326,8.966703971166666,-0.2644068996333333,-0.8427643103500001,1.13903373495,3.3672393560000002
0 days 00:00:08.169293179,-7.4919275045,5.880361676,-1.74556413275,-1.967671782,-0.3719402849999999,4.196641087250001
0 days 00:00:08.189293179,-2.113460585525,7.452446341250001,-1.82751834425,-2.11275225875,-2.3065489825750003,4.642419576249999
0 days 00:00:08.209293179,-0.84945201875,7.5493555070000005,1.9621145725,-1.0130938092000001,-4.864545107,4.150571505166667
0 days 00:00:08.229293179,-1.0911271421,8.62433111675,2.684746981,0.6170497833499999,-5.894921303,3.5199556352499997
0 days 00:00:08.249293179,-0.4538387034666666,7.294918775833334,2.273580272833333,2.0835833545,-6.2261629105,3.1219772100000003
0 days 00:00:08.269293179,0.5240281634,7.35553681875,5.36111897325,2.905043781,-5.03451848025,2.926042259
0 days 00:00:08.289293179,1.4673985094000002,8.458029627999998,9.20817938675,1.7637956445,1.8922299147500001,3.1041093472499997
0 days 00:00:08.309293179,1.1282158793000001,8.848658323,-1.8580268025000002,1.264210125,1.8308380642166666,3.9633417525
0 days 00:00:08.329293179,2.78823664775,9.91585707625,-2.05423826,1.54770228225,-1.387350291025,4.5885109897500005
0 days 00:00:08.349293179,7.335596481166667,12.7389888735,-0.44187462336666666,1.4901282785,-1.8502330779999998,4.0349146125
0 days 00:00:08.369293179,11.442477700000001,15.0442738525,-4.06600397825,0.26015204747500004,-0.43195774772499995,2.1032073795
0 days 00:00:08.389293179,9.94636535475,13.52483177,-2.6494529245000003,-0.7402917575,-0.28397577625,0.2133445069
0 days 00:00:08.409293179,3.0305098889999997,9.0783691425,2.2683957815,-0.7146863365833332,0.5099448413166666,-0.48772463727666665
0 days 00:00:08.429293179,2.2414766850000003,8.01834845575,1.045065253925,-0.11003202197499999,1.02587105345,0.10980294505499999
0 days 00:00:08.449293179,4.585445762,8.895716985333335,0.39202410372066665,0.17554726450000002,0.43776096030500006,0.15470150672
0 days 00:00:08.469293179,4.200002133750001,9.03709316275,1.93040967,0.1949422173,-0.31253370087250004,-0.11468986139
0 days 00:00:08.489293179,3.7561333775000003,9.466604948,2.0135603101750004,0.34582583235000003,-0.462348274925,0.02397644520750001
0 days 00:00:08.509293179,3.2482566834999997,8.675178528,0.5970092415999999,0.3723475436166666,-1.0618102500333333,0.063377222045
0 days 00:00:08.529293179,2.69013077025,9.105886697499999,1.673181191125,0.520685873925,-2.255389094,0.0355828744395
0 days 00:00:08.549293179,4.0538403985,8.740183512,1.1541380982333334,0.5231293290500001,-3.1260241269999995,-0.23014330585099999
0 days 00:00:08.569293179,2.8887351157500003,7.51286494725,-0.7028916627,0.1430187169375,-2.7747768757499998,-0.69241521505
0 days 00:00:08.589293179,2.4011975527500002,6.34636390175,-1.24366959925,-0.015653410927500003,-2.519282639,-1.00303995585
0 days 00:00:08.609293179,2.595016122,5.0727839470000005,-1.7766708729999998,-0.34969463942,-2.1666610238333335,-1.3218604725
0 days 00:00:08.629293179,2.399402976,3.8315072655,-0.78065840155,-0.9310342818999999,-2.267148256,-1.48944106725
0 days 00:00:08.649293179,0.6129614115,3.5804602703333335,-0.7860422481666666,-1.3806307315,-2.3725224735,-1.3605485560000001
0 days 00:00:08.669293179,-1.38544428325,2.78644192225,-0.997208803725,-2.05838531275,-0.55779590465,-0.932485088675
0 days 00:00:08.689293179,-2.1481565532499998,2.3479572532499997,-0.263210505175,-2.4186427000000004,0.9098067206999999,-0.444709561775
0 days 00:00:08.709293179,-0.04187440849999994,5.0344989295,5.069194913,-1.69848407955,1.1816924611666666,0.18361576401666668
0 days 00:00:08.729293179,3.067598611,8.88215780225,4.908277570999999,0.159970210775,1.969962567,0.1766926423
0 days 00:00:08.749293179,6.311867156833332,20.089341800833335,-2.5040887591666667,1.3141992089999999,3.1591635940000002,-0.32391104105
0 days 00:00:08.769293179,8.7780696135,29.512475492500002,-6.27936455575,1.55533811425,3.281336546,-1.1873684079500002
0 days 00:00:08.789293179,3.2530424000749996,23.7302200775,3.7459639000000005,2.1119885739999997,3.13472896825,-1.8440480830000001
0 days 00:00:08.809293179,-0.14715859295000003,9.588040591999999,6.8063842034999995,3.376784126,6.444394469333333,-0.9382374013783332
0 days 00:00:08.829293179,1.9280169162,6.987042069499999,-5.88634341925,2.6174791381999998,6.30252110925,0.2970330007475
0 days 00:00:08.849293179,-0.06500499192833337,8.339385828,-2.7238297063333334,-0.10819943250000003,0.08162689200000006,1.1727076471
0 days 00:00:08.869293179,0.6352944038224999,10.240682605,1.9615163359249999,-0.65171636645,-2.8552582267499997,1.50089478525
0 days 00:00:08.889293179,2.97368031725,10.2370932085,-1.229910805725,-1.001894578,-2.8731260897500004,1.1905754207500001
0 days 00:00:08.909293179,3.1537402869999998,8.3342010975,-1.7108681795,-1.5292745035,-2.9554909865000005,0.38296129364166664
0 days 00:00:08.929293179,2.129612148,7.579863786500001,0.6652047035,-1.7925063372499999,-2.5498258475,-0.0945313246875
0 days 00:00:08.949293179,2.4478575386666668,9.205587148333334,1.0787641801833334,-1.5113558175000001,-1.15629065035,-0.47571095825000004
0 days 00:00:08.969293179,1.354935839975,9.68853855075,-0.41156549750000004,-1.06343922025,0.246407553525,-0.8463531733
0 days 00:00:08.989293179,0.887138977625,10.2131652815,-0.05383850647499999,-0.66469725965,0.809472188375,-0.811992034325
0 days 00:00:09.009293179,0.8458628059000001,9.531808853000001,2.000399768,0.32907793916666667,1.0275508762166667,-0.5742637862666666
0 days 00:00:09.029293179,1.6839489045,9.044271707750001,1.2783655225750001,1.406287044,1.33588489875,-0.3871355653
0 days 00:00:09.049293179,2.230110665166667,8.9336036045,-0.12522439163333335,1.55762881,1.945986092,-0.44547314945
0 days 00:00:09.069293179,1.9286151230000002,9.227322578499999,-0.69990064205,1.1674389244999999,2.4392594695,-0.671034976875
0 days 00:00:09.089293179,1.28434756415,10.1264255055,-0.728614501675,0.9379065037750001,2.1782674792499996,-0.76968961955
0 days 00:00:09.109293179,1.2430713773,10.2807626735,-0.47018964584999995,0.3406843841,1.3594540804666666,-0.46746427189999995
0 days 00:00:09.129293179,2.0057835875,9.81775116925,0.703489839925,-0.504345238225,0.06284271922500001,0.111330108725
0 days 00:00:09.149293179,1.7599210938333334,9.220741907666666,-0.31585260236666673,-0.4982365817,-0.7555633783500001,0.082924896865
0 days 00:00:09.169293179,1.42971155075,9.461220502500002,-1.9633109867499998,-0.40691228955000003,-1.1863757673,-0.10766491949250001
0 days 00:00:09.189293179,1.190429285525,9.75374293325,-1.6037893966,-0.4765508771,-1.3458114860000001,-0.143400508925
0 days 00:00:09.209293179,1.4213366805499998,10.296315671499999,1.1497512908,-0.33350670956666667,-0.9341395493266665,-0.07966694980333333
0 days 00:00:09.229293179,2.3754746915,10.1982102375,1.923829436,0.15844305044999998,0.137520939105,-0.13164136185
0 days 00:00:09.249293179,2.2121645608333336,9.368698119833333,-0.7294121187333333,0.5188532769499999,0.8647554516500001,-0.2133445293
0 days 00:00:09.269293179,1.8047865029999999,8.90309524525,-1.9710876647500002,0.44127345085,0.7503710239750001,-0.18784091992500002
0 days 00:00:09.289293179,1.2544372677499998,8.968299389000002,-1.3854442687250001,0.29710935055,0.53030698,-0.111940972495
0 days 00:00:09.309293179,0.98345008505,9.6035933495,-0.9643075167999999,0.20598869525,0.40324710306666667,-0.034462955427833335
0 days 00:00:09.329293179,0.67657060925,9.619744777250002,-0.7567301690249999,0.18012874945000001,0.272674765425,0.02031125424975
0 days 00:00:09.349293179,0.6576274236166667,9.3659068745,-0.8482556343000001,0.1578321829,0.2080758214,0.09178243203999999
0 days 00:00:09.369293179,0.66041906175,9.293125152750001,-1.313061446,0.0906370580125,0.0907897790825,0.129808763075
0 days 00:00:09.389293179,0.5186443254499999,9.029914140999999,-1.4859428704999997,0.03275762359,-0.10178534594750001,0.177761647875
0 days 00:00:09.409293179,0.33260233699999997,8.8821578025,-1.470389545,0.006948586942000001,-0.3682751059666667,0.31362816941666666
0 days 00:00:09.429293179,0.3421736285,9.279964208750002,-0.4085744712,0.0246636661475,-0.51030116525,0.45433069022499994
0 days 00:00:09.449293179,0.33579277,9.673783143666666,0.9304091944499998,0.18287764117000002,-0.06772962955,0.5117519796
0 days 00:00:09.469293179,0.371485710125,9.888339519999999,0.4803591408,0.405232422075,0.492586109775,0.463799089175
0 days 00:00:09.489293179,0.3332005562025,10.219146967499999,0.35114672410000003,0.500374607775,0.638277351825,0.36392270030000007
0 days 00:00:09.509293179,-0.09571290574500002,10.334600924999998,0.66400828955,0.48586655656666666,0.8944842019666667,0.2524398714166667
0 days 00:00:09.529293179,-0.35772697627500005,10.0983099975,-0.12502498177500002,0.32856890185,1.03060521155,0.16462806424999998
0 days 00:00:09.549293179,-0.47098727030000004,10.222935838333333,0.13678969941666666,0.070478522195,0.71936962005,0.096058487915
0 days 00:00:09.569293179,-0.23928226532500002,10.183255195500001,0.25124638527500004,-0.1367573547525,0.1474474826272,0.02199113217575
0 days 00:00:09.589293179,-0.241675078875,9.632905721250001,0.300897452975,-0.2667188384,-0.6063596504326,0.08506292119775
0 days 00:00:09.609293179,0.08374880255000001,9.413363933500001,-0.43549372999999997,-0.5340739886,-1.4928771952,0.3269653643166667
0 days 00:00:09.629293179,0.683749079725,9.430711985,-0.18305093486700003,-0.842764317975,-2.1075598595000002,0.48685921725000003
0 days 00:00:09.649293179,0.4650052090499999,9.405388196666665,0.122831558454,-0.9643264115,-2.262872219,0.55329078435
0 days 00:00:09.669293179,0.29132615777500004,9.6263258455,0.007776675734999988,-0.92278762165,-2.2857796550000002,0.61605715755
0 days 00:00:09.689293179,0.5527420267250001,10.145568130000001,0.244666120005,-0.80947217345,-2.1962879302500005,0.547640264025
0 days 00:00:09.709293179,0.6436693072,10.201799391500002,0.017946168779999997,-0.6824123164000001,-1.9537746506666667,0.38194320600000004
0 days 00:00:09.729293179,1.13120694465,9.86680436175,-0.12981063316500002,-0.61048299075,-1.7541745899999999,0.30634868145
0 days 00:00:09.749293179,1.6275181966666665,9.7838527365,-0.2703889583833334,-0.6094139814,-1.5927535295000002,0.24663665145000002
0 days 00:00:09.769293179,1.58285212475,9.74357366575,-0.537188671525,-0.684397622925,-1.410715848,0.16722423209999998
0 days 00:00:09.789293179,1.47816616275,9.61675453175,-0.45343989877499996,-0.680121585725,-1.248378545,0.09941824524750001
0 days 00:00:09.809293179,1.275374472,9.555737495499999,-1.0289137362,-0.6191878120333333,-1.0822742379999999,0.076205382745
0 days 00:00:09.829293179,1.4350953997500002,9.736993312500001,-1.030110150525,-0.553978011025,-0.9843321889250001,0.10063997095999999
0 days 00:00:09.849293179,1.6582261323333334,9.740383465833334,-1.1605189442833332,-0.46677705645,-0.7980184555,0.1253799982
0 days 00:00:09.869293179,2.16012060675,9.65085196475,-1.055234744875,-0.42218393089999995,-0.658894032225,0.09422589093
0 days 00:00:09.889293179,2.69850564025,9.430114031,-0.705284461425,-0.452574454225,-0.4058432877,0.01023198408
0 days 00:00:09.909293179,2.667997241,8.9503531455,-0.7657032310999999,-0.6260091215666667,0.055563246216666674,-0.11957678335666666
0 days 00:00:09.929293179,2.285743773,9.45224785825,-0.106480605925,-0.9179006964,0.473802000325,-0.157908540225
0 days 00:00:09.949293179,2.4047867855000002,9.771090984333334,0.5722834219166667,-1.475314796,0.8158862888999999,-0.080786865215
0 days 00:00:09.969293179,2.23549461375,10.45663476,1.23529463975,-2.3154066804999998,0.72960163655,-0.0517707904825
0 days 00:00:09.989293179,2.05483645225,11.231311085000002,2.0991035995,-2.806389272,0.868115231375,-0.09865466225
0 days 00:00:10.009293179,2.2660030125,12.260823250000001,5.741577863500001,-3.1520367465,1.1168389916166666,-0.17211115236666666
0 days 00:00:10.029293179,3.25064963075,12.8129673,11.406585697,-2.9620068669999995,2.14833506925,-0.28557928655
0 days 00:00:10.049293179,4.1192442575,10.115657805833335,0.38364927033333335,-2.5403574705,1.9835543333499999,-0.5346593857
0 days 00:00:10.069293179,0.967298578175,7.4464639425,-3.6987056735,-3.21459949025,-0.408744886525,-0.340709824125
0 days 00:00:10.089293179,-0.617348220225,6.3026949165,3.60418915725,-2.77340239275,0.009086616325000019,-0.22785256802499998
0 days 00:00:10.109293179,-3.1776684524999994,5.0356953145,6.3708903785,-1.0626756298333333,1.2572360982166666,-0.4507672960333333
0 days 00:00:10.129293179,-2.1343978349999997,6.2668025494999995,4.25443875775,0.29176429662500003,0.99609138835,-0.9013309626749999
0 days 00:00:10.149293179,-0.0574277540833333,8.606185674666667,3.326821088833333,0.5057196915,-0.09491311015,-1.366046369
0 days 00:00:10.169293179,0.9194420725250001,8.595617175,2.0823538305,0.5107593238,-0.910570278675,-1.4454588295
0 days 00:00:10.189293179,1.3950155675,7.328617453250001,2.00279253725,0.49380781497500004,-1.4487422107499999,-1.2649482187499999
0 days 00:00:10.209293179,1.5098710654999998,5.905486345,2.605783939,0.5420661519,-1.6476295391666664,-1.09146262205
0 days 00:00:10.229293179,1.67138662925,5.4047880172500005,3.4689946770000004,0.690506294375,-1.6032909157500002,-0.9611957072999999
0 days 00:00:10.249293179,2.3561327261666665,6.2508502801666666,4.7421756581666665,0.8248965442,-1.5912263394999997,-0.8663589656499999
0 days 00:00:10.269293179,3.2668010595,8.87019348225,6.9284181592500005,0.9675334691999999,-1.501734704,-0.97723093625
0 days 00:00:10.289293179,3.697509289,11.046465637499999,7.41715216675,0.9343940317749999,-1.0516800881000001,-1.2904518545
0 days 00:00:10.309293179,2.6285157205,12.10289669,6.082555294,0.8734602729500001,-0.4781289523,-1.7888665794999998
0 days 00:00:10.329293179,0.197407879,11.165508745,4.83051073525,0.930576130725,-0.1430187206475,-2.114966631
0 days 00:00:10.349293179,-1.3998012494,9.325627485666667,5.249852895666667,0.6801215708,0.04161516205500001,-1.9982914330000001
0 days 00:00:10.369293179,1.56789700695,8.63928628,7.024729252,0.425085529675,0.34903286767499997,-1.476612866
0 days 00:00:10.389293179,3.8877385262499997,9.442676544249998,6.8650082349999995,0.499458327875,0.5727620869750001,-1.2861757577500001
0 days 00:00:10.409293179,2.82233429,9.73041296,5.4006006719999995,0.4521672030333333,1.0447569491166666,-1.2357285423333333
0 days 00:00:10.429293179,0.4773681165,9.289535522249999,4.4476592539999995,0.19708025826250003,1.5605303945000002,-1.21210843325
0 days 00:00:10.449293179,-0.8626125454333334,8.677172342833332,4.722634395166668,-0.111559182425,1.9435426595,-1.01082849525
0 days 00:00:10.469293179,-1.2532408235,8.16790008575,3.1782665849250002,-0.0202348958825,2.10206198675,-0.611628353575
0 days 00:00:10.489293179,-1.36630171525,7.936992884,0.51804608105,-0.0895680468775,2.0315070745000003,-0.18371757677999997
0 days 00:00:10.509293179,-1.02771732195,8.152346611,0.24765715005,-0.2737437735,1.9585088093333336,0.12039126951166666
0 days 00:00:10.529293179,-1.015753164725,7.793423295,2.53100822875,-0.061315558874999995,1.87146058675,-0.0006108675175000022
0 days 00:00:10.549293179,-2.504487713,8.088538249333334,2.9531419379,0.53870636225,2.008599818,-0.5203040689
0 days 00:00:10.569293179,-5.2707901005,9.5479607585,0.491126835375,0.9495129436,1.5858813825,-1.0569487363
0 days 00:00:10.589293179,-8.05005359575,10.411171199,-1.164108231775,0.796644046875,0.7083740756750001,-1.419038832
0 days 00:00:10.609293179,-10.503294945,8.794819832,0.8769694564999999,0.02283107738000002,-0.7422261386833334,-1.33255060535
0 days 00:00:10.629293179,-7.28016305075,7.332804918500001,4.0558345317499995,-0.265649816,-1.37711825975,-0.59070622925
0 days 00:00:10.649293179,-4.495715022166666,6.473781665,3.725226124,-0.12927426025,-1.4272091985,-0.24510949105
0 days 00:00:10.669293179,-3.6269208192499995,6.610172510250001,3.6915270685,-0.0625372827,-1.0159444957,-0.010384701187499994
0 days 00:00:10.689293179,-3.17946302875,7.45424079875,3.29372042425,0.052458014335,-0.835433930125,0.1394298858875
0 days 00:00:10.709293179,-1.861616075,8.1786677835,2.3976082805,0.07903063243133333,-1.1150572993833332,0.36921685435
0 days 00:00:10.729293179,0.07357928152499998,8.2229351995,2.7182464597499996,-0.032757623693999996,-1.7541745899999999,0.58719377215
0 days 00:00:10.749293179,1.3818550509500003,8.086544433999999,3.6075789530000004,-0.1643989831,-2.198120594,0.7356339097000001
0 days 00:00:10.769293179,1.3657034934999999,7.770093441,4.01635289225,-0.142560567725,-1.92552214875,0.830012515225
0 days 00:00:10.789293179,0.920040309225,7.71804940675,4.360321164250001,-0.0422260277075,-1.4456878307499998,0.950352862475
0 days 00:00:10.809293179,0.53599226475,8.1774716375,3.9984066485,0.12545635053166668,-0.8101339489666666,1.1695515417166666
0 days 00:00:10.829293179,0.864407196675,8.58305478075,3.21834647625,0.215558912575,-0.230677814235,1.4211769107499999
0 days 00:00:10.849293179,1.6446667211166666,9.122636318166668,2.798007329166667,0.22197298705000001,0.20349432343000004,1.6030619144999998
0 days 00:00:10.869293179,2.036890179,9.637093067,2.97667145775,0.23617559297500001,0.5927678942750001,1.64063012575
0 days 00:00:10.889293179,1.5128620865,9.74357390425,3.395415366,0.27114761247499997,1.132466971575,1.6160428227499999
0 days 00:00:10.909293179,-0.42951166650000006,9.597611903999999,2.8103702065,0.3972911884333333,2.2068253956666664,1.618333499
0 days 00:00:10.929293179,-1.555334717,9.266804218249998,0.963709324475,0.49701485037500004,2.8198282125,1.7084361019999998
0 days 00:00:10.949293179,-1.4360924163333333,10.0785689345,1.3599208793833333,0.7213549614,2.2437826395,1.7805181145000002
0 days 00:00:10.969293179,-1.3070793744999998,10.857432602500001,2.05663105825,1.2567779421249998,1.36810803375,1.656512588
0 days 00:00:10.989293179,-1.3603197035,10.6528463375,1.64207452575,1.5246421095,0.9479857980249999,1.4755439165
0 days 00:00:11.009293179,-1.4009976385,9.969695569,1.963310957,1.6139302053333333,0.8296307226,1.3332632976666667
0 days 00:00:11.029293179,-1.3124631937499998,9.4031944275,1.59003067,1.59275353,0.671416759475,1.234710395
0 days 00:00:11.049293179,-0.6125625992333333,8.953941981166667,0.6835496822666666,1.290070057,0.263359091225,1.1012364625
0 days 00:00:11.069293179,0.3972085603500001,9.24287557475,1.2867403925,0.81558085975,-0.19051344366249998,0.97326029835
0 days 00:00:11.089293179,1.1024930480000001,10.54217839,1.7629120645,0.5762745737999999,-0.28870996835,0.862999230625
0 days 00:00:11.109293179,1.115055323,11.53699446,0.9140582308499999,0.52995066345,-0.29761841398333333,0.7439823945666667
0 days 00:00:11.129293179,0.6969095916500001,10.8089783225,-0.611366186275,0.41241008042500005,-0.42783442142500006,0.752585396175
0 days 00:00:11.149293179,0.7150551775333334,10.476575378333335,-0.6221338809333333,0.20792310685,-0.7729730307999999,0.87002417445
0 days 00:00:11.169293179,1.87956219875,11.78465152,1.6600207387500001,0.0767398886425,-0.6443860083999999,0.7968730926750001
0 days 00:00:11.189293179,1.499103419175,11.67577814725,1.4374882580000001,0.0764344576775,0.421573027975,0.41905322675
0 days 00:00:11.209293179,-0.7764709741499999,9.24347353,2.169093728,-0.09913826112666667,0.9155590336,0.26516621311666666
0 days 00:00:11.229293179,-4.93998244425,7.861020565,0.65563339025,0.563751839075,1.36367929755,0.548861995425
0 days 00:00:11.249293179,-5.403791189,9.904690903833334,0.7389833531166667,1.423849404,-0.6291143744000001,1.179732561
0 days 00:00:11.269293179,-3.339183837125,11.506486177500001,0.206979155525,0.9947169424,-1.49623689025,1.1508692505
0 days 00:00:11.289293179,2.132005006125,11.767901895000001,1.885544247975,0.07857249302499998,-1.15797057775,0.526260003575
0 days 00:00:11.309293179,4.291527390500001,10.640882015,1.3878371864499999,-0.79929111155,-1.4497093958333334,-0.7884737352833332
0 days 00:00:11.329293179,0.7585247494,11.739187959999999,3.5676985384999997,-0.8426116409,-0.952872678825,-1.5830560624999999
0 days 00:00:11.349293179,0.8693922235999999,9.085148812,0.09371888396666668,0.6159807741500001,0.51534077525,-1.9118540284999999
0 days 00:00:11.369293179,1.5906288025,7.596613883750001,-0.279362048925,0.562682822325,0.1963166613025,-1.2560906705
0 days 00:00:11.389293179,1.26879418085,8.85344409975,-0.311665154975,0.151876256795,-0.0982728693575,-0.5755873247
0 days 00:00:11.409293179,-0.6041877233,11.137392999999998,0.04785645005,0.10102176107333333,0.07246383775666665,-0.16416990755
0 days 00:00:11.429293179,-1.0001998842,12.5958180425,-0.010767707602499996,0.159817498165,0.2445749901,-0.18997894975
0 days 00:00:11.449293179,0.18983058630666672,12.232109071666668,1.0807582002716665,-0.12896882742000002,0.24686573445,-0.4430296719
0 days 00:00:11.469293179,1.328614752675,9.526425123,1.6492529885250002,-0.0681877806775,0.352239906825,-0.535728395
0 days 00:00:11.489293179,-0.074775703275,9.1591265205,0.5694917813,-0.05444332585,0.6300306766999999,-0.143553219745
0 days 00:00:11.509293179,0.36011979730000004,10.089336393,0.41036907214999996,-0.032452192156666664,0.9927316506666667,0.23971351982333333
0 days 00:00:11.529293179,1.9256239532000001,13.158729555,0.166899377525,0.06696605263250001,1.4079670012499998,0.20402884577250002
0 days 00:00:11.549293179,2.2197418215,11.920643490166666,0.85503531005,0.13278673121999998,1.4514911174999998,-0.10552689245500001
0 days 00:00:11.569293179,1.2496515883500001,8.1152578595,0.8979067059,0.1285106781775,1.6608649792499999,-0.191506106375
0 days 00:00:11.589293179,-0.39780675990000003,7.2801629302499995,0.6658029108999999,0.1065195463925,1.4818816187500001,0.10063997655
0 days 00:00:11.609293179,0.06580262630000001,8.678767680999998,1.2275180219,0.21270820623333334,1.412904759,0.17414737241666667
0 days 00:00:11.629293179,1.2472587976,8.48016381275,1.414158165,0.332386791725,1.491350025,0.08170316488175
0 days 00:00:11.649293179,2.013560255666667,6.8737819993333344,3.5046874803833337,0.42142033575,1.5898519755,0.0041233371035
0 days 00:00:11.669293179,3.2099715475,9.883553743500002,-0.049052860549999994,0.34093889597500004,1.5192970635,-0.00152716203475
0 days 00:00:11.689293179,2.82053965325,9.823134899000001,-0.04845466462499998,0.244116835325,1.51089769625,-0.10476331299325001
0 days 00:00:11.709293179,4.3920260665,10.147960660499999,-1.0660025181000001,0.12606722398333334,1.7146719695000001,-0.2506072695333333
0 days 00:00:11.729293179,5.61715114125,10.040283440499998,-0.32303106698249995,-0.0199294635,1.9319361745,-0.270002223575
0 days 00:00:11.749293179,5.2813582420000005,9.563713550833333,-0.873779051585,-0.1585957706,2.550742269,-0.12354740126500001
0 days 00:00:11.769293179,3.8536407350000004,9.649057388,-2.075773656,-0.1886808574,3.14526641375,0.020158536735
0 days 00:00:11.789293179,2.5956143735,9.61675405475,-3.323032498,-0.152487125225,3.385641754,0.1942550037225
0 days 00:00:11.809293179,1.2382857502,8.8642115595,-3.4061830044999994,-0.11715877908833332,3.1658831038333335,0.28369577729999995
0 days 00:00:11.829293179,0.9720841798500001,8.868996859,-1.85982143875,0.021914775252500004,2.691546619,0.314289934975
0 days 00:00:11.849293179,0.4689932242833334,6.2472612065,-1.0644072787833334,0.1868482679,2.4227660895,0.3437641561
0 days 00:00:11.869293179,-0.19082761927500003,5.8025950195,-0.954138025525,0.294513173375,2.34045201575,0.5019781291750001
0 days 00:00:11.889293179,-1.40757796175,7.1982086899999995,-1.5834503469,0.318795055175,2.22774750025,0.598647460325
0 days 00:00:11.909293179,-0.9822537155000001,8.408379078000001,1.7204394937,0.2545524463166667,1.8966078958333332,0.5457567771499999
0 days 00:00:11.929293179,0.842871763,8.450253248500001,2.07756823325,0.1702021975,1.8717660605000002,0.5470294356500001
0 days 00:00:11.949293179,2.006780669083333,8.364909330833333,2.65324145145,0.10713041202000001,2.526002288,0.5407680571000001
0 days 00:00:11.969293179,-0.06699902562500001,9.52762126975,-0.377467770975,0.169133190035,3.0661594272499997,0.5945241451500001
0 days 00:00:11.989293179,-1.7156538365,10.74915743,-1.3980066177500001,0.32139122482500004,2.58785235875,0.759763062025
0 days 00:00:12.009293179,-1.03489579245,11.995220185,-0.4151547253,0.4142935773,2.0538038018333333,0.6971494307
0 days 00:00:12.029293179,-0.23748765145,12.50548935,1.14197461335,0.30673048275000003,1.86764270075,0.389120869375
0 days 00:00:12.049293179,1.6490536332833334,11.656236968166667,-0.05543372029999997,0.1477529183,2.0562472345,0.29978188875
0 days 00:00:12.069293179,2.2929223775,9.64367341975,-1.2502498327499998,0.092316942295,2.33190000075,0.322689309725
0 days 00:00:12.089293179,1.4518451242250001,8.65842866925,-1.5523437257500001,0.20334160884000002,2.0727405845,0.4987710863
0 days 00:00:12.109293179,1.0588240324499998,8.451449871000001,-0.7010970561500001,0.3694968223333333,1.2649736605333333,0.6846267084000001
0 days 00:00:12.129293179,1.3818550705,8.7613198755,1.286142177675,0.37484189865,0.9678388834,0.64385147395
0 days 00:00:12.149293179,1.7659031355,10.2552391695,1.2793624998333333,0.43852454425000004,1.6655991675,0.45219266415000003
0 days 00:00:12.169293179,2.011167467,12.43968654,-0.8494520485249999,0.32078035925000004,2.00554534775,0.20326526090000002
0 days 00:00:12.189293179,1.75034979,12.2500553125,-0.37986058,0.285655640075,1.3300817010000001,0.037720901900675
0 days 00:00:12.209293179,2.9048866630000005,10.893324849999999,0.9032905696499999,-0.05922842770666665,0.5119810401833333,-0.2753473069331834
0 days 00:00:12.229293179,3.3720853925,9.796813726,2.65842592675,-0.5513817966,0.47700902817499996,-0.7072287202
0 days 00:00:12.249293179,4.5228337048333325,9.145767212166668,2.99501632055,-0.7227293849,1.4114794434,-0.52549643815
0 days 00:00:12.269293179,4.020540296749999,8.839086890499999,-0.0035892343250000028,-0.6801215857,2.4288746417500002,0.1029307097
0 days 00:00:12.289293179,2.49631226075,7.670192837749999,0.073579292725,-0.47700903567499997,2.537761271,0.5557342544249999
0 days 00:00:12.309293179,0.8781659156,7.968099593999999,-1.09830555325,-0.23749913273833334,2.8961862326666665,0.7963131666
0 days 00:00:12.329293179,0.27577281740000004,7.0366930960000005,-1.82692003275,0.027565274377500004,1.9675191937500003,0.699592888375
0 days 00:00:12.349293179,0.8259226283,6.604589303166667,0.7940183083000001,0.2800051495,1.1521673795,0.5160280168
0 days 00:00:12.369293179,1.09830555335,8.71824956025,2.68953263775,0.4247800931,1.1646901067500002,0.67378385365
0 days 00:00:12.389293179,0.14297112829999992,11.102098945,2.1631116867499998,0.5223657638,1.00785054255,0.963944613975
0 days 00:00:12.409293179,-2.6847469805,12.041880130000001,1.06600250295,0.6340012848333334,0.6948332277433332,1.0005456106666666
0 days 00:00:12.429293179,-2.4580270649999996,9.9164550295,1.472782321225,0.701349154125,-0.21876594982999997,0.5786416605
0 days 00:00:12.449293179,0.5635097026000001,10.133205254666667,4.513262232,0.35208719969999996,-0.5454258919,0.07925970105
0 days 00:00:12.469293179,3.49232459075,11.72841978,6.30628407,-0.42325295505000005,0.002977967249999977,-0.3660607152
0 days 00:00:12.489293179,4.2059838775000005,11.047661778,4.305286169,-0.8928552568000001,-0.10315979272499999,-0.2835939676
0 days 00:00:12.509293179,4.1515471935,8.158328771999999,2.6009982225,-0.7753655910333332,-0.19743658848333334,0.016137011343333334
0 days 00:00:12.529293179,2.85344099975,7.09591555575,1.9178473652499999,-0.526641786075,-0.1456148848,0.08704822882999999
0 days 00:00:12.549293179,1.6825531125,8.0490564505,1.4835500323333335,-0.30978479985,-0.28305947035,0.05451968312
0 days 00:00:12.569293179,1.7886349259999998,8.709874391749999,1.1455638110000002,-0.187306411575,-0.5245037824,-0.019242241044999997
0 days 00:00:12.589293179,1.7204394935000002,9.278768300749999,1.52063876375,-0.18913900105,-0.8050434291749999,-0.0846047727375
0 days 00:00:12.609293179,3.0628129244999998,9.4648098945,2.041077673,-0.17844887328333336,-0.9327141744999999,-0.19196425500833336
0 days 00:00:12.629293179,4.8000023365,9.53958559075,2.866601586,-0.17814343797499999,-0.5469530615925,-0.38331765679999996
0 days 00:00:12.649293179,5.779464324333333,9.304491042833334,2.5280171336333335,-0.17020219560000002,0.21632249281499996,-0.5151117146
0 days 00:00:12.669293179,4.33399999125,8.28335404375,0.9696913808500001,-0.128816109175,0.661184772825,-0.341320693475
0 days 00:00:12.689293179,1.80658110985,6.4953169825,0.903888776875,-0.010155627517500002,0.684550330025,0.09162972125
0 days 00:00:12.709293179,0.45343989135,7.3076806065,0.92721876525,0.09369138629666666,0.4916188816,0.49026990431666667
0 days 00:00:12.729293179,0.810568660475,10.41176939375,1.5607185365,0.06559160724249999,0.30505058915000005,0.3355174754025
0 days 00:00:12.749293179,0.13120643794,10.367303055333334,1.5984055398333332,0.003588831049999998,0.15370884909,-0.063377220195
0 days 00:00:12.769293179,-0.12323037534999998,9.388837576,1.82871475825,0.026801693249999998,0.0339793534975,-0.23365576935000001
0 days 00:00:12.789293179,0.50129634885,8.89771080025,1.3435699639999998,0.221667556105,-0.1410334063325,-0.2270889841
0 days 00:00:12.809293179,1.3686945737,9.5437731735,1.7336000205,0.11293362702,-0.45013097669999996,-0.10786854103
0 days 00:00:12.829293179,2.39222452075,10.1054882975,1.5762719514999999,0.07704531774000001,-0.39713847265,-0.141567910075
0 days 00:00:12.849293179,1.8783657748333333,9.389037131833334,1.4225330753333332,0.069256793705,-0.31115924565,-0.22403465214999999
0 days 00:00:12.869293179,1.610967904,9.331409931500001,1.9800606965000003,0.022067490264999996,-0.551839984925,-0.20341797175
0 days 00:00:12.889293179,2.39102804675,9.72622561475,2.3605195285000002,-0.033979352795,-0.618118792775,-0.157144960025
0 days 00:00:12.909293179,3.5078779459999994,9.614361286,1.8005990385,-0.09190969418833334,-0.5386045823333333,-0.12130755990999999
0 days 00:00:12.929293179,3.28055989775,9.51864886275,1.5529418585,-0.079488778485,-0.43440122905,-0.0323758320875
0 days 00:00:12.949293179,2.1603200635,9.267003536166667,1.5932211081666667,-0.07307469844499999,-0.26809328795,0.05910116806500001
0 days 00:00:12.969293179,1.65702968875,8.64108109475,1.329811185325,-0.047876527530000004,-0.162719111925,0.0241291587005
0 days 00:00:12.989293179,1.3938191535,8.521439790750001,0.983450084975,0.0014508040650000002,-0.2861137949,-0.011300999091500001
0 days 00:00:13.009293179,0.9164510668000001,9.184849739,0.9978070260499999,0.00012726352266666645,-0.4844412306833334,0.01827503818333333
0 days 00:00:13.029293179,1.42073844365,9.51984500875,1.546959877025,-0.0012980876500000016,-0.6138427705,-0.04993819561
0 days 00:00:13.049293179,2.6671995518333333,9.320841948,1.9042880336666668,0.088193600995,-0.49105893075,-0.16569706795
0 days 00:00:13.069293179,3.74117815475,9.72443151425,2.08295217175,0.127288943175,-0.38614289465000007,-0.15683953090000002
0 days 00:00:13.089293179,3.43549507875,10.2909321775,1.7802600565,0.10300707073000001,-0.33727371695,-0.1084285005925
0 days 00:00:13.109293179,3.0975089075,10.350154400000001,1.720439434,0.01264999093,-0.23653193314999998,0.0032070403316666676
0 days 00:00:13.129293179,3.190230787,9.25005435825,2.08055931325,-0.043295041655000005,-0.16058107835,0.08017600512999999
0 days 00:00:13.149293179,2.2492533226,8.914460817666667,2.1810579298333335,-0.052916161715,-0.14805835485,0.150425449
0 days 00:00:13.169293179,0.6424728817975001,9.188438892499999,1.714457452,-0.046502080745,-0.07780890260500001,0.22342379395
0 days 00:00:13.189293179,-0.1052841953825,9.07956552525,0.85483593115,-0.02206748957,0.0071013029700000025,0.18203770745
0 days 00:00:13.209293179,0.24047867955,8.9443712235,0.37926239520000005,-0.011784599397499998,-0.24152065877666665,0.01796960583
0 days 00:00:13.229293179,1.61994089195,8.8953180315,1.1742777226999999,0.0019089524865,-0.49121164527500005,-0.0948367584525
0 days 00:00:13.249293179,2.6628127695,8.814361254666666,1.6143577100000002,0.0041996953079999995,-0.4583776593,-0.06520981528
0 days 00:00:13.269293179,2.6081766484999998,8.897711038499999,1.5696916585,0.01702785631875,-0.351323597125,-0.0410806573925
0 days 00:00:13.289293179,2.30368995675,9.31166958825,1.4715859297499998,0.0176387201075,-0.280157856625,-0.03695731796
0 days 00:00:13.309293179,2.5387847420000003,9.422935963,1.4967105985,0.024256421876666667,-0.22299109153333332,-0.031103198728666664
0 days 00:00:13.329293179,3.16331160025,9.308079958250001,1.7174485025,0.0293978685525,-0.171576639625,0.0010690134960000004
0 days 00:00:13.349293179,2.833102027666667,9.602796077666667,1.8975083631666667,0.0197767480255,-0.1123227589,0.03375027981
0 days 00:00:13.369293179,2.72781783325,9.705288648500002,2.14755839125,0.02252563810775,0.029397867619999997,0.0229074298425
0 days 00:00:13.389293179,2.6464617849999996,9.379864454,2.0231315495,0.0626899972525,0.076739888635,0.032528549902499995
0 days 00:00:13.409293179,2.4358934165,9.5282196995,1.787438452,0.09104430675333335,0.29278240602666666,0.09015346070333334
0 days 00:00:13.429293179,1.9597217145,10.015757084,1.4081760945,0.08422297984,0.39041894675,0.11316270009
0 days 00:00:13.449293179,2.037887255333333,9.721240361333335,1.1696914832333334,0.11965313925,0.4056905657,0.07895427197
0 days 00:00:13.469293179,1.10847507425,9.11605572725,1.73599284875,0.08407026715249999,0.322918392725,0.100181823595
0 days 00:00:13.489293179,0.272183573835,9.172885655999998,1.024726271775,0.08743002079750001,0.22288928185,0.13591741585
0 days 00:00:13.509293179,0.17228323037,9.6131649015,0.57308104635,0.10509419189833331,0.07358375068,0.13118321200000002
0 days 00:00:13.529293179,1.2604193168500002,9.3104729655,1.0384850056500001,0.0878881681675,-0.135993773125,0.13927716765
0 days 00:00:13.549293179,2.5663023590000003,9.113464196833332,1.7782660325000001,0.049098256975,-0.1935677826,0.16478077319999998
0 days 00:00:13.569293179,3.07238429775,9.01854896575,2.0691933635,0.0785724818725,-0.11690424940250001,0.1866191961
0 days 00:00:13.589293179,2.7397819755,8.976674556750002,1.6773687005,0.094454966485,0.0643698740575,0.211664646875
0 days 00:00:13.609293179,2.177468538,9.474381446999999,1.336391449,0.09257146467666666,0.15004366386666668,0.22566363466666664
0 days 00:00:13.629293179,1.86101782275,9.82313489925,1.4117653665,0.0839175507425,0.10804670305750001,0.189215369525
0 days 00:00:13.649293179,1.7730815611666666,9.721240520666667,1.6350954770000001,0.07567087561000001,0.07215840369,0.1614210159
0 days 00:00:13.669293179,1.9393828217500002,9.30030345925,1.6731812659999998,0.0820849537875,0.1224020272625,0.165238920625
0 days 00:00:13.689293179,2.2983062270000003,9.1507520675,1.55413833275,0.08391754701750001,0.117362394925,0.185244746525
0 days 00:00:13.709293179,2.7038896085000004,9.6143612865,1.4464612600000002,0.08218676721333333,0.10097085932333333,0.23961170763333337
0 days 00:00:13.729293179,2.34676075025,9.916455030249999,1.4087742862500001,0.076434455815,0.11094831675500001,0.27137667685
0 days 00:00:13.749293179,1.8891334531666668,9.549356142833334,1.4356935423333332,0.06498074159,0.16928590835000001,0.24633121489999998
0 days 00:00:13.769293179,1.97886431225,9.300901651499998,1.53439748275,0.0416151639075,0.195094943075,0.19058981534999997
0 days 00:00:13.789293179,2.375474632,9.35174894325,1.64267271775,0.023594652304999998,0.21235186977499998,0.1638644747
0 days 00:00:13.809293179,2.906083107,9.2315096855,1.64626199,0.06925679308,0.28535022088333334,0.15470150358333332
0 days 00:00:13.829293179,3.0095726847499997,8.82951545725,1.5601203742499998,0.13263401385,0.37468919155,0.17088941482500003
0 days 00:00:13.849293179,2.649253487833333,8.736992835999999,1.4536397858333334,0.17218750715,0.42615453894999994,0.2402225733
0 days 00:00:13.869293179,2.29292225825,8.823533535,1.1976077262500002,0.18837542829999998,0.42676540465,0.283441253025
0 days 00:00:13.889293179,2.1224337217500002,8.803792953750001,1.18325078525,0.208075813925,0.3601811528,0.28145594147499997
0 days 00:00:13.909293179,2.036292076,8.935996055499999,1.4835500719999999,0.22115850201666665,0.27058765293333337,0.2942841053
0 days 00:00:13.929293179,1.95015043025,9.1974122525,1.3262219427500002,0.206090509875,0.1518762577375,0.31994043287499996
0 days 00:00:13.949293179,2.2743778626666664,10.481759864833334,2.1898315746666666,0.12606722117,0.11308633907499999,0.27687446025
0 days 00:00:13.969293179,2.367099702,11.4448707125,2.86061948525,-0.035506514832499995,0.2584721632,0.199447356125
0 days 00:00:13.989293179,1.8466607925,11.6943225875,3.474976659,-0.1863901186975,0.490753479275,0.1218675263
0 days 00:00:14.009293179,1.456032574,10.4925270065,3.7136607169999998,-0.31904958931666666,0.76223199565,-0.14950915175
0 days 00:00:14.029293179,2.0775682032500002,10.27597689575,4.09591412575,-0.333913967025,0.9458477645250001,-0.57238029685
0 days 00:00:14.049293179,1.8668004275,10.770095028333332,3.203590790333333,-0.4209621847,0.9954805373000001,-1.0483966770000002
0 days 00:00:14.069293179,1.9686948064999998,10.7246313075,2.2779671552500003,-0.633543126275,0.892549797925,-1.42636922
0 days 00:00:14.089293179,2.43768805275,10.341181277499999,1.68753814725,-0.79420056935,0.472732976125,-1.62963449925
0 days 00:00:14.109293179,2.451446891,9.9349999425,2.020738721,-0.9273691078833334,0.13833541979833333,-1.7761402329999998
0 days 00:00:14.129293179,2.2426730394999996,9.62931632975,2.97308218525,-0.9437097611749999,0.1214857315675,-1.7647883597499998
0 days 00:00:14.149293179,2.2967109285,9.731609344166667,3.3674990735,-0.6167443395,0.48418667915,-1.6992731095
0 days 00:00:14.169293179,1.670190185125,9.518050194,2.955734134,-0.376369051675,0.895451381775,-1.553123683
0 days 00:00:14.189293179,0.641874670975,9.15135025975,2.7326034310000002,-0.20609050245,0.9705877751,-1.19103360175
0 days 00:00:14.209293179,0.147158590022,9.190831660999999,3.2829526665,-0.028379760684999995,0.9158644874499999,-0.7642427384833334
0 days 00:00:14.229293179,-0.293718980214,9.576674223000001,3.8243288397499997,0.0891098976025,1.0753510892499998,-0.60185451805
0 days 00:00:14.249293179,-0.7529415289833334,9.518648147333336,2.889333327333333,0.11843140795,1.2178352475,-0.64278244975
0 days 00:00:14.269293179,-0.9014959484,9.06819963475,2.129612088,0.117973262425,1.06389740075,-0.680961519475
0 days 00:00:14.289293179,-0.9553344399500001,8.6709911825,1.872383714,0.1048396677,0.8642973005249999,-0.704785257575
0 days 00:00:14.309293179,-0.9212366941000001,8.333004951500001,2.239681959,0.11649700503333334,0.7078650097,-0.7361429830666667
0 days 00:00:14.329293179,-1.00378906755,8.27856826775,2.7882365582500004,0.20196716485,0.7480802685,-0.8231402784749999
0 days 00:00:14.349293179,-1.2107682823333332,8.053842306333333,1.9194425739999998,0.34567309915000005,0.72670003775,-0.91644987465
0 days 00:00:14.369293179,-1.42492586375,7.3645100590000006,1.506880075,0.327194437375,0.5147299468750001,-0.8269582092750001
0 days 00:00:14.389293179,-1.4632109997499998,6.978069067,2.059023887,0.26396994295,0.389349944875,-0.6099484711500001
0 days 00:00:14.409293179,-1.7324035765,6.7944197655,2.3198415039999998,0.3702095002166666,0.27822345,-0.3992510413333333
0 days 00:00:14.429293179,-2.1236300467499998,7.11146879225,2.2468604445,0.4860192761,0.09918917156749998,-0.1756236245925
0 days 00:00:14.449293179,-2.244467655833333,7.7543407281666665,2.351347089,0.54420414565,0.067576915025,0.010537417605000002
0 days 00:00:14.469293179,-2.327618182,8.081160545,2.03090813725,0.5616137831999999,0.037797256835,0.120645795045
0 days 00:00:14.489293179,-2.6177480817500003,8.408977270000001,1.8287146984999998,0.5449677408,0.07154753664249999,0.1852447465
0 days 00:00:14.509293179,-2.94077909,9.116654396,1.430907905,0.5341248810333333,-0.023950990597000007,0.24785838521666662
0 days 00:00:14.529293179,-2.6895326975,10.167103529999999,1.59302163125,0.545731321,-0.19998186080000002,0.257632225725
0 days 00:00:14.549293179,-1.9322043058333331,10.819546223333333,1.389831165333333,0.54481500385,-0.123623762275,0.08720094945
0 days 00:00:14.569293179,-1.1078769114,10.53081226075,1.1682956812,0.503581643125,-0.02848157076975,-0.09330959685000001
0 days 00:00:14.589293179,-0.25782663002499995,9.949954987,0.98105728635,0.518700569875,-0.05490147252824999,-0.07849612272
0 days 00:00:14.609293179,-0.010767698299999998,10.1228361145,1.6785651445,0.49054987234999997,0.06085740122966667,-0.14166972044333334
0 days 00:00:14.629293179,-1.1940184943249998,10.712069034999999,2.53938305375,0.47914706170000004,0.529237963275,-0.3492619321
0 days 00:00:14.649293179,-2.175075809166666,11.444073038333334,2.7210381426666665,0.6321686804,0.78900823,-0.3330740184
0 days 00:00:14.669293179,-2.6255245804999996,11.767303465,2.52682077875,0.7008909731999999,0.8994220345999999,-0.270613104125
0 days 00:00:14.689293179,-3.0526435375000003,11.33300638,1.9752751587500001,0.5078577176,0.827798128125,-0.31780240687499994
0 days 00:00:14.709293179,-3.4085758925,10.2257275585,1.8053846955,0.07261655232333332,0.5243001530833333,-0.4121810197833333
0 days 00:00:14.729293179,-3.4666017292499998,9.477371931250001,2.3156540695,-0.263359081,0.2665661089,-0.347429349975
0 days 00:00:14.749293179,-2.9726832704999997,9.503493944666667,2.417149702833333,-0.38889178635000005,0.20044000445,-0.2035706937
0 days 00:00:14.769293179,-2.6823542715000004,10.008579016999999,2.7912275795,-0.5231293216249999,0.27954700215,-0.152258049675
0 days 00:00:14.789293179,-3.1555349227500002,10.0701940095,2.40478676575,-0.6657662689499999,0.37865979969999997,-0.166918803
0 days 00:00:14.809293179,-3.747160196,9.0101737975,1.9669002295000002,-0.8734093805166667,0.32169665895,-0.13505202164349997
0 days 00:00:14.829293179,-3.6335011127500003,7.456633568000001,2.1373887655,-0.966006279,0.32994335145,0.04001164240425
0 days 00:00:14.849293179,-2.6344976824999997,7.0484580196666675,1.5581263300000001,-0.9698241949,0.25327981265,0.17883066085
0 days 00:00:14.869293179,-2.16789734375,8.369495511,1.9292132849999999,-0.996091351175,0.13355031234999998,0.181121401475
0 days 00:00:14.889293179,-3.13998150825,10.08873820325,2.6291139122500002,-0.8316160292249999,0.27847798167500004,0.106443185355
0 days 00:00:14.909293179,-4.269991875,10.309476375000001,2.294716954,-0.5407935082666666,0.30113088464,-0.007890336836999997
0 days 00:00:14.929293179,-3.5300115345,9.07119083425,2.3605195285000002,-0.582841381475,0.04436405392725,-0.1114828232725
0 days 00:00:14.949293179,-2.7629125515,8.063413461166666,1.8923238913333336,-0.9411135615999999,-0.0219147742005,-0.1418733485
0 days 00:00:14.969293179,-2.3796620962499997,7.99621510525,1.69651123875,-1.2645664215,-0.0327576245175,-0.0765108168075
0 days 00:00:14.989293179,-2.17926317425,7.91605556025,1.80837565675,-1.320765972,0.013209950175,-0.11377356757749998
0 days 00:00:15.009293179,-2.017149508,7.539784193,1.782652855,-1.1401536561,0.11135555837,-0.23757549626666666
0 days 00:00:15.029293179,-2.7272196707500003,7.581658483,2.14636185775,-0.8778890370999999,0.20074543357500002,-0.37751443687499997
0 days 00:00:15.049293179,-3.2267214060000007,8.364909251333334,2.764507790333333,-0.51534080505,0.31558801235,-0.4161516279
0 days 00:00:15.069293179,-3.0137601495,8.595617294250001,1.9728822407500002,-0.34933830050000003,0.252210788425,-0.375070974225
0 days 00:00:15.089293179,-3.3678978082499995,9.357132912,2.206780672,-0.358501270375,0.17844887075,-0.337655507
0 days 00:00:15.109293179,-2.7912275789999996,9.902696608500001,2.2803598645,-0.36181011301666666,0.14210241537999999,-0.31026840706666664
0 days 00:00:15.129293179,-1.841277003,8.565706491,2.21754837025,-0.28260132299999996,0.08620829136,-0.356134176275
0 days 00:00:15.149293179,-1.9330018756666665,6.737789710333334,1.9445671838333334,-0.05535962057999999,0.14240785690000002,-0.2671006322
0 days 00:00:15.169293179,-2.5016961095,5.55733060825,2.0368902385,0.231441387885,0.258624877775,-0.14508038757499997
0 days 00:00:15.189293179,-2.9928229450000003,5.77507746225,2.517847538,0.597196660925,0.44646579772500006,-0.207999452975
0 days 00:00:15.209293179,-3.6897325515,8.999405862,2.0315064195,1.1647409795166668,0.5386554499666666,-0.39069892465000006
0 days 00:00:15.229293179,-3.9397825595,14.106287715,2.3401806355000003,1.45668345725,0.604832470375,-0.6692023426
0 days 00:00:15.249293179,-4.4031925995,15.285351278333332,3.237488985166667,1.1886665225000002,0.8882737755500001,-0.7799215912999999
0 days 00:00:15.269293179,-4.191627026,12.8919301065,2.68055960525,0.76029756665,0.549091085775,-0.7573196292
0 days 00:00:15.289293179,-3.1926236155,8.134998798,2.4358935054999997,0.09094249082500001,-0.16317726675000002,-0.637742847175
0 days 00:00:15.309293179,-1.5852450430500002,3.974478483,4.072584152499999,-0.4307360226833333,-0.5255727916666667,-0.2635372566283333
0 days 00:00:15.329293179,-0.63649085165,4.885545492,2.8055844309999998,-0.36430447925,-0.295124048345,0.037415469065
0 days 00:00:15.349293179,-0.6947161952666666,6.605387051666667,2.336990158166667,0.11934769895000001,-0.015500694515000002,-0.018478659915
0 days 00:00:15.369293179,-1.097109183725,7.472187042250001,2.91027045275,0.7537307813999999,0.2961930502375,-0.07528908458
0 days 00:00:15.389293179,-1.7264215649999999,6.842874527,2.69431829425,1.0864993483249998,0.4478402436,-0.005803215314999999
0 days 00:00:15.409293179,-2.562713027,6.69511795,2.2480568885,1.0911317565666667,0.4608720242833333,0.26720243881
0 days 00:00:15.429293179,-3.37926369925,8.12841880275,1.9202401342499997,0.85727234185,0.40217810127500003,0.47204575690000006
0 days 00:00:15.449293179,-3.6083765828333334,9.668997446333334,1.6398810945,0.6049852073499999,0.168064177055,0.6302597523000001
0 days 00:00:15.469293179,-3.5425738097500004,10.4566349975,1.7916259465,0.526336371925,-0.0458912197525,0.72616551815
0 days 00:00:15.489293179,-3.76091885575,10.12821984375,1.6420745255,0.535499334375,-0.16806417521,0.77854718265
0 days 00:00:15.509293179,-4.0307096245,9.3798646925,1.9082760810000001,0.5648717483166666,-0.19153156381666667,0.8835650086166668
0 days 00:00:15.529293179,-3.482155204,8.751749038749999,1.61814636025,0.570165932175,-0.23877176644999998,0.91919876635
0 days 00:00:15.549293179,-2.4454646908333335,8.758528391666665,1.5242280164999997,0.52312932905,-0.29955281315,0.6882918774999999
0 days 00:00:15.569293179,-2.04287230975,8.421539187499999,1.756331861,0.462348282325,-0.24946190045,0.439517207425
0 days 00:00:15.589293179,-1.8424734475,7.97109043575,1.5762719215,0.46021025625,-0.181350477025,0.41874781247500004
0 days 00:00:15.609293179,-1.692921996,7.956135273,1.7515461445,0.5127446452500001,-0.06345357869833333,0.5303833335333333
0 days 00:00:15.629293179,-1.86101776325,7.932207226499999,1.40279227525,0.5759691446999999,0.0547487568125,0.7115047276
0 days 00:00:15.649293179,-1.8065810998333334,8.667999823999999,1.5509478648333335,0.5784125924,0.12133301794,0.9393572806999999
0 days 00:00:15.669293179,-1.55772757525,9.675378323,1.63489603975,0.559781208625,0.229150649175,1.101236433
0 days 00:00:15.689293179,-1.67377942825,9.973883392000001,1.2921242412499998,0.539011791325,0.219224099075,1.18461948625
0 days 00:00:15.709293179,-2.042274177,9.670592785,1.4057832955,0.49564039708333335,0.18924082071666667,1.3393718996666666
0 days 00:00:15.729293179,-1.8795621695,9.5647099015,1.433300793,0.457003205975,0.23220497367499998,1.4483603837499999
0 days 00:00:15.749293179,-1.6538392105,10.293524268,1.1154541370000002,0.39240425825,0.25847215949999996,1.4136937855000002
0 days 00:00:15.769293179,-1.5026926105,11.10688424,1.13060864825,0.28473933784999994,0.250836357475,1.2883138060000001
0 days 00:00:15.789293179,-1.63968169725,11.34078264,0.9876375200999999,0.20013457164999998,0.2175442204,1.1258238255
0 days 00:00:15.809293179,-1.7180466655000002,10.845468519999999,0.7465606629499999,0.10855575960166668,0.07124210273333333,0.9405790368833333
0 days 00:00:15.829293179,-1.2580264805,10.1994063875,1.1623135656249999,0.058719377035000006,-0.0164169920625,0.751821815975
0 days 00:00:15.849293179,-1.6550356748333332,9.131409963333333,0.9878369371333333,0.0613155514,0.03978256881,0.7170025407999999
0 days 00:00:15.869293179,-1.4901303057500002,8.389834642,1.3339986502499999,0.1216384544725,0.07673988957,0.9057597369
0 days 00:00:15.889293179,-1.136590764225,8.580662012000001,1.094118148,0.26687154545,0.1727983802775,1.0607666674499998
0 days 00:00:15.909293179,-0.44267217815,9.534202099,0.7537391483000001,0.40472335613333327,0.2614246805666666,1.117424389
0 days 00:00:15.929293179,0.172283224775,10.724631309,0.237487647675,0.43623380359999997,0.3442986608,1.061682969375
0 days 00:00:15.949293179,0.9842477239166666,11.4867452,0.09052845646666667,0.29680392889999996,0.35987572374999993,0.8736893237
0 days 00:00:15.969293179,0.8327022939750001,10.890932317499999,0.306281308525,0.06620247149149999,0.3772853613,0.7182242572749999
0 days 00:00:15.989293179,1.034895822425,10.1665055725,1.2089736756000002,-0.0359646645395,0.554283417725,0.7444914579499999
0 days 00:00:16.009293179,1.5194423795,9.7806625355,1.1150553822,-0.11766782402666666,0.64688033855,0.6357575257833333
0 days 00:00:16.029293179,1.483550042,9.32662415475,0.7734799236000001,-0.098425586685,0.823827519975,0.5316050946499999
0 days 00:00:16.049293179,1.4532409906666668,9.263812859666666,0.8901300132,0.003283398229999998,0.85711964965,0.4674642831
0 days 00:00:16.069293179,1.8873388764999999,9.60179924975,1.040279604225,0.16134466420000002,1.041600793475,0.4120282903
0 days 00:00:16.089293179,2.4640092255,9.72323513025,-0.29671000312499995,0.17569998277499999,1.0348812935,0.32131487875
0 days 00:00:16.109293179,2.3952155115,9.0412807465,0.5994020775,0.20659956579999997,0.9406044979166667,0.27127487463333333
0 days 00:00:16.129293179,1.4075779019999999,9.800403596750002,0.608973369,0.277408976075,0.6570614278,0.3089448586
0 days 00:00:16.149293179,1.3655041256666667,11.110274636666666,1.2422737877666667,0.142560563985,0.40080365535,0.27259840814999997
0 days 00:00:16.169293179,2.2773690225,11.1655085125,1.6319050341249999,-0.08345939593250001,0.5422188639500001,0.05390881536425
0 days 00:00:16.189293179,2.5154547689999998,11.0345015525,0.796809956425,-0.20960297435,0.70837405325,-0.021532983285250003
0 days 00:00:16.209293179,3.2075787785000003,10.47697401,0.9391828776,-0.21917319046666664,0.6556360820666667,-0.038840818529999994
0 days 00:00:16.229293179,3.38464766725,10.02712321375,0.9918249994999999,-0.20639593525,0.57306753095,-0.0335975615325
0 days 00:00:16.249293179,3.399004499,9.8225371045,0.81196447215,-0.22518002245,0.5358047633999999,0.05513054505
0 days 00:00:16.269293179,2.8815565705,9.6957173345,0.966102168075,-0.333303093925,0.370260409975,0.1099556609775
0 days 00:00:16.289293179,2.68893438575,9.8787679685,1.2759727242499999,-0.36155559865000003,0.20425790919999998,0.1192713473
0 days 00:00:16.309293179,2.9802606105000002,10.20658493,1.8305093645,-0.3798306236333333,0.12357285369666667,0.039960736721
0 days 00:00:16.329293179,2.79780787225,10.10189891,1.46979135275,-0.3279580325,0.2241110131,-0.0200058217155
0 days 00:00:16.349293179,2.5383859476666664,9.678169727833334,1.0137592156666666,-0.21876595170000002,0.24106250704999999,-0.11010837929
0 days 00:00:16.369293179,2.2199411395000004,9.09691381475,1.14915305375,-0.2039524801,0.196163948625,-0.29138249162499996
0 days 00:00:16.389293179,2.03988131875,9.10528850525,1.2191430926,-0.16180280965,0.251752641075,-0.514042727625
0 days 00:00:16.409293179,1.79820621,8.915657520000002,1.1006984117,-0.09272418387833332,0.16439898063333333,-0.75436710315
0 days 00:00:16.429293179,1.5834503772500002,9.558728695,1.3573286532500002,0.002519817557499998,0.2102138437,-0.88544848565
0 days 00:00:16.449293179,1.5469598176666668,9.854839960666666,1.2630115250499998,0.10743584482,0.33910630645,-0.902399987
0 days 00:00:16.469293179,1.5026925800000002,9.899107456,0.979262664975,0.09827286935500001,0.301232703025,-0.832761421775
0 days 00:00:16.489293179,1.124028399625,9.678369283750001,0.9684949817,-0.0480292439425,0.3543779254,-0.7209731638250001
0 days 00:00:16.509293179,0.87577310205,9.549755096,0.5120640546,-0.254297908395,0.31823510179166664,-0.6358593304833332
0 days 00:00:16.529293179,0.20757736521875,10.097711322,0.47557351735,-0.442037016125,0.049556406214999994,-0.64721122385
0 days 00:00:16.549293179,-0.7433702211791666,10.910075030000002,1.3551352021666665,-0.4844921082,-0.06864592992,-0.5526799261500001
0 days 00:00:16.569293179,-0.6071787588249999,11.50349498,1.6313068865,-0.286877367625,0.013820815832499996,-0.4526507929
0 days 00:00:16.589293179,-0.05982057002499999,11.593823675,1.7730816305000001,-0.0742964283525,0.10758855846499998,-0.5442805216
0 days 00:00:16.609293179,0.1579262987,10.71266699,1.2813565731,0.18918990872166666,0.25399249297,-0.8004873891666667
0 days 00:00:16.629293179,-0.031704900782499996,9.397212744499999,0.6873383224,0.351323604575,0.04192059486500001,-0.9987639040249999
0 days 00:00:16.649293179,-0.234496614585,8.711469491499999,1.2370893359666668,0.44005170465000004,-0.079336062085,-1.0068578721499999
0 days 00:00:16.669293179,-0.34157543625,8.548957348,1.83589318375,0.58009247485,0.1673005893575,-0.9004146755
0 days 00:00:16.689293179,-0.5629115178749999,9.01495909675,1.5726826636749998,0.7715985924,0.3401753232,-0.7408262640000001
0 days 00:00:16.709293179,-0.7190431952499999,9.5844511985,0.5898307859499999,0.66169380645,0.3252600431166666,-0.4430296843333333
0 days 00:00:16.729293179,-0.340379018375,9.72682404525,0.5437689274749999,0.27191118060499997,0.19677481800000002,-0.24633122605000002
0 days 00:00:16.749293179,-0.7649056490000001,9.1242314975,1.09511517465,-0.020845761519999995,0.21021383999999999,-0.33429574965000003
0 days 00:00:16.769293179,-1.51824599525,8.382655621,1.517647743,-0.04696023184749999,0.4114937931,-0.35720317062500007
0 days 00:00:16.789293179,-1.9627127942499998,8.33300471325,1.0893325212499998,0.018707733600000002,0.47380200772500003,-0.30512696505000003
0 days 00:00:16.809293179,-1.8305093050000003,8.7158560755,0.9918249548999999,-0.02308559790833334,0.3981565783666667,-0.2796233545
0 days 00:00:16.829293179,-1.369890958,9.12024307275,0.824327379475,-0.15370884915,0.324750997125,-0.37797258045000004
0 days 00:00:16.849293179,-1.18644120305,9.34437116,1.55732871095,-0.2541961074,0.3812559843,-0.45799586174999996
0 days 00:00:16.869293179,-0.97387881575,9.8536434165,1.563709601425,-0.20486877112500002,0.5949059427,-0.5064069181499999
0 days 00:00:16.889293179,-1.082752272575,10.2012014375,0.7220342457,-0.21647520365,0.632779538625,-0.5635227710249999
0 days 00:00:16.909293179,-1.844866276,10.243673805,0.8817551433999999,-0.2500218575,0.7299579679666667,-0.6199768384166666
0 days 00:00:16.929293179,-2.65902411975,10.526625159999998,1.113260716025,-0.18425208699,0.7893136591000001,-0.6742419898750001
0 days 00:00:16.949293179,-2.8733811773333335,11.196017426666666,0.7645068466166668,-0.046196649315,0.58803370595,-0.76526084545
0 days 00:00:16.969293179,-2.9970104095,11.4909327,0.23688945175000004,-0.068493212805,0.27771440145,-0.83841189745
0 days 00:00:16.989293179,-2.8462624547499997,11.3814606675,-0.182452723425,-0.2199876848375,0.08116865902499999,-0.910646647225
0 days 00:00:17.009293179,-2.3832513095000003,10.475777627,0.24167507884999997,-0.34531676271666667,-0.025274529433333335,-0.9438369671666668
0 days 00:00:17.029293179,-1.4321043195,9.92542862875,0.49172505737499994,-0.37285658715,-0.269620437175,-0.921489506975
0 days 00:00:17.049293179,-1.4416756433333333,9.089536031333333,0.3617150187,-0.2615264803,-0.37591090795000004,-0.91889333725
0 days 00:00:17.069293179,-2.62133723475,8.50768137,-1.3226326705,-0.30275986340000005,-0.47487102445,-0.81458815935
0 days 00:00:17.089293179,-3.334996581,9.0568339825,-1.727617934175,-0.5823832154499999,-0.68577209115,-0.6438514888
0 days 00:00:17.109293179,-2.6189444065000003,8.949156761,-0.25842484835,-0.63843004405,-0.7776563167499999,-0.54137893515
0 days 00:00:17.129293179,-0.6089733579275,6.594619155,1.1138589087500002,-0.3090212159,-0.8868993074,-0.45356710255
0 days 00:00:17.149293179,-0.587039140345,4.772085905,1.3627124778833333,-0.07735075616,-0.74029174445,-0.3040579483
0 days 00:00:17.169293179,-0.6406782642,5.87497770775,0.45403810587500004,0.25007276332,-0.595516800875,-0.13301580775
0 days 00:00:17.189293179,-0.29491540045,7.43031251425,1.0791629999499999,0.48296495525,-0.447992950675,-0.132404945825
0 days 00:00:17.209293179,-0.48335018755,8.5483589175,1.26101750135,0.5849284629333333,-0.33376124995,-0.08251765247
0 days 00:00:17.229293179,-0.9427721053000001,8.2701935765,0.9439685196000001,0.49609855564999994,-0.45074184985,0.12171480618500002
0 days 00:00:17.249293179,-2.2400808333333333,8.343772411166666,0.8466604153166667,0.4238637984,-0.55794861915,0.26251913605
0 days 00:00:17.269293179,-3.2279177305,8.9581298825,1.0115657598,0.46983137725,-0.587270140625,0.28283039482500005
0 days 00:00:17.289293179,-3.32721996325,9.83749198875,1.2311072647499999,0.56146109845,-0.554436162125,0.2874118686
0 days 00:00:17.309293179,-2.7014967205,10.201798915,1.4907284975,0.6292161643666666,-0.5435932874833335,0.2509126961
0 days 00:00:17.329293179,-1.776072562,8.47896707075,1.75034973025,0.61674435435,-0.551992699475,0.22663082925
0 days 00:00:17.349293179,-1.1349955297666667,6.136792580333334,1.24067856875,0.522213012,-0.5686387420000001,0.358730346
0 days 00:00:17.369293179,-0.918245703,4.9471608400000004,0.38464624435,0.356668665975,-0.5083158463499999,0.560468457675
0 days 00:00:17.389293179,-0.95174519715,5.301298618000001,0.26620153013750003,0.2219729833,-0.443411476925,0.7203623056499999
0 days 00:00:17.409293179,-1.607976794,7.1976106165000004,0.045463629974999996,0.08982257575333334,-0.32714354246666666,0.9392555256333334
0 days 00:00:17.429293179,-2.31984156325,10.4004037405,0.65742803365,0.0549014709,-0.188528139125,1.2001965937499999
0 days 00:00:17.449293179,-2.5371896025000003,13.158929505000001,1.0428718624166666,0.27236932515,-0.07322741488000001,1.452483773
0 days 00:00:17.469293179,-2.56032019825,14.1756796825,1.37886405,0.581925071775,-0.10270164069,1.6520837844999998
0 days 00:00:17.489293179,-2.399402916,12.855439425,1.4315061567499998,0.810693934575,-0.126067219325,1.7062979935
0 days 00:00:17.509293179,-1.8640088435,10.1754784565,0.9762716295499999,0.8758019308000001,-0.0019598579933333368,1.6577343148333334
0 days 00:00:17.529293179,-1.1204392315,8.805587053,0.8171489537,0.747774824475,0.123165611225,1.42316225175
0 days 00:00:17.549293179,-1.0460622903333334,8.896913210666666,0.92203432325,0.57963430885,0.11491893604999999,1.079245329
0 days 00:00:17.569293179,-1.1389835921,9.45823001875,0.8715856224249999,0.395458586525,0.14286599495,0.8865175098
0 days 00:00:17.589293179,-0.919442087375,9.594620705,0.676570594275,0.21097742765,0.13920081034999998,0.8584177196
0 days 00:00:17.609293179,-0.6257231235499999,9.198009968000001,0.42113678155,-0.06034834931333333,0.11237366745166666,0.8496619761333334
0 days 00:00:17.629293179,-0.263808693725,8.799605369750001,0.5892325565000001,-0.373772889375,0.08972076512999999,0.862388327725
0 days 00:00:17.649293179,-0.3114657377166667,9.229116757833333,0.8267202278,-0.5025126338,0.06452259049,0.86849698425
0 days 00:00:17.669293179,-0.3026920594,10.039087772999999,1.006780117725,-0.3966803029,0.0086284649205725,0.845742300125
0 days 00:00:17.689293179,0.2045863308,10.7066850675,1.213161081,-0.20960297434999997,0.024358233644357498,0.80145461855
0 days 00:00:17.709293179,0.44626142085,11.169695850000002,1.213161051,0.0028761544599999974,0.06951132105666667,0.7127264738000001
0 days 00:00:17.729293179,0.76510503885,11.1750795825,1.04626168305,0.12469277158,0.1564577408,0.6061305701999999
0 days 00:00:17.749293179,1.6494524376833333,11.324432056666666,0.5395815024833334,-0.01443168149,0.084986561915,0.48029243945000005
0 days 00:00:17.769293179,2.3018953800000004,11.598609207500001,0.685543693575,-0.24701845085000002,0.0231365030675,0.2596175335
0 days 00:00:17.789293179,2.000997901,11.0225374675,1.292722470875,-0.222736571,0.18700098057,0.09269872958750001
0 days 00:00:17.809293179,1.9728822710000002,9.796216012,0.48693941535,-0.1327358260783333,0.10565415521666666,0.05156716766166667
0 days 00:00:17.829293179,2.1780667905,10.034301998499998,1.4560325593,0.08666644244749999,-0.0738382805125,0.186008322975
0 days 00:00:17.849293179,1.9820547301666667,10.899307408333334,1.538186117916667,0.15355613454,0.14760020002500002,0.358730346
0 days 00:00:17.869293179,1.548156261675,10.97527933,0.355334166425,-0.156152306105,0.489989906575,0.464562669375
0 days 00:00:17.889293179,0.82372920215,9.89372348525,0.25543381649999997,-0.385684747225,0.497167564925,0.374918267125
0 days 00:00:17.909293179,0.5048855841000001,9.298508644,0.4965106994,-0.3764708687833333,0.32464917249999997,0.1043051655
0 days 00:00:17.929293179,0.65623159705,9.0029952525,0.7447660342,-0.315129876175,0.049709122625000005,-0.26160283762500003
0 days 00:00:17.949293179,1.2797612845833333,9.117850621666667,0.9052845835666666,-0.4218784869,-0.10713041199500001,-0.4934260249
0 days 00:00:17.969293179,1.51884412725,9.02991437925,0.6281159520499999,-0.5061778351999999,-0.0408515827725,-0.67164583505
0 days 00:00:17.989293179,1.4189438220000001,8.8827562335,0.9463613479499999,-0.534430325075,-0.086055574025,-0.773202091425
0 days 00:00:18.009293179,1.0241281092,9.443274498000001,1.7156538365000003,-0.36964955678333333,0.05077813565,-0.8353066841999999
0 days 00:00:18.029293179,0.32781670245,10.9226367495,1.8173487482500001,-0.1078939931575,0.28260131925,-0.81932237745
0 days 00:00:18.049293179,0.20059829579999996,11.739586833333334,1.8564315636666666,0.11018473468500001,0.49121163785,-0.8272636532500001
0 days 00:00:18.069293179,-0.131007039925,11.533405065,1.55473649465,0.21510076525,0.66729339955,-0.9639446139500001
0 days 00:00:18.089293179,-0.306281298425,10.74257755,0.8356933221,0.18226677922499998,0.674012944125,-1.0653481931
0 days 00:00:18.109293179,-0.5000999272,9.6813602435,0.5491528064,0.11262819292666666,0.40518151475,-1.0900373063333333
0 days 00:00:18.129293179,-0.503689162425,9.34516906725,0.97686986605,0.099647318945,0.19402592629999998,-1.001818239925
0 days 00:00:18.149293179,-0.24765715279166667,9.885149319333333,1.341177125333333,0.19509493560000002,0.32322382180000003,-0.9286671876999999
0 days 00:00:18.169293179,0.11425727838750001,10.4889380925,1.2634103444,0.4037052691,0.579787038225,-0.9283617585999999
0 days 00:00:18.189293179,0.35772697627500005,10.652248145,0.83629152175,0.5209912956,0.674318373225,-0.97035869955
0 days 00:00:18.209293179,0.11006984067500002,10.60618639,0.7010970413500001,0.5810596545333334,0.6377173860666666,-1.0467676820166665
0 days 00:00:18.229293179,-0.2685943397375,10.57268667,0.44386859980000004,0.613537296625,0.5574904680249999,-1.06336286675
0 days 00:00:18.249293179,-1.0364910515833332,10.354142031666667,0.5379863033833333,0.5958222448999999,0.34857471285,-0.9812015590500001
0 days 00:00:18.269293179,-1.6540386972499999,10.010971545499999,0.833898693325,0.512133769725,0.096592993475,-0.872925773275
0 days 00:00:18.289293179,-2.08175572725,9.824930191,0.8913264424,0.38583748045,-0.0622318508125,-0.82466746865
0 days 00:00:18.309293179,-2.7517460585,9.905089378500001,0.5826523304000001,0.07597630968333334,-0.265242576625,-0.7448986967
0 days 00:00:18.329293179,-2.48853552325,10.02473068475,0.39780675622500006,-0.320933077475,-0.43012517692499996,-0.6675225049
0 days 00:00:18.349293179,-2.1324037311666664,9.86082236,0.23728824655,-0.70867949725,-0.5820778012,-0.6400335729
0 days 00:00:18.369293179,-1.87836581475,9.17109060325,0.30927232652500003,-0.87422384325,-0.6621010899499999,-0.58139055965
0 days 00:00:18.389293179,-1.64626201975,8.6111700535,0.61854466805,-0.78351041675,-0.6799688786,-0.5403099060250001
0 days 00:00:18.409293179,-1.3148560525,7.807780027,1.4428720474999999,-0.4616864994,-0.5907316753833333,-0.55491973955
0 days 00:00:18.429293179,-1.0911270977499998,7.33459961425,0.59820566315,-0.1669951603,-0.4214203283,-0.6053670198000001
0 days 00:00:18.449293179,-2.1096718906666667,8.214161237333334,-0.7948159329166667,-0.24656029795,-0.46326456964999996,-0.5807797015
0 days 00:00:18.469293179,-3.3804601432500005,9.9553387165,-0.8063812404749999,-0.544204138225,-0.457919500775,-0.5406153202249999
0 days 00:00:18.489293179,-3.8189449902500003,10.60618663,-0.2667997368,-0.5484802126749999,-0.22090397027499997,-0.5062541738
0 days 00:00:18.509293179,-3.272185087,9.644271852000001,0.45583268260000004,-0.15584687638333333,-0.36980226141666667,-0.46654798086666666
0 days 00:00:18.529293179,-1.042074248175,7.436892986,2.1601205765000002,0.273132916575,-0.566806174825,-0.53313222525
0 days 00:00:18.549293179,-0.61136618255,6.8023958205,1.69013038785,0.28183773905,-0.4269181192,-0.6516399979499999
0 days 00:00:18.569293179,-0.7106683105,6.92363214525,0.656231619325,0.14760020005000002,-0.46204283837500004,-0.5855138898000001
0 days 00:00:18.589293179,-0.6963113993750001,6.075974822,1.47517520175,0.204410631225,-0.50388709455,-0.47555823622500004
0 days 00:00:18.609293179,-1.2155538799499999,5.930610895,1.945364833,0.5335140203500001,-0.2550615010333333,-0.3580176582166667
0 days 00:00:18.629293179,-1.8119648995,6.876373887,1.577468306,0.807028710875,-0.09735657648500001,-0.249232828625
0 days 00:00:18.649293179,-2.0067806638333336,7.938588063166666,1.3332010505000003,0.9580650627999999,0.003130681810000001,-0.18432844430000003
0 days 00:00:18.669293179,-2.02492621525,8.40120005625,1.0348958074999999,0.88185966015,0.00786488421625,-0.033292129412
0 days 00:00:18.689293179,-2.165504575,8.091329813,1.1180463434999999,0.716620743275,-0.038255408053749995,0.20189080272099996
0 days 00:00:18.709293179,-1.978864372,7.313662528999999,1.380658686,0.5529598842333333,0.024409138914999993,0.45545058948333333
0 days 00:00:18.729293179,-1.37407842325,7.06002342725,1.27178525925,0.47364927830000003,0.175699982825,0.6855430007
0 days 00:00:18.749293179,-0.9647063414666667,7.755536953333333,0.83708913125,0.499305591,0.26671883465,0.88712838295
0 days 00:00:18.769293179,-0.820139974325,8.44965505575,0.610767975475,0.536873772775,0.3082576469,1.0369429734
0 days 00:00:18.789293179,-0.914656460325,9.4773719305,0.5874379724250001,0.5527562499,0.387059196825,1.12628197675
0 days 00:00:18.809293179,-1.3698909879999999,10.37288618,0.92721876505,0.52435106035,0.5320377747,1.3025164011666668
0 days 00:00:18.829293179,-1.74795693125,10.9130656725,1.421336681,0.5312232970999999,0.628503501425,1.568395287
0 days 00:00:18.849293179,-1.404586891,10.692726451833332,1.29770750805,0.46540260315,0.5022072047,1.7802127005
0 days 00:00:18.869293179,-0.96909320345,9.746564865,0.893121033925,0.20670136435000003,0.3919461146,1.7624975737500002
0 days 00:00:18.889293179,-0.5264210030500001,9.83091163525,0.95952187485,-0.06803506984999999,0.29710935805000005,1.67178416225
0 days 00:00:18.909293179,0.39361931385,10.928020949999999,1.1102697255,-0.29227334759999996,0.22568909329,1.4946333564999998
0 days 00:00:18.929293179,0.640678256725,11.788240429999998,0.814157888325,-0.44478590787500005,0.007254019380000004,1.31916248775
0 days 00:00:18.949293179,0.25124637346833334,11.718450386666667,0.8945168753666666,-0.54466229675,-0.2546542585,1.2939643265
0 days 00:00:18.969293179,0.1609173296075,11.1290183075,0.9541380107749999,-0.552908971925,-0.2980256453,1.424078494
0 days 00:00:18.989293179,0.5826523304,10.560722349999999,1.2424731255,-0.318795047675,-0.232663117325,1.4343104660000001
0 days 00:00:19.009293179,1.0600204168,10.06540823,1.1497513055,0.06416625282,-0.08269581819333334,1.300276617
0 days 00:00:19.029293179,1.357926816,10.1677017225,1.3567304905,0.25236351045,0.15737404114999998,1.13009983275
0 days 00:00:19.049293179,1.9581265448333334,10.8315107,1.0640084739833333,0.23693918439999997,0.37331473825,0.9781472087499999
0 days 00:00:19.069293179,2.347359002,11.423933745,0.9912267921750001,0.2499200441,0.4504364058,0.78037977215
0 days 00:00:19.089293179,2.4795624614999996,10.9441723825,1.4213366505,0.32307109985000004,0.6307942346,0.5865829289
0 days 00:00:19.109293179,1.9226329919999998,10.44945669,1.232303679,0.33589927855000007,0.8237257202666667,0.4394662976166666
0 days 00:00:19.129293179,1.4895320834999999,11.1822586025,1.1024929882499999,0.256181418875,0.6966149285500001,0.38148505245
0 days 00:00:19.149293179,1.3443675043333332,10.880563256499999,2.2508485318333333,0.06375901123000001,0.3604865819,0.2072358765
0 days 00:00:19.169293179,1.3902299705,9.7950191495,2.6440690755,-0.13049598921,0.5251146555,-0.049021895999999995
0 days 00:00:19.189293179,1.392622739,9.509076833750001,2.302493572,-0.16378811745,0.7488438487,-0.22724169679999998
0 days 00:00:19.209293179,1.440479219,9.936195851,2.0913270715000003,-0.13782636575333332,0.8075377742166667,-0.4150317112833333
0 days 00:00:19.229293179,1.346560925,10.585847375,2.319841504,-0.031841328365,0.8488729596,-0.6261363923750001
0 days 00:00:19.249293179,0.9874381422499999,10.54596726,2.2121644618333334,0.09308052065,0.99242618685,-0.84894931315
0 days 00:00:19.269293179,0.934995442525,10.3968141075,1.6779668925,0.02695440851325,1.1520146429999998,-1.051145568675
0 days 00:00:19.289293179,0.9254241433,10.370493175,1.09770734575,-0.13691007043725,1.2103522417500001,-1.1911863385
0 days 00:00:19.309293179,0.14476577935,10.37527895,0.60179489855,-0.33625560005000005,1.243084371,-1.190829972333333
0 days 00:00:19.329293179,-0.7130611464500001,10.345967055,0.942173942775,-0.36613707240000004,1.2185988425,-0.9923497885750001
0 days 00:00:19.349293179,-0.7676972548166666,10.429516631666667,1.4568301636666667,-0.04192059484999999,1.0745875235,-0.7670934497999999
0 days 00:00:19.369293179,-0.78185480835,10.415358784999999,1.5768700837499998,0.35880671067500003,1.0643554925,-0.6339249461750001
0 days 00:00:19.389293179,-0.9493523539,10.494920255,1.4015958605,0.603152610325,1.13613209125,-0.6136136650999999
0 days 00:00:19.409293179,-1.306481123,10.632507324999999,1.450050533,0.8431206742666667,1.0504583516666666,-0.7027490139
0 days 00:00:19.429293179,-1.240080327,10.770094395000001,1.3854442835,1.004185348825,1.09627318375,-0.9272927492
0 days 00:00:19.449293179,-0.80000035475,10.761719703333334,1.3794622621666666,1.04694587,1.03488126415,-1.2793035504999999
