time,acc_x,acc_y,acc_z,rot_x,rot_y,rot_z
0 days 00:00:00.031972294,0.9332008362,5.88395071,8.652446747,0.3229947388,-0.00755945174,0.04276053607
0 days 00:00:00.051972294,0.9332008362,5.88395071,8.652446747,0.24358232085225,0.02649625892,0.04276053607
0 days 00:00:00.071972294,1.07318094405,5.9180487392500005,7.71386206175,-0.004276053515749998,0.10713040830500001,0.0442876974075
0 days 00:00:00.091972294,1.3112667998333334,6.1156558195,7.444071133833333,-0.0310013881,-0.014889828865000001,0.03512472473
0 days 00:00:00.111972294,1.3256237505000001,6.052644968,7.7252278325,-0.018173227553333334,-0.10041089728000001,0.021583888835
0 days 00:00:00.131972294,1.41296178125,6.01316332825,8.03749120225,-0.00733037747225,-0.07093667518749999,0.013133593017249999
0 days 00:00:00.151972294,1.36450710875,6.02333283425,8.175078392,0.004428769578,-0.0365755299575,0.005955931497500001
0 days 00:00:00.171972294,1.36031970375,6.0263237955,8.072186946750001,0.0015271620357499996,-0.0130572349275,0.00427605351425
0 days 00:00:00.191972294,1.244666616,5.962116559666666,7.996813138166668,-0.014202606397,-0.032299474815,0.011300998038999999
0 days 00:00:00.211972294,1.1700902585000001,5.9294145105,8.1020975115,-0.004021526468833333,-0.09470949382833332,0.02911788815166667
0 days 00:00:00.231972294,1.27477625,5.955735445,8.260621786000002,0.00839939061475,-0.09124792463,0.03466657596
0 days 00:00:00.251972294,1.278365493,5.931209087499999,8.254041433250002,0.012522727715000001,-0.0515417167925,0.0302378074275
0 days 00:00:00.271972294,1.28554394825,5.957530022,8.115855932,0.012980876725,-0.028787002902499997,0.0274889157125
0 days 00:00:00.291972294,1.3559328118333334,5.983651717333333,8.044270595,0.01175914705,-0.024052800144999997,0.019242240115
0 days 00:00:00.311972294,1.4021940825,5.984449625,7.8029947285,0.02122755193666667,-0.027921610668333333,0.014864376433333333
0 days 00:00:00.331972294,1.4811572430000002,6.0604217052500005,7.87597560875,0.0555886952175,-0.10407608560500001,0.0067195121675
0 days 00:00:00.351972294,1.5116657017500001,6.082555294,7.972885132,0.0957530532025,-0.18303035569999998,-0.022296564417499998
0 days 00:00:00.371972294,1.5481562315,6.02512741075,8.065008998,0.115606160825,-0.21051927285,-0.051618072202500004
0 days 00:00:00.391972294,1.3814562956666665,6.023133277666666,8.057830015833334,0.12171480429999999,-0.127288948745,-0.065057097
0 days 00:00:00.411972294,1.5314064619999999,6.0155563355,8.007580757,0.1437059380333333,-0.11995857083166668,-0.05406153325833333
0 days 00:00:00.431972294,1.57746836525,6.248856425,8.02612543075,0.20219623669999998,-0.1509599537,-0.0652098162075
0 days 00:00:00.451972294,1.3034901322499999,6.244070648999999,7.935796379999999,0.2240346521,-0.1634826809,-0.0697913020825
0 days 00:00:00.471972294,1.21555388,6.07537663,7.824529886500001,0.19700388985,-0.162566386125,-0.028405211402499998
0 days 00:00:00.491972294,1.5094722506666667,6.232505242166667,7.7623167036666665,0.12996148315,-0.13217586275,0.005803215434
0 days 00:00:00.511972294,1.4033905265,6.2500526905,7.726424456,0.08659008393166667,-0.11405354736666666,0.013642646724666668
0 days 00:00:00.531972294,1.63250324125,6.368497490499999,7.7790664432500005,0.0702494494625,-0.18241950125,0.016798782164999998
0 days 00:00:00.551972294,1.6097714305,6.37627422825,7.83649432675,0.108733933425,-0.26213734972499997,-0.030390521975
0 days 00:00:00.571972294,1.4781661925,6.2380886075,7.829913974249999,0.13179407645000002,-0.294971317075,-0.0488691814225
0 days 00:00:00.591972294,1.4329019385,6.324628989,7.917451461333333,0.1253799945,-0.2265544683,-0.038179049265
0 days 00:00:00.611972294,1.7647066715,6.3194446565,7.928617716000001,0.12965605406666666,-0.051134473338333326,-0.041233373181666665
0 days 00:00:00.631972294,1.6959130765000001,6.3308104274999994,7.6265240905,0.131946792875,0.0448222020625,-0.03115410358
0 days 00:00:00.651972294,1.60737860225,6.28773951525,7.47936558725,0.125227278125,-0.005268708804999999,-0.0276416312
0 days 00:00:00.671972294,1.48115721325,6.3762739895000005,7.50329351425,0.125990858275,-0.103465223685,-0.01267544435015
0 days 00:00:00.691972294,1.6358930465,6.515655994333334,7.672186930833334,0.09880737960500001,-0.12240203100000001,-0.0021380267283
0 days 00:00:00.711972294,1.726421535,6.5407805445,7.6223363875,0.13006329161833333,-0.15925753988333333,-0.019344051757666667
0 days 00:00:00.731972294,1.4907285275,6.568298101250001,7.31545710525,0.167529668675,-0.2629009336,-0.0235182936275
0 days 00:00:00.751972294,1.4829518495,6.49172794825,7.219146132500001,0.1734855957,-0.34124433247499997,-0.014355322464500001
0 days 00:00:00.771972294,1.6654045282499998,6.47378158575,7.338787079,0.14553853495,-0.352698050425,-0.009010255221000001
0 days 00:00:00.791972294,2.053440650166667,6.587440570166667,7.800601641499999,0.11224640535000001,-0.2625954971,-0.046120291575
0 days 00:00:00.811972294,1.7443677185000002,6.446264267,7.829315662,0.056759518881666665,-0.067220576115,-0.06078104798666667
0 days 00:00:00.831972294,1.76769775175,6.468996167249999,7.685746431,0.016493348871,0.0704785250175,-0.026572617705
0 days 00:00:00.851972294,1.76051923675,6.574280262,7.353143930250001,0.00534506677625,0.08895718308,-0.01038470101975
0 days 00:00:00.871972294,1.7700905205000002,6.65982365575,7.3244299885,0.0025961750647499997,0.018402300774999998,-0.00229074287925
0 days 00:00:00.891972294,1.7854444979999997,6.688736994666667,7.422136942666666,0.02061668597,-0.07506000996000001,0.003665188793
0 days 00:00:00.911972294,1.8376877904999998,6.6137616635,7.499106169,-0.026928955071666667,-0.02812523271,0.004072431863
0 days 00:00:00.931972294,1.7479569612499999,6.5671018365,7.6187471155,-0.096822066245,0.09262237140000001,0.00442876963675
0 days 00:00:00.951972294,1.7371892037499999,6.5527449845,7.548158883999999,-0.12263110655000001,0.15080723915,-0.0007635809607500002
0 days 00:00:00.971972294,1.69710943125,6.47318351275,7.408179045000001,-0.11270455267499999,0.13889537752999997,-0.01328630862
0 days 00:00:00.991972294,1.6554344893333333,6.469394763166666,7.302495876666666,-0.06918043643,0.051083568485,-0.015577051784999999
0 days 00:00:01.011972294,1.75034976,6.507281065000001,7.3675007820000005,-0.04739292587,-0.039528040838333334,-0.006210458629566666
0 days 00:00:01.031972294,1.8831513819999999,6.51027202575,7.589435100499999,-0.04016435985,-0.0350483678025,-0.0019853105040499998
0 days 00:00:01.051972294,1.8616160155,6.4725853205,7.5260252955,-0.0565049937025,0.0200821802725,-0.003970620979
0 days 00:00:01.071972294,1.7748761769999999,6.516852498,7.47816884525,-0.0949894748625,0.089720766995,0.0021380267282499997
0 days 00:00:01.091972294,1.8005990386666666,6.553542295833334,7.568099180833333,-0.1317940727,0.146683909,-0.0061086476205
0 days 00:00:01.111972294,1.6713865995,6.419943094000001,7.3663043974999995,-0.17547091093333334,0.181197766545,-0.010588322301666666
0 days 00:00:01.131972294,1.6205390990000001,6.5605213642499995,7.642675638,-0.14416408816,-0.018096868422500002,0.04062250908
0 days 00:00:01.151972294,1.79342055325,6.77767026425,7.6366933585000005,-0.019853103910000003,-0.17890702192500002,0.032528549895
0 days 00:00:01.171972294,1.779661834,6.656832575999999,7.730013609249999,0.026878050876499998,-0.26748242232499997,0.0279470640225
0 days 00:00:01.191972294,1.8608183861666667,6.4761743545,7.481160163666668,-0.085368349467,-0.160886514925,0.036346454169999994
0 days 00:00:01.211972294,1.8149559495,6.6209402084999995,7.6833536625,-0.23523384830000002,0.042226030185000006,0.012929970709999997
0 days 00:00:01.231972294,1.6354942322500001,6.219544172,7.8023962972500005,-0.277485333375,0.17264566199999998,-0.01038470142725
0 days 00:00:01.251972294,1.47876438475,6.1465631725,7.680960655,-0.298560164875,0.24503313005,0.01756236213325
0 days 00:00:01.271972294,1.4135599432500001,6.1836519244999995,7.5798637865,-0.3167333901,0.256486848025,0.0497854780425
0 days 00:00:01.291972294,1.288933774,6.087340911000001,7.556135018666666,-0.30833400785000004,0.16898047175,0.108123064055
0 days 00:00:01.311972294,1.4668002724999998,6.117251157999999,7.881957531,-0.2858338058166667,0.07847067092,0.18163045995000002
0 days 00:00:01.331972294,1.8795621695000002,6.036493420999999,8.190632104999999,-0.2536615916,0.1364519205,0.180205114225
0 days 00:00:01.351972294,1.8831514117500001,5.98624408275,8.04945552325,-0.22937972102499998,0.18226677925,0.164628062425
0 days 00:00:01.371972294,1.73060897,5.967699647,7.8239318135,-0.217773292225,0.167453307675,0.168751396275
0 days 00:00:01.391972294,1.666600962666667,5.832505225999999,7.927022457166667,-0.20143266765,0.10819942504,0.20861032605
0 days 00:00:01.411972294,1.8484554885,5.855237007,8.336594105000001,-0.08261946075950001,0.07490729541,0.22754713393333334
0 days 00:00:01.431972294,1.9190437194999999,5.9138612745,8.16490936275,-0.00885753915775,0.125150918975,0.20433427025
0 days 00:00:01.451972294,1.86520525825,5.991628050500001,7.9334037305,-0.0499381954,0.1975383945,0.18723005802499998
0 days 00:00:01.471972294,1.79042956225,5.99282431625,7.9016987085,-0.126907158675,0.27450735122500003,0.177608933275
0 days 00:00:01.491972294,1.572483301,5.881558179833334,7.994021813,-0.1693622619,0.31742060185,0.18967351315
0 days 00:00:01.511972294,1.3734802009999998,5.734399557,8.0626158715,-0.12843432276,0.25215988856666666,0.24118977538333333
0 days 00:00:01.531972294,1.2203395365,5.63868665725,8.18464946775,-0.08720094710250001,0.209450256075,0.32406377045
0 days 00:00:01.551972294,1.39381921275,5.736194134,8.353941917250001,-0.07544180192,0.21846051885,0.39064802232499996
0 days 00:00:01.571972294,1.79940259425,5.916253924499999,8.46461009975,-0.045662143033,0.24762931462499999,0.391411609975
0 days 00:00:01.591972294,1.9521444241666668,5.990830341666666,8.353343963666667,0.024892740419,0.2505309209,0.3155116588
0 days 00:00:01.611972294,1.805384696,5.9796638490000005,7.9417784215000005,0.03955349589966667,0.2159152428,0.2509636158833333
0 days 00:00:01.631972294,1.6319050495,5.85882616075,7.88375258425,-0.0117591472815,0.1921933293,0.24434590714999999
0 days 00:00:01.651972294,1.5696916877499998,5.7828540805,7.9986077545,-0.03222311847,0.181503191575,0.272903837275
0 days 00:00:01.671972294,1.70787715875,5.88634359875,8.1846497055,-0.0152716198925,0.150807240975,0.28725916892500003
0 days 00:00:01.691972294,1.9058832526666667,5.960122346666666,8.235696633833333,0.053297949955,0.101174481215,0.2489273995
0 days 00:00:01.711972294,1.9776679275,5.851647854,7.4261250495,0.03711003437333333,0.07887791469500001,0.20942480865
0 days 00:00:01.731972294,1.8059828577500001,5.988636851,7.686344385,-0.16905682907500003,0.13614648207500002,0.195324007425
0 days 00:00:01.751972294,1.81256315125,5.8618171215,8.311469077749999,-0.15118903295,0.12957968749999998,0.195324007425
0 days 00:00:01.771972294,1.95433786525,5.8037914035,8.423932314,-0.0852156365225,0.11201732793,0.18051053960000002
0 days 00:00:01.791972294,2.0709879993333336,5.911069631666667,8.3804626465,-0.013897173575,0.072769267485,0.14324779065
0 days 00:00:01.811972294,2.0195423365000003,5.8707902435,8.197810173,0.04505127777,0.0278707056635,0.09050979589333334
0 days 00:00:01.831972294,1.92741861925,5.816951752,7.92742145075,0.04337139963,0.0005345065132500004,0.07437278516250001
0 days 00:00:01.851972294,1.92024013375,5.86899554725,7.85623490825,-0.004734202052499998,-0.0264962595,0.06383536849
0 days 00:00:01.871972294,1.9124634865,5.81994271275,8.0237321855,-0.0655152490375,-0.0180968688835,0.056046844457499995
0 days 00:00:01.891972294,1.8679968514999998,5.744369586166667,8.3170526825,-0.083230327815,0.018707733603,0.055894127115
0 days 00:00:01.911972294,1.8101703525000001,5.6769719125,8.3892359735,-0.04749473712,0.03652462207833334,0.05833758786333334
0 days 00:00:01.931972294,1.7844475210000001,5.684748411,8.332406521,-0.0238237259925,0.034590217285,0.061544627879999994
0 days 00:00:01.951972294,1.7300107775,5.61774945225,8.30189847925,-0.0152716190785,0.0390189886125,0.069180436435
0 days 00:00:01.971972294,1.6181463004999999,5.519045472,8.2097747325,-0.010690133438,0.042073310355000004,0.09743293188249999
0 days 00:00:01.991972294,1.5489538309999997,5.535396417,8.115656852999999,-0.045356710445,0.06299542822,0.14324779065
0 days 00:00:02.011972294,1.674975872,5.499902963499999,8.1188468935,-0.11418080949,0.11400263510166668,0.18478659538333334
0 days 00:00:02.031972294,2.23788732325,5.7804614305,8.062017917750001,-0.14110976085,0.08498656004749999,0.12049307670500001
0 days 00:00:02.051972294,2.2378873825000003,5.6440702675,7.98365271125,-0.15179989485,0.073380131275,0.08429934084
0 days 00:00:02.071972294,2.0578275325,5.311467886,7.84845817125,-0.250454559925,0.14653119072499998,0.11239911987500001
0 days 00:00:02.091972294,1.7172490361666668,5.222335259166666,8.344968795833333,-0.39385506509999996,0.3626246005,0.1771507859
0 days 00:00:02.111972294,0.45583270484999994,4.5044885875,9.184849739,-0.4887427190666666,0.6887246022833334,0.36743517713333335
0 days 00:00:02.131972294,-0.747158877525,3.603590906,10.131211045,-0.4344775826,0.92828540505,0.8063415140000001
0 days 00:00:02.151972294,-1.17607234415,3.550948799,10.308878182499999,-0.20708315404000002,0.8885791898,1.2295180559999999
0 days 00:00:02.171972294,-0.2871387200325,4.000201166,9.61675405425,0.06918043783,0.6124683022249999,1.51051592825
0 days 00:00:02.191972294,1.6287146168816669,4.958726167833333,7.5641110735,0.027641631649999998,0.45364344119999994,1.4550799134999999
0 days 00:00:02.211972294,5.331208706,7.217949390499999,7.615158081,-0.41360635556666664,0.6154207984666668,0.7525854123616668
0 days 00:00:02.231972294,4.79521656075,6.774080753,7.835895895749999,-0.5096139461,0.651258200425,0.055741411170000005
0 days 00:00:02.251972294,2.4424737692500003,5.28215610975,8.18225729425,-0.47418376805,0.4860192909750001,0.011911863000000002
0 days 00:00:02.271972294,1.93040969975,4.3974100355,8.497511387,-0.37369652835,0.3539197743,0.0946840401675
0 days 00:00:02.291972294,1.3132607936666667,4.238087812833333,8.507281939166667,-0.45463611185,0.41790786385,0.19792019574999997
0 days 00:00:02.311972294,1.3483555909999998,4.5439703465,8.671589375,-0.5933023989333334,0.4206567506166667,0.29708390935
0 days 00:00:02.331972294,1.452443391,4.421936393,8.70329451575,-0.57467101515,0.23434299975,0.30237805845
0 days 00:00:02.351972294,1.2508480844999998,4.0719860195,8.94317507775,-0.545349523425,0.17524183165,0.35934120420000004
0 days 00:00:02.371972294,1.025922700675,3.8883368369999998,9.1202437875,-0.568715125325,0.19478951020000002,0.45448340477500004
0 days 00:00:02.391972294,1.6554344596500001,4.152344942,8.872187455333332,-0.6614138484000001,0.20044001190000002,0.50671234725
0 days 00:00:02.411972294,2.111665964,4.584648132,8.575876713,-0.7895936469000001,0.12235112861500001,0.43218682705
0 days 00:00:02.431972294,1.870589107,4.09591412525,9.5814602375,-0.695622280225,0.06146827060750001,0.403170764475
0 days 00:00:02.451972294,1.54217416025,3.7304104565000005,9.93799042725,-0.5195404962,0.045433067715,0.401643589125
0 days 00:00:02.471972294,1.3028918802499998,3.637090325,10.205986498999998,-0.38973172755,0.09399681910999999,0.43096509574999997
0 days 00:00:02.491972294,1.4424732525,3.82891496,9.617950598166667,-0.3217730224,0.11339177563499998,0.46822786329999994
0 days 00:00:02.511972294,2.0997018814999997,4.1814575195,9.239884376500001,-0.293062369,0.005879573990000002,0.3821977377166667
0 days 00:00:02.531972294,1.9064814749999999,3.91645234825,9.671788930750001,-0.19898920134999998,-0.06834049709250001,0.27412557977499996
0 days 00:00:02.551972294,1.56789708175,3.7363925575000003,9.912866115500002,-0.13011420333499998,-0.06788235158,0.226936262125
0 days 00:00:02.571972294,1.53679037075,3.66819703575,9.7567341325,-0.10048725828,-0.0428368938125,0.195782158525
0 days 00:00:02.591972294,1.3563316063333335,3.638685624166667,9.369894663666667,-0.11285726725,-0.069867660265,0.23793182525
0 days 00:00:02.611972294,1.686939955,3.5521451234999994,9.068798065,-0.18229222918333332,-0.15834124138333333,0.2749909684333333
0 days 00:00:02.631972294,2.23130714925,3.9613178375,9.33739209175,-0.297185719,-0.106519544525,0.19776747379999998
0 days 00:00:02.651972294,1.8951155542499998,3.66042047775,9.69272613525,-0.28695373607499997,-0.095371261225,0.17699807139999998
0 days 00:00:02.671972294,1.162313610275,3.1956146954999998,9.862616539250002,-0.23335034775000002,-0.110490165615,0.23701552674999998
0 days 00:00:02.691972294,1.6901303727833332,3.231506943333333,9.636694272666666,-0.2273944095,-0.064980743455,0.2761108726
0 days 00:00:02.711972294,2.1200408935,3.5617164375,9.2865448,-0.33073236795,0.013413572685,0.16472986586666669
0 days 00:00:02.731972294,1.891526341,3.38046020275,9.8572328065,-0.37354381385,0.087277306245,0.122020242725
0 days 00:00:02.751972294,1.9962123037500001,3.116651416,9.90748238475,-0.3355174661,0.09873101861,0.09758564832
0 days 00:00:02.771972294,1.89631190925,3.0011978150000003,9.62453103075,-0.343000561025,0.11583523455,0.08704823441000001
0 days 00:00:02.791972294,1.8376877704999999,2.9379873675,9.657033602666667,-0.3455967456,0.08040507884,0.12370011954999999
0 days 00:00:02.811972294,2.009970963,2.8797620535000004,9.8297157285,-0.29377505676666665,0.06615156556666667,0.13713914530000001
0 days 00:00:02.831972294,2.090130568,2.95334142425,9.634700298,-0.330172412125,0.166384290925,0.0983492266475
0 days 00:00:02.851972294,1.9633110165,2.976671457,9.2907323835,-0.392327904725,0.212810013425,0.069485865535
0 days 00:00:02.871972294,1.88913351275,2.7523441912499997,9.54377341275,-0.39156431705,0.1706603430475,0.06566796079500001
0 days 00:00:02.891972294,1.8540387748333333,2.5914269291666665,9.824930032,-0.25274530055,0.02420551702,0.061391908675
0 days 00:00:02.911972294,1.801795423,2.500499606,9.580862045,-0.24032438298333333,-0.008984802289999998,0.09285144631333332
0 days 00:00:02.931972294,1.65942248725,2.5842484235,9.5575315955,-0.39141160997499996,0.04879282601,0.1030834317
0 days 00:00:02.951972294,2.00817647575,2.53220456825,9.16211795825,-0.5128209739999999,0.0510835684875,0.08781180996749999
0 days 00:00:02.971972294,1.82751828425,2.4131616952500003,9.390632391,-0.589484497925,0.0326049076425,0.0613919096075
0 days 00:00:02.991972294,1.4089737531666666,2.0307088295,9.631110827166667,-0.6067414582,0.025427246465,0.06200277433
0 days 00:00:03.011972294,1.4679966564999998,1.628315806,9.6897354125,-0.6724094152666668,0.061468267195,0.07727439701833334
0 days 00:00:03.031972294,1.41355997325,1.6133606729999999,9.3248300555,-0.8510873615500001,0.0309250289575,0.078343410045
0 days 00:00:03.051972294,1.48414826375,1.3860425352499999,9.416953802,-1.0432043075000001,-0.052458012479999996,0.055741410699999994
0 days 00:00:03.071972294,1.58584320525,1.01096758245,9.534800052249999,-1.20111286675,-0.07414371241,0.057421289380000004
0 days 00:00:03.091972294,1.590429484666667,0.5176472955366668,9.470792134666667,-1.3874266149999999,0.023900086060000002,0.08552106842
0 days 00:00:03.111972294,1.4727823139999998,-0.07896314749,8.993423939,-1.5465568699999999,0.058719375485,0.1572976819916667
0 days 00:00:03.131972294,1.3519447742500001,-0.380458794525,8.9988076685,-1.5497639775,-0.0605519730625,0.239917140475
0 days 00:00:03.151972294,1.49252313375,-0.33738798645,9.330213547,-1.4552326199999999,-0.15294527262500002,0.3141372055
0 days 00:00:03.171972294,1.7234304845000001,-0.22313071045,9.82433176025,-1.3185516,-0.225180033575,0.298865594
0 days 00:00:03.191972294,1.8277176615000001,-0.34935209649999993,10.0662061365,-1.13849926,-0.2091448307,0.25870123505
0 days 00:00:03.211972294,2.2408783435,-0.2045863345,10.48893833,-0.98293231935,-0.039731663955,0.17613267398333332
0 days 00:00:03.231972294,1.915454537,-0.397208552825,10.886745215,-0.7968730926500001,0.08758273720750001,0.178983379125
0 days 00:00:03.251972294,1.9363917415,-0.5587240904499999,10.8137638575,-0.64721123875,0.163940832025,0.16966769469999998
0 days 00:00:03.271972294,1.7790636420000001,-0.659222632675,10.9884400375,-0.503352589925,0.169591330025,0.1531743407
0 days 00:00:03.291972294,2.015953104,-0.6057829509166667,11.015359241666667,-0.4182896614,0.1650098488,0.1377500109
0 days 00:00:03.311972294,2.3150559664999997,-0.48574300110000007,10.597811225000001,-0.5064578106000001,0.19809836151666668,0.06017018171116667
0 days 00:00:03.331972294,2.4819552299999996,-0.52043893935,10.579266785,-0.572685718525,0.2202931046,-0.012522728182250002
0 days 00:00:03.351972294,2.2839491367499996,-0.34935210645000003,10.791031839999999,-0.573907464725,0.21128284927500002,-0.0652098162075
0 days 00:00:03.371972294,2.19720935825,-0.530608415575,11.128419642499999,-0.469755001375,0.17096577585,-0.03252854943
0 days 00:00:03.391972294,2.1248265503333332,-0.5894319613833333,11.421740211666666,-0.22281292454999999,0.11644610020000001,-0.0183259435
0 days 00:00:03.411972294,2.0961126085,-0.54077792165,11.20319557,-0.0030034178216666665,0.10097086058333334,-0.052432560053333334
0 days 00:00:03.431972294,1.9417755897499998,-0.55573304,10.844870324999999,0.027488914780000002,0.118125977025,-0.07605266571
0 days 00:00:03.451972294,1.8370896275,-0.5784648657,10.81675458,-0.02275471343,0.1239291877,-0.0838411916025
0 days 00:00:03.471972294,1.70368969425,-0.674177765825,10.874182704999999,-0.05879573617,0.123929187675,-0.080023285005
0 days 00:00:03.491972294,1.6299109856666665,-0.71944200995,10.95793152,-0.023976443336499998,0.09934188424,-0.06902771816
0 days 00:00:03.511972294,1.5314064619999999,-0.7968099415,10.809576514999998,0.07233657315283333,0.06716967311833333,-0.073303771515
0 days 00:00:03.531972294,1.3902299405,-0.9086744040000001,10.355537889999999,0.10384701193000001,0.039171705485,-0.08826996013499999
0 days 00:00:03.551972294,1.394417405,-0.918245703,10.319645882499998,0.0926987286625,0.012599086620749999,-0.0879645273125
0 days 00:00:03.571972294,1.41355997325,-0.833300486225,10.423135277499998,0.09957095794250001,-0.00404697912725,-0.0890335422025
0 days 00:00:03.591972294,1.3802598320000001,-0.8985049128833333,10.510871883333332,0.12293653565,0.0028252494509999997,-0.08491020277
0 days 00:00:03.611972294,1.4021940825,-0.93080800775,10.540383815,0.1992946316666667,0.01738419337,-0.082263123245
0 days 00:00:03.631972294,1.47338056575,-0.91704928875,10.255637884999999,0.26297727969999996,0.01901316689,-0.07437278703
0 days 00:00:03.651972294,1.5481562615,-0.9314062297250001,10.265209437500001,0.309555724275,0.011988221782999998,-0.057879438625
0 days 00:00:03.671972294,1.5050854685,-0.89850491285,10.2376918825,0.379652462925,0.0037415464164999995,-0.0423023868325
0 days 00:00:03.691972294,2.003191312,-0.6644070843666667,10.25444142,0.4567741305,0.024510948915,-0.08491020276
0 days 00:00:03.711972294,2.1894327405,-0.40199419115,10.616954325,0.5287543585166666,0.07399099599166666,-0.16554435339999998
0 days 00:00:03.731972294,2.35812670025,-0.23629123345000003,10.8215405975,0.562148302775,0.21113014219999998,-0.27107124775
0 days 00:00:03.751972294,2.4299114345,-0.196211457225,10.9525473125,0.53343766925,0.35773768274999995,-0.36468626560000006
0 days 00:00:03.771972294,1.152144133975,-0.923629574675,7.733602643,0.3946186416,0.2248746008,-0.4045451954
0 days 00:00:03.791972294,0.51246284445,-1.3926227691666666,8.263214508666666,0.03008509057,-0.18135047705,-0.20219624415
0 days 00:00:03.811972294,1.5002998410000001,-0.4283152521,10.981859682,0.04311687374666665,-0.13431388883333334,-0.11148282015
0 days 00:00:03.831972294,3.6532418727500002,1.0749755652,15.6167573925,0.604297988,0.4275289923,-0.37384923545000004
0 days 00:00:03.851972294,2.5866413120000002,0.028115659999999987,12.251850130000001,0.9813542661000001,0.5545888692000001,-0.57589277625
0 days 00:00:03.871972294,1.54875448375,-0.512064054575,9.966106177,0.856126964075,0.49655669925,-0.5218312442249999
0 days 00:00:03.891972294,0.9994022599333334,-0.47617171701666666,8.312665859666668,0.52305296065,0.38919722284999997,-0.38912086189999995
0 days 00:00:03.911972294,0.27996024490000004,-0.25722843409999996,6.66640377,-0.04881827532333335,-0.17605632296666665,-0.1885535940216667
0 days 00:00:03.931972294,0.64965135605,0.14237295092500002,7.928617835000001,-0.40515606105,-0.513050057,-0.0830776076725
0 days 00:00:03.951972294,1.255035445,0.41395831110000003,9.595218658500002,-0.393549643475,-0.635223016125,-0.106595901775
0 days 00:00:03.971972294,1.54217422025,0.533001221725,10.7144613295,-0.225409101675,-0.6353757530249999,-0.18310671675
0 days 00:00:03.991972294,1.4991033871666666,0.4131607041,11.030513761666667,-0.024587306195000002,-0.46112656594999996,-0.24465133995
0 days 00:00:04.011972294,1.25503546,0.16151552645,10.673185345,0.004937824175000001,-0.12739075969666666,-0.23111050826666668
0 days 00:00:04.031972294,0.9876375348499999,-0.013758730152499999,10.310672522499999,-0.061086477705,0.08223767206499999,-0.17073670962499998
0 days 00:00:04.051972294,0.777069136525,-0.046061836179999996,10.073184965,-0.10980294642499999,0.1149189323275,-0.09086613775749999
0 days 00:00:04.071972294,0.7686942666500001,0.03948157280499999,10.0492568025,-0.12721258957499998,0.033673922527500004,-0.018784091805
0 days 00:00:04.091972294,0.8733802438000001,0.09371888637166666,10.214162508333333,-0.103388864535,-0.11018473095999999,0.02962694224
0 days 00:00:04.111972294,0.8985048830499999,0.1351944767,10.469795705000001,-0.09310597554,-0.16404264913333336,0.08043053063833333
0 days 00:00:04.131972294,0.9924232068500001,0.0729810893675,10.68873882,-0.0904079861925,-0.135535625725,0.128128886225
0 days 00:00:04.151972294,1.146162033,0.061016975902500006,10.8532454925,-0.047494739061,-0.11476622152499999,0.1664606556
0 days 00:00:04.171972294,1.38125690775,0.126819602235,10.8131654225,0.019700389122,-0.11201732980000001,0.189673516925
0 days 00:00:04.191972294,1.6063816345,0.21415762605,10.677971043333335,0.061850057915,-0.08330668136000001,0.17867795379999998
0 days 00:00:04.211972294,1.7647067304999997,0.24167508635,10.42911768,0.06083194911833333,-0.040342527441666665,0.13184498248333332
0 days 00:00:04.231972294,1.63669070625,0.06939185690250001,10.2155582875,0.026725332835499997,-0.0330630564125,0.10827578229999998
0 days 00:00:04.251972294,1.5044872464999999,-0.0819541728325,10.189236875,0.005955931381,-0.072311119165,0.13332124055
0 days 00:00:04.271972294,1.5583257380000002,-0.1435693577,10.310074570000001,0.015729767503499997,-0.120874868675,0.17669263855
0 days 00:00:04.291972294,1.8205392558333333,-0.057028939635,10.395618121666667,0.049938194455,-0.17829615624999998,0.19272783400000001
0 days 00:00:04.311972294,2.0805592535,0.04426721763,10.510473730000001,0.059304789951666666,-0.11924589435193333,0.15057816231666668
0 days 00:00:04.331972294,2.10807675125,0.059222360145,10.50449133,0.057879438625,0.017944153048800003,0.106595901765
0 days 00:00:04.351972294,2.0195423365,0.02213360951375,10.288539167500002,0.085215637465,0.065286173485,0.0878118108975
0 days 00:00:04.371972294,1.99681052575,-0.04247260210374999,9.956535338,0.105985038,0.0341320689775,0.0911715682575
0 days 00:00:04.391972294,1.9824535651666668,-0.07377869837916666,9.686943690166666,0.08261946217499999,-0.06772963141999999,0.10231984779999999
0 days 00:00:04.411972294,2.103291035,0.07657032783750001,9.8141622545,0.006261363935666669,-0.12810343626666665,0.08755728602666667
0 days 00:00:04.431972294,2.1690937285,0.147158596675,10.1264252635,-0.04153880477,-0.09842558577,0.0490218973725
0 days 00:00:04.451972294,2.19780761025,0.14117653295,10.2945208525,-0.0372627505575,-0.047112945002500003,0.019547673059
0 days 00:00:04.471972294,2.18105787075,0.12622139232500001,10.2753787025,-0.00931568769425,-0.01320995041,-0.0091629718655
0 days 00:00:04.491972294,2.146361907333333,0.13758730395,10.1539429015,0.0135917416765,0.016569707075,-0.034208428115
0 days 00:00:04.511972294,2.129612207,0.1579262912,9.949356079,0.02000582218,0.02298378758,-0.04459312931
0 days 00:00:04.531972294,2.129612207,0.1579262912,9.949356079,0.02000582218,0.02298378758,-0.04459312931
0 days 00:00:04.551972294,2.129612207,0.1579262912,9.949356079,0.02000582218,0.02298378758,-0.04459312931
0 days 00:00:04.571972294,2.129612207,0.1579262912,9.949356079,0.0019853105749999995,0.0359646645375,-0.0436768317625
0 days 00:00:04.591972294,1.9306091071666664,0.26241287585,10.1144612615,-0.05207622424,0.086819157005,-0.051923505965000005
0 days 00:00:04.611972294,1.844866276,0.2584248483,10.02114105,-0.05451968126,0.059330240355,-0.06587158329833333
0 days 00:00:04.631972294,1.68514537825,0.1668993831,9.990632533500001,-0.0554359797375,-0.0035888308199999996,-0.042607817795
0 days 00:00:04.651972294,1.62831583625,0.14536397907499998,10.0953187945,-0.058032153175000004,-0.044822202997500005,-0.016798781811499998
0 days 00:00:04.671972294,1.7473587395,0.20219351352499998,10.2664055825,-0.0610864777075,-0.0455857832,0.004123337333749999
0 days 00:00:04.691972294,1.7910277846666667,0.22333011530000002,10.384850341666668,-0.07162389904,0.00557414163,0.003665188793
0 days 00:00:04.711972294,1.7383856775,0.18783657255,10.44945621,-0.04790197933833334,0.03326667876166667,0.01730783539883333
0 days 00:00:04.731972294,1.76231384275,0.2153540403,10.3920283275,-0.01221729593775,0.0009926548199999993,0.0267253336525
0 days 00:00:04.751972294,1.8185451925000002,0.192024014925,10.31366396,-0.0004581486582499999,-0.0303141651675,0.026114469395
0 days 00:00:04.771972294,1.8119649287500001,0.19980068504999998,10.30289626,-0.013286308855000001,-0.03688096162,0.0255036042025
0 days 00:00:04.791972294,1.8488542836666666,0.21934207028333333,10.43350442,-0.01817322662,-0.030161448755,0.024740023535
0 days 00:00:04.811972294,1.8532411455000002,0.2201396823,10.55833006,0.019700389511666666,0.0019089523690000003,0.025452698576666665
0 days 00:00:04.831972294,1.83948236725,0.2739781924,10.3980109725,0.059101167135,0.028176138175000004,0.0241291583475
0 days 00:00:04.851972294,1.7766707835,0.30029924215000003,10.1599249825,0.0572685748375,0.0336739213675,0.0190895241675
0 days 00:00:04.871972294,1.6360924842500002,0.299102835325,10.049256565,0.036804603415,0.004046979124999999,0.021991131830000003
0 days 00:00:04.891972294,1.5828522048333333,0.29152555265,10.119246644999999,0.02641990222,-0.04482220393,0.03940077871
0 days 00:00:04.911972294,1.5373885630000002,0.36011980475,10.33340454,0.013388119637833333,-0.024358232818333336,0.061799154305
0 days 00:00:04.931972294,1.4739787875,0.4390829429,10.456635235,0.016646064817750002,0.055970484390000005,0.089338975025
0 days 00:00:04.951972294,1.47098773725,0.473778881125,10.4237334725,0.047800168395,0.08315396681500001,0.10583232155
0 days 00:00:04.971972294,1.49192488175,0.46241298315,10.290932175,0.07208204456,0.078267047185,0.11591159364999999
0 days 00:00:04.991972294,1.4500505523333331,0.34815568728333335,10.136794406666667,0.053908815609999994,0.056886781005,0.12492185085
0 days 00:00:05.011972294,1.435693562,0.16390835495,10.223334790000001,0.031408630315,0.02634354401566667,0.16014838221666663
0 days 00:00:05.031972294,1.48953205325,0.0448654247425,10.39561796,0.05115992483,-0.017944152932,0.199141919625
0 days 00:00:05.051972294,1.65702965825,0.0071784676975,10.5050895175,0.0839939098775,-0.048029243944999994,0.22724169492500002
0 days 00:00:05.071972294,1.92382937675,0.019740787335000003,10.5355978,0.0991128124225,-0.044364053295000004,0.23029602695
0 days 00:00:05.091972294,2.1655045751666666,0.07736792975,10.502098245,0.093004163355,-0.028939719315,0.19425500185
0 days 00:00:05.111972294,2.2444676164999997,0.046660040525,10.57388306,0.08292489250833333,-0.03779725823333333,0.12471822649999999
0 days 00:00:05.131972294,2.072782576,-0.1752742598875,10.658230065,0.0945313256325,-0.0168751389695,0.10858121512499999
0 days 00:00:05.151972294,1.9746768774999999,-0.21655044704999998,10.701301332500002,0.1267544404,-0.00190895237,0.14065161345
0 days 00:00:05.171972294,2.0542382894999998,-0.133998068025,10.6953191725,0.1835648641,0.009086613543,0.167224239575
0 days 00:00:05.191972294,2.111666003666667,0.09571290635,10.537991206666666,0.2408334389,0.042226029559999996,0.16157373784999998
0 days 00:00:05.211972294,1.9669002295,0.27996025235,10.274780275,0.23635376743333333,0.13782636820333333,0.15353068209999998
0 days 00:00:05.231972294,1.847857237,0.42592243105,10.121639725,0.21410810575,0.21800236775,0.15683952715
0 days 00:00:05.251972294,1.7605192365,0.46660042552500003,10.028918027500001,0.200974512825,0.240451645075,0.153785202625
0 days 00:00:05.271972294,1.6773687002500002,0.457029126575,9.967303037499999,0.195476729425,0.22365286572499998,0.15928298605000002
0 days 00:00:05.291972294,1.7990038193333333,0.5475575973833333,9.6789674755,0.1855501756,0.1512653865,0.1588248387
0 days 00:00:05.311972294,2.1834506989999998,0.62213389575,9.017352103999999,0.062969976875,-0.048385582856666665,0.08450295899666667
0 days 00:00:05.331972294,2.294118643,0.562313310775,9.451051235000001,-0.018020510439999998,-0.0703258086025,0.0604756129875
0 days 00:00:05.351972294,2.21515554175,0.648454949225,9.7944214345,-0.028863359244999998,-0.07124210614500001,0.040622509085
0 days 00:00:05.371972294,1.90289220175,0.4510470703,9.878768443750001,-0.030085089617499998,-0.030161447357500003,0.055130546912499995
0 days 00:00:05.391972294,1.7312071721666669,0.53678988915,9.5613207815,-0.07681624405,0.03856083844,0.09468404203499999
0 days 00:00:05.411972294,1.920240164,0.717846781,9.7782697675,-0.080074192335,0.033775731148333335,0.053145235789333334
0 days 00:00:05.431972294,1.76650130775,0.72203421595,9.8506524565,-0.06429351866,-0.0063377223562500005,-0.004734202054999999
0 days 00:00:05.451972294,1.5714862945,0.546759977975,10.0031950475,-0.080023285,0.00603228952875,-0.00488691814825
0 days 00:00:05.471972294,1.574477345,0.5706882179249999,10.2807624325,-0.07452550158,0.013209950176,-0.0033597562870000004
0 days 00:00:05.491972294,1.7694923285000002,0.5978068808666667,10.443873403333333,-0.032528549435,0.0058795735239999996,-0.0201585381305
0 days 00:00:05.511972294,1.779063642,0.6053841412000001,10.350154400000001,0.005854120631833333,0.003537925270666667,-0.021685700244999998
0 days 00:00:05.531972294,1.9196419715,0.650249555675,10.171290872500002,0.005192350713,0.00465784408125,-0.02076940192
0 days 00:00:05.551972294,2.0051854255,0.5748756527750001,10.208379505,0.006261363741750001,-0.006490438013749999,-0.042913249695
0 days 00:00:05.571972294,2.1541386842500003,0.856032311925,10.146764757500002,0.02336557675,-0.0649807397425,-0.07086031419
0 days 00:00:05.591972294,2.8426733416666665,1.4484553137833334,10.373285296666666,0.065209813415,-0.15538872780000001,-0.229379721
0 days 00:00:05.611972294,3.773481369,2.2935204505,10.951949595,0.22546000655,-0.2230929136166667,-0.6638064136833334
0 days 00:00:05.631972294,3.62153708975,2.22053945025,10.554740429999999,0.39584037665,-0.323529265825,-1.10016748325
0 days 00:00:05.651972294,3.1459634899999998,1.90169578775,10.01874828375,0.42409287395,-0.39072437584999997,-1.3264928755
0 days 00:00:05.671972294,2.8845477104999997,2.2151555417499997,9.56590676275,0.374460101125,-0.44875653834999996,-1.472336799
0 days 00:00:05.691972294,3.021736185,3.1429725091666665,9.128219286333334,0.33857180179999996,-0.7378483117,-1.711337626
0 days 00:00:05.711972294,3.608376503,3.8368910555,9.238687992000001,0.4933242102333333,-1.4685443936666667,-2.2360705135
0 days 00:00:05.731972294,3.6113675835,3.9924245475,9.220143795,0.5812378227749999,-1.8671845497500001,-2.7563746570000003
0 days 00:00:05.751972294,3.1471599337500002,3.6711880565,8.1661053895,0.40179631297499996,-2.10053497575,-3.11632668975
0 days 00:00:05.771972294,2.22472679575,2.6446672675,7.86102056525,0.04138608835,-2.5046219825,-3.337154388
0 days 00:00:05.791972294,1.4476577045,1.8129619758333335,9.1034936105,-0.22831070425,-2.932074666,-3.2189520595
0 days 00:00:05.811972294,2.349751949,0.6664010809,12.303894040000001,-0.08119411021333332,-2.3322053950000003,-2.8452045519999998
0 days 00:00:05.831972294,2.3952154517500004,0.1064806077675,12.9780714525,0.20540327954999998,-1.35970860685,-2.3993242385
0 days 00:00:05.851972294,2.092523456,0.7657032255225,12.42772269,0.352010831275,-0.564057246755,-1.9304854870000001
0 days 00:00:05.871972294,2.0668005347500005,1.77188524575,10.921440835000002,0.41722065212500004,-0.10682497826500001,-1.59420433675
0 days 00:00:05.891972294,2.4019951816666665,2.7665017446666664,9.412965297166666,0.5688678175,-0.6040688977,-1.5842778085000002
0 days 00:00:05.911972294,3.580859184,2.189432681,9.483952523500001,1.10357814035,-1.4857503869666668,-1.8112140693333334
0 days 00:00:05.931972294,3.82133781925,2.1774686279999997,10.8562366975,1.4731004235,-1.75570175025,-1.8777983487499998
0 days 00:00:05.951972294,2.556132734,1.9890338182499998,11.4705936875,1.59603694075,-1.64253902425,-1.53678309875
0 days 00:00:05.971972294,2.5489542485,3.949353874,8.85882770875,1.54334986225,-1.72286775675,-1.139873713
0 days 00:00:05.991972294,3.6454653345000003,4.332205335166667,6.541977167166666,1.17362394905,-2.198426008,-1.168889761
0 days 00:00:06.011972294,3.8811582330000003,2.760120988,5.5980086325,0.5444332510333333,-2.285372455833333,-1.09019000335
0 days 00:00:06.031972294,4.05583423375,3.1112676857499997,3.82552522425,-0.573602028275,-2.01791548775,-0.9092722386500001
0 days 00:00:06.051972294,2.9240292905,2.72183585125,6.2853470445,-1.4285072985,-1.5664863292,-0.638964578525
0 days 00:00:06.071972294,4.417748748999999,3.30927365975,6.6783680915,-1.98699039225,-0.7050143033,-0.08093958344999999
0 days 00:00:06.091972294,6.297909339499999,5.929414550166666,7.569694359833334,-1.885586858,-0.14133884759999998,0.35399614274999996
0 days 00:00:06.111972294,5.084748268,5.207978487,9.81296587,-1.0526727043166668,0.6651044811000001,0.5966112514666667
0 days 00:00:06.131972294,5.39760971075,3.7567315697500003,9.79083228075,-0.5597048625500001,0.399123773925,0.340862536825
0 days 00:00:06.151972294,5.602195859250001,3.77766871425,9.681958675250002,-0.329714264725,0.030619594275,-0.10201442425000001
0 days 00:00:06.171972294,6.13998282,3.05204534525,8.82353377325,0.23273948205,0.09399680794999998,-0.76571901145
0 days 00:00:06.191972294,6.302694798,2.7852456569999995,8.554341316,0.4604393244,-0.37835437060000005,-0.7336485982
0 days 00:00:06.211972294,6.302694798,2.7852456569999995,8.554341316,0.4604393244,-0.37835437060000005,-0.7336485982
0 days 00:00:06.231972294,6.302694798,2.785245657,8.554341316,0.4604393244,-0.3783543706,-0.7336485982
0 days 00:00:06.251972294,5.2618170975,4.82213574675,10.259227039,0.504727020875,-0.14469859005,-0.47769625484999995
0 days 00:00:06.271972294,3.2638101575,3.8303108815,10.5170533675,0.753196284225,0.6986002474499999,0.29245151579999995
0 days 00:00:06.291972294,3.550151149166666,3.642673691,6.9403820041666675,1.066111803,1.2993857265,0.12767073697499998
0 days 00:00:06.311972294,3.6251262425000004,3.5928231479999995,5.6781680585,0.8892664213166667,2.0434190434999997,-0.306145066375
0 days 00:00:06.331972294,1.88195502725,2.7367908955000004,5.7984073165,0.5438223853499999,2.43971753125,-0.215940706425
0 days 00:00:06.351972294,0.7896315007750001,2.34556442475,4.61934411525,0.18264857724,2.2263730170000002,0.4773908257249999
0 days 00:00:06.371972294,0.945164993425,1.4015958309999998,3.8183467985000004,-0.119729495155,1.610774025325,1.026405558
0 days 00:00:06.391972294,1.4512469566666664,1.0077771146666665,3.7092739343333334,-0.50106184185,0.7248674184,1.4850122929999998
0 days 00:00:06.411972294,3.302095175,2.624926388,7.021738052500001,-0.48273589215,1.1633665509166666,1.6094250680000002
0 days 00:00:06.431972294,5.2019964455,3.1268209215,8.924031973,-0.33139413595,2.171242595,1.1328487097250002
0 days 00:00:06.451972294,5.332405328749999,3.14955282175,9.181260823999999,-0.212122794225,2.4678174260000003,0.75854133065
0 days 00:00:06.471972294,4.27178657075,3.2087751027499998,8.54357314075,-0.2455676459,2.35786163775,0.7870992719750001
0 days 00:00:06.491972294,3.9481573106666663,4.011567235,9.074780146500002,-0.7322741597499999,2.4218497274999997,1.0641264616
0 days 00:00:06.511972294,5.453242778500001,4.880161762,12.064611910000002,-1.0384192071833334,2.4387503066666665,1.0304270784666667
0 days 00:00:06.531972294,5.529215097,4.8346979615,13.92682576,-0.7670934349,2.1637593507500004,0.858265012525
0 days 00:00:06.551972294,4.795814752749999,4.631906271,14.70748401,-0.41996953638,1.9892047940000002,0.813519164925
0 days 00:00:06.571972294,4.167100549000001,4.53918457,14.222339635,0.008857540784999993,1.8041127322500001,0.8080213815249999
0 days 00:00:06.591972294,4.126023729666667,4.533202648,13.069198291666666,0.38041605055,1.3534472585000001,0.7238747478
0 days 00:00:06.611972294,3.7974095345,4.2089750765,11.040483475,0.36402450503333333,1.097902159,0.57095496355
0 days 00:00:06.631972294,3.66700071125,4.532604217499999,10.60140085,0.13515383749999998,0.978223622125,0.39721482249999995
0 days 00:00:06.651972294,2.9778677225,4.39860630025,11.102098702500001,0.13515383375,0.903545364775,0.246331229825
0 days 00:00:06.671972294,2.1960129145000002,4.188636183750001,10.658230540000002,0.2223547809,0.87727819385,0.111788252335
0 days 00:00:06.691972294,1.6554344498333335,4.185844421166667,9.827721754,0.22983787209999998,0.86139568685,0.016493349335
0 days 00:00:06.711972294,1.6510476469999997,4.1036908625,9.148957252499999,0.08852448928016667,0.8260673582666667,-0.14772746122833336
0 days 00:00:06.731972294,1.2885350285,4.19461822525,9.342775821250001,0.012064579525750001,0.693407893225,-0.28771730515
0 days 00:00:06.751972294,0.7561319469999999,4.183252335000001,9.622137784500001,0.0699440185,0.608497694175,-0.287259157725
0 days 00:00:06.771972294,0.58743797245,4.0295132997500005,9.422337293750001,0.20036365092500003,0.46998411419999997,-0.23441936077499997
0 days 00:00:06.791972294,0.8634101848333332,3.9832520488333336,8.589435418333332,0.29031349720000005,0.27588181195,-0.23579380664999997
0 days 00:00:06.811972294,0.9463613631,3.893122435,7.8221371175,0.21008657785666665,0.23403757313333337,-0.34106617666666666
0 days 00:00:06.831972294,0.5030909628,4.12582439175,7.80179834375,0.03543015857475,0.20196716863,-0.353079833075
0 days 00:00:06.851972294,-0.15613166987500002,4.19461798675,8.525627017249999,0.03405571288425,0.01947131194,-0.2347247824225
0 days 00:00:06.871972294,-0.522831737975,4.278366804499999,8.656035662,0.14569125319999998,-0.1364519205,-0.0259617529675
0 days 00:00:06.891972294,-0.03070788583333332,4.4243290423333335,8.279963969999999,0.18493930995,-0.21769693495,0.1490510032
0 days 00:00:06.911972294,1.0241280793,4.302295208,8.037491083,0.14431679965000002,-0.33477934201666665,0.15403973439
0 days 00:00:06.931972294,0.8662017881249999,4.0576288705,7.9710905555,-0.022754711574999996,-0.34124433247499997,0.100181825455
0 days 00:00:06.951972294,0.44267217812500004,4.0516468285,8.57348382475,-0.144164085425,-0.38446302712499997,0.13439024797500002
0 days 00:00:06.971972294,-0.032303113524999996,3.98763895,9.39541792875,-0.14874557780000003,-0.50098548085,0.21532982960000002
0 days 00:00:06.991972294,-0.9639086999499998,3.2590245008333336,9.3758765855,-0.15073088555,-0.55978119375,0.29840745035
0 days 00:00:07.011972294,-1.5194423795,1.956132531,8.098508358,-0.6043997853833334,-0.8281544745499999,0.5276853641166667
0 days 00:00:07.031972294,-1.279561937,1.5577275154999999,8.08235669175,-1.11604997525,-1.3590977792499999,0.8674280196249999
0 days 00:00:07.051972294,-1.44705951225,1.9262222052500002,9.776475189500001,-1.32084235575,-1.5145628754999998,1.134986788
0 days 00:00:07.071972294,-1.7730815712499999,1.82213440575,12.479168175000002,-1.3813180324999998,-1.377423704,1.3122902515
0 days 00:00:07.091972294,-1.3200404630933333,2.1575283408333337,14.773685928333334,-1.1421644684999999,-0.95806503295,1.2947279214999998
0 days 00:00:07.111972294,0.5922235882200001,2.11884439,14.230116365,-0.78012522055,-0.6643409132999999,1.0858121513333332
0 days 00:00:07.131972294,1.3842478695,2.1888344885,12.188440562500002,-0.6221657842249999,-0.869489669825,0.867886126025
0 days 00:00:07.151972294,1.37587302925,2.2618156672499996,11.33539939,-0.5639809220750001,-0.9893718659499999,0.77136950195
0 days 00:00:07.171972294,2.157129705,2.206780672,10.752148625,-0.52748173475,-1.0116684585,0.577114500125
0 days 00:00:07.191972294,1.5796617469666667,2.9475587605,10.259625908333334,-0.45433068275,-0.6993637978999999,0.33078327775
0 days 00:00:07.211972294,0.86500540375,2.8941190245,9.7016992585,-0.3617846667833333,-0.041564255953333344,0.4115192294166667
0 days 00:00:07.231972294,1.380060449175,1.56909343575,8.7260260585,-0.4885390997,0.0825431049,0.47387834637500004
0 days 00:00:07.251972294,2.05064895725,1.08335042025,8.915657043749999,-0.7970258295749999,-0.249156467575,0.42455103247500003
0 days 00:00:07.271972294,2.36291235675,1.45782721025,10.109675883000001,-0.8153517693,-0.602236300675,0.478917993625
0 days 00:00:07.291972294,2.6979074478333334,1.4640086891666666,9.223533709333333,-0.6776017546499999,-0.85971581935,0.7357866465999999
0 days 00:00:07.311972294,4.0677984955,0.93559363505,7.007381201,-0.9743802149833334,-1.1009056268500002,0.8613193234166667
0 days 00:00:07.331972294,4.8029932975000005,0.52642098065,5.087141037,-1.44805496925,-0.7491492740750001,0.675463721175
0 days 00:00:07.351972294,4.26700115175,-0.139980115,3.543172121,-2.0712897477500003,-0.03092503922499998,0.45799586925
0 days 00:00:07.371972294,2.9647072549999995,-1.018146075125,2.9210382105,-2.7623305915000005,0.7610611467500001,0.31108289214999996
0 days 00:00:07.391972294,3.4827532765,-3.3686954179999997,2.8606195448333334,-3.5144578220000002,1.6830088495000002,0.2357938141
0 days 00:00:07.411972294,4.5978085994999995,-4.510470629,4.3178485635,-4.331896702333334,1.947920561,-0.039808019986666665
0 days 00:00:07.431972294,4.83469808075,-5.24267447025,6.6831535102499995,-4.61935937425,0.741666175125,-0.1317940760465
0 days 00:00:07.451972294,3.92363089325,-6.510870456499999,7.3345996145,-4.491230607,-0.880027063125,0.15989385278550003
0 days 00:00:07.471972294,3.5425739885,-7.390830874,6.61136901425,-4.52925705925,-2.48873949025,0.8005382717
0 days 00:00:07.491972294,6.586643219,-6.3904316425,10.492926276666667,-4.5297150615,-3.4021350145,1.3267982600000001
0 days 00:00:07.511972294,8.587840557,-5.0572307105,14.59980726,-3.2218535344999997,-3.4335945446666667,0.6510800407833334
0 days 00:00:07.531972294,5.892923951,-6.521638155,13.423136952500002,-1.7730349305000002,-3.4083963632499996,0.175318190825
0 days 00:00:07.551972294,3.412165046,-7.291528701500001,11.845070360000001,-0.8558215129500001,-3.19856441,0.6278162598500001
0 days 00:00:07.571972294,2.66201514,-5.9030935765,9.830313681749999,-0.346818476925,-2.9415430430000002,1.21531546125
0 days 00:00:07.591972294,3.0404799380000003,-5.846463441833333,7.454440275833332,-0.1397353187,-3.6000552179999996,1.5598432425000002
0 days 00:00:07.611972294,3.7088751795,-7.1473612785,8.974281309,0.13118320952666668,-3.1904704375,2.2999058961666665
0 days 00:00:07.631972294,4.808377146750001,-6.997211814,11.3240330175,0.8200859577249999,-0.78946635125,2.53615784675
0 days 00:00:07.651972294,4.49491727375,-6.777072072000001,10.1599249825,1.5676317217499998,1.03625571725,2.1803290847500003
0 days 00:00:07.671972294,2.93300235275,-6.401398778,7.7742809057499995,2.1682645085,1.87436223025,1.92758378425
0 days 00:00:07.691972294,1.7116657695,-6.731807788,5.542574882666667,2.3186899425000003,2.2120177745,1.8823798300000003
0 days 00:00:07.711972294,1.8089739084999998,-7.200003147,2.5710878370000003,1.3929244182333331,2.115704775,1.6849686901666665
0 days 00:00:07.731972294,2.6560331880000003,-8.132605672,1.6755740342499998,-0.12996147575000006,1.22012607715,1.609017879
0 days 00:00:07.751972294,5.7009001372500006,-8.775078534999999,4.75394025475,-0.8856012075749999,0.163788139775,1.6855286660000002
0 days 00:00:07.771972294,9.963115216,-9.152546405999999,7.731209874,-0.55298534035,-1.253265425525,1.4931062157500001
0 days 00:00:07.791972294,11.1078813905,-9.047262668500002,8.345766703166667,0.34712392089999994,-2.7146067620000003,0.78862646205
0 days 00:00:07.811972294,6.4965136055,-7.996813296999999,6.181857109,0.06052652001666666,-1.9291364552833332,0.52972159285
0 days 00:00:07.831972294,7.21436023725,-6.7429740425,4.423132658,-0.95462894445,-0.10850484667499999,0.10720676925
0 days 00:00:07.851972294,9.67896759425,-6.3601224425,5.051248788500001,-1.68507051475,0.84154261655,-0.69944016625
0 days 00:00:07.871972294,11.0656085025,-5.5896335839999995,4.30588448,-2.24263733625,1.35909780875,-1.54136455025
0 days 00:00:07.891972294,9.5728855135,-5.561318715166667,4.280360937166667,-3.0987643004999996,0.72883804145,-2.259283304
0 days 00:00:07.911972294,6.9774708745,-5.2091748715,9.1621179585,-3.4628397223333334,-0.32195118561666664,-2.3818635145
0 days 00:00:07.931972294,6.257231116,-5.68056082725,14.0656096925,-2.50989073525,-1.39238986375,-2.14810603825
0 days 00:00:07.951972294,5.41495764225,-5.31505739675,14.3126688,-0.9706641568000001,-2.441702843,-1.9283474385
0 days 00:00:07.971972294,6.37747073175,-4.82751977425,14.04227972,0.35613416685,-2.88564878675,-1.8051054477500001
0 days 00:00:07.991972294,7.151748100833333,-4.1040896575,10.492527326666666,1.2704460025,-2.6235878465,-2.0821326375
0 days 00:00:08.011972294,7.0325057509999995,-5.2570312024999994,8.977870705,1.3337723663166665,-0.5014436245333332,-2.4367395443333333
0 days 00:00:08.031972294,5.9150574205,-7.1539415125,2.6213372349,-0.3518581165749999,1.0967313646,-1.82999813575
0 days 00:00:08.051972294,6.60119926925,-8.709276318499999,1.49730873105,-2.00959244325,0.48540841044999994,-1.5234967469999998
0 days 00:00:08.071972294,2.4759731889,-9.67298555375,14.310873571750001,-1.28189975,-0.7996983678,-0.767398879
0 days 00:00:08.091972294,1.8843478358666665,-5.770291964000001,10.297512095166667,1.0141882894999998,-1.4354559185,0.7223475873499999
0 days 00:00:08.111972294,2.7349963185,-8.240881443,3.8608193400000004,0.187790018225,-1.3283509409999998,0.6486365596166667
0 days 00:00:08.131972294,2.385644197,-9.908679008,3.847658873,0.02244928107,-1.319697022,0.5949822664
0 days 00:00:08.151972294,2.385644197,-9.908679008,3.847658873,0.02244928107,-1.319697022,0.5949822664
0 days 00:00:08.171972294,2.385644197,-9.908679008,3.847658873,0.02244928107,-1.319697022,0.5949822664
0 days 00:00:08.191972294,8.197012782833333,-6.253642201333334,1.0460623105333335,-0.9219476449649999,-0.778470814,0.38240133969999995
0 days 00:00:08.211972294,12.413963795,-4.1958144905,4.768895626,-1.8597268861666667,-0.5464440186833334,-0.33292130378333334
0 days 00:00:08.231972294,9.682557104999999,-5.30010223425,6.583253503,-1.4133883416750002,-0.8552870751249999,-0.26114469206
0 days 00:00:08.251972294,7.5302128790000005,-5.9162541627500005,5.483152985749999,-0.49220428247500003,-1.1375066044,0.12217295356999999
0 days 00:00:08.271972294,4.4841495755,-6.64726126175,3.25722974525,-0.3220784627,-0.8282563016,0.339029945475
0 days 00:00:08.291972294,0.3688935042166667,-6.158726692333334,5.16530629,-0.6226239501999999,0.09659297765000001,0.7431170046500001
0 days 00:00:08.311972294,0.2165504545,-2.915654302,7.724031210000001,-1.0477858581666666,2.37684935315,0.21380267540000006
0 days 00:00:08.331972294,-1.599601991725,-2.60937303325,9.346365213750001,-1.3170244692500002,4.091801465,-0.399200134
0 days 00:00:08.351972294,-4.2502514125,-3.56410938525,8.23370277875,-1.6913318634999999,5.06857430975,-0.147371128225
0 days 00:00:08.371972294,-3.962514341,-5.609972775,8.75115048875,-2.2177446485,5.4089785815,0.6516400055
0 days 00:00:08.391972294,2.1024934848333334,-5.836493253833333,13.972489039333334,-1.2829687896,4.2538331744999995,1.5219696165
0 days 00:00:08.411972294,8.068598031999999,-2.364108741,18.92363834,2.407469064133333,2.9646031455,2.560643375166667
0 days 00:00:08.431972294,8.8833544255,-2.5106690825,21.356539724999998,6.07840991025,3.32715135775,2.9121451377500005
0 days 00:00:08.451972294,7.372884750000001,-8.710472940750002,18.7381944675,8.384424329249999,1.8914663790000001,2.76584297425
0 days 00:00:08.471972294,9.89432192,-14.223536012499999,14.977873567500001,9.76757502675,-2.27188247475,2.01844990275
0 days 00:00:08.491972294,8.2261253995,-11.365907667,12.470992723333334,10.710444930000001,-4.225275278000001,1.08489581965
0 days 00:00:08.511972294,6.551548481,-7.378268479999999,12.853046895,10.815106551666666,-3.5947609745,0.8641700446833335
0 days 00:00:08.531972294,4.957928538499999,-6.81356251225,11.405987499999998,9.777654406749999,-2.5615851879999996,1.13498678825
0 days 00:00:08.551972294,7.227520584750001,-7.4213393925,10.2101740825,8.325476288499999,-2.5858669874999998,1.120020598225
0 days 00:00:08.571972294,8.65125012375,-6.06999266125,7.77846801225,6.764716625249999,-2.72804576175,0.79733122885
0 days 00:00:08.591972294,8.909675439333334,-3.2873394490000005,7.127819856166667,5.4652543069999995,-2.371300697,0.524732843
0 days 00:00:08.611972294,9.085547923999998,-2.7840491535,8.736195326,4.759196519833334,-1.3547199069833333,0.19405138243333334
0 days 00:00:08.631972294,6.981060266749999,-2.18644171975,7.61575627375,4.34859347375,-0.5466476380749999,0.178983379175
0 days 00:00:08.651972294,6.235695720000001,-1.43449720775,5.52143824125,3.418857455,-0.4589885175,0.25564690307500004
0 days 00:00:08.671972294,5.95453894175,-1.52303162225,2.96769827575,1.720042586075,-0.66652980445,0.07651081677499999
0 days 00:00:08.691972294,5.574080308666666,-0.7908278703499999,2.8107690015,0.16081016509999999,-0.6816487312,-0.2583957985
0 days 00:00:08.711972294,4.723431826,-1.34596270345,3.5222349165,-0.7041743621833333,-0.7352011998666667,-0.4754564265166667
0 days 00:00:08.731972294,2.7122643592499998,-2.86480686075,2.96291261925,-1.54243353025,-0.70837405325,-0.42699448765000003
0 days 00:00:08.751972294,1.470389515,-3.29850602175,0.604785922975,-2.6212207675,-0.6672933995999999,-0.10293070967499998
0 days 00:00:08.771972294,2.11226418625,-2.6548366545000004,-0.510867629225,-3.71314150125,-0.678136259325,0.134848400975
0 days 00:00:08.791972294,5.097111066166668,-0.06819542253333344,1.4572289881,-4.244746685,-0.62911435965,0.0629190686397
0 days 00:00:08.811972294,7.756334543,4.0809589619999995,5.9282181265,-3.9029678501666667,0.2995019156666667,-0.6846776147034334
0 days 00:00:08.831972294,7.127620339,7.4201432467499995,9.42951560225,-3.12212985725,1.25051659325,-1.85366913675
0 days 00:00:08.851972294,3.31465762875,6.6029942035,5.94078052075,-2.18338340525,1.37024602325,-2.5314236279999998
0 days 00:00:08.871972294,-0.955932617,5.0554358955000005,7.250252604250001,-1.1212423259,1.3757438359999998,-1.9097160695
0 days 00:00:08.891972294,0.9335996707666666,5.438885926833334,6.154738664333333,0.3058905378,1.5434262155,-0.78160151835
0 days 00:00:08.911972294,3.6945182085,3.128615558,3.75673151,1.4232640662,0.41587164,-0.46914413905116664
0 days 00:00:08.931972294,1.331007584875,0.308075927175,0.20937199894999997,1.8101450802499999,-0.89926934235,0.22067490209474996
0 days 00:00:08.951972294,1.754537239375,1.449452288225,-0.97686980685,1.23975010985,-1.4748566745,0.91889335225
0 days 00:00:08.971972294,5.2247283455,4.408177465,2.9868408145,0.17241657522499998,-1.382768750425,0.8756746800749999
0 days 00:00:08.991972294,7.365905841,6.913263320666666,9.544969796666665,-0.6815723776999999,-0.21036656205,-0.33261588215
0 days 00:00:09.011972294,7.1485576625,8.749355792000001,15.628721235,-0.30690863855666667,1.0267364132666668,-2.2705843644333332
0 days 00:00:09.031972294,5.52143836025,7.948358535000001,17.040486332500002,0.25671591797,1.146364063,-3.560578048
0 days 00:00:09.051972294,2.450848669,7.060023308,15.9667074675,0.89720763275,0.8923970532750001,-2.8753405515
0 days 00:00:09.071972294,1.5272190575,7.52722179925,15.7244343725,1.2507456245,0.2395353456875,-1.69423346245
0 days 00:00:09.091972294,2.3936201930000003,8.533603429833333,16.996618426666664,1.7218750715000002,-0.051541715860000004,-0.8038980365
0 days 00:00:09.111972294,3.141776085,7.816155195,16.03908968,2.777653078166667,-0.013566289718333334,-0.2312123217016667
0 days 00:00:09.131972294,4.0307097435,5.550151944,9.953543901,3.34188854675,-0.35529423505,0.085062921045
0 days 00:00:09.151972294,3.043670356,4.490729928,5.39162755,2.9756749869999997,-0.722576692725,0.09911281055749999
0 days 00:00:09.171972294,2.8558338282499998,4.704289317500001,3.38704037625,2.1369577345,-0.424321964375,0.06658425925
0 days 00:00:09.191972294,5.290530919666667,4.608177741166666,2.6967111428333332,1.2976294755,-0.3780489266,-0.17623449115
0 days 00:00:09.211972294,4.0821553465,2.81395936,2.4933211805,0.7400117790333333,-1.0471494796166667,0.30818128581666665
0 days 00:00:09.231972294,3.03589373825,3.1669007540000003,2.04107779275,-0.06994402035000001,-1.25036385675,1.38238704175
0 days 00:00:09.251972294,5.105087161,2.1565314232499997,4.2723848225,-0.8046616316499999,-1.1695770325,1.9653047617500001
0 days 00:00:09.271972294,16.88794398625,7.83709254875,9.9828559135,-0.954934373625,-0.9024763811675,1.29213176635
0 days 00:00:09.291972294,12.311471462166667,6.179464419833334,7.253841836666667,-0.57497647405,-0.277561686935,-0.7907644509999999
0 days 00:00:09.311972294,9.3116693515,5.5597233775,6.6891354320000005,-1.0416771369333333,-0.33803730705,-0.1142317056333333
0 days 00:00:09.331972294,8.427521349,2.284547388625,8.565108537250001,-1.21836984125,0.1633299663475,-0.29443681237499997
0 days 00:00:09.351972294,5.96710133525,2.906681298875,7.254440069499999,-1.6913318632499998,0.1153770834175,0.292146071775
0 days 00:00:09.371972294,4.85084974775,2.4005993009999997,12.46361469875,-1.322216808575,0.0970511362,-0.2712239623
0 days 00:00:09.391972294,5.937789361,1.858824372,10.707881133833334,0.1372918785,-0.6013200134,-0.17104213614299998
0 days 00:00:09.411972294,7.221538782,3.2530423400000004,3.6059837345,0.13087778295,-0.7618756493,0.108123066769
0 days 00:00:09.431972294,6.800999998749999,3.3469606045,3.1028928162500002,-1.0943642555,-0.48510299995000006,0.05192350599999998
0 days 00:00:09.451972294,5.560321450249999,1.8215361835000001,5.895316779750001,-1.2029455007749998,0.04130973295,-0.393702350525
0 days 00:00:09.471972294,5.871986746999999,1.81256318075,7.058826804000001,-0.9265291690999999,0.39851291479999995,-0.8064942210499999
0 days 00:00:09.491972294,6.1375901698333335,3.6482568981666663,7.5298139255,-1.07405298955,0.6485093236,-1.0564906594999999
0 days 00:00:09.511972294,7.4512495995,4.480560303,7.611568688999999,-0.9364047944666666,0.22670719520000002,-0.73242685695
0 days 00:00:09.531972294,9.17288517975,4.250849366000001,6.449255109,-0.75319626925,-0.551839970075,-0.255494186645
0 days 00:00:09.551972294,9.519246339750001,4.41296327125,7.0133630035,-0.625067397975,-0.807945027925,-0.12767074071
0 days 00:00:09.571972294,8.3910307885,3.8374893665,6.6628146167499995,-0.373238369825,-0.720285914875,-0.35170540215
0 days 00:00:09.591972294,6.851847648666666,2.6971099375,4.3888353905,-0.4955640435,-0.20609050246000002,-0.5079340637
0 days 00:00:09.611972294,4.5726840495,5.8576300145,5.587240815,-0.8264491458833333,0.09272418169666667,-0.29443681611833333
0 days 00:00:09.631972294,4.27298283575,7.5487574337500005,7.95792984975,-0.532368652525,0.0733801331325,0.10415244661749999
0 days 00:00:09.651972294,3.275774062,5.98983323575,7.092924476,-0.29474226012,-0.1356883403025,0.30268350245
0 days 00:00:09.671972294,6.121438324250001,5.58724093475,7.619943856999999,-0.06566796451500001,-0.356974110025,0.40469792485
0 days 00:00:09.691972294,8.979864756166668,3.8025940256666666,5.458427270333334,-0.33001969011000004,0.14210242034999998,-0.12583814565
0 days 00:00:09.711972294,9.704092503,4.9112684725,6.751349211,-0.40301801758333333,0.27231843271666667,-0.6117810905000001
0 days 00:00:09.731972294,8.5232343675,4.73061037025,6.0442699192500005,0.2047924203975,-0.493807807575,-0.4369210452
0 days 00:00:09.751972294,9.854242084500001,6.7357957365,6.86500799625,-0.005192349657500005,-0.9641736893999999,-0.3504836708
0 days 00:00:09.771972294,5.3671011915,6.6191457512500005,3.84347128875,-0.03390299154999999,-1.01289014495,-0.5836813003
0 days 00:00:09.791972294,5.633103410166666,5.784249941833333,7.0089763005,-0.28084507959,-0.7335722446499999,-0.2910770774
0 days 00:00:09.811972294,3.560520053,4.826323271,5.3742797375,-0.18595742557999997,-0.44127344588333334,-0.33180138968333334
0 days 00:00:09.831972294,4.971687197750001,5.266602516,6.365506291499999,-0.19669846261,-0.12179116345,-0.424092881375
0 days 00:00:09.851972294,3.029313445,4.1521454452499995,6.85244584075,-0.0707076005625,-0.12148573807500002,-0.513126418025
0 days 00:00:09.871972294,2.2737796305,3.16271334875,8.8313102725,-0.05115992408745,-0.31894778457500006,-0.4132500234875
0 days 00:00:09.891972294,5.457629759833334,3.8596229550000003,7.728418350166667,-0.14278963992990001,-0.44127345085,-0.08857538922500001
0 days 00:00:09.911972294,7.6737823485000005,1.4105689525,6.07298398,-0.5645917803333333,-0.43964447576666665,-0.21644974993333332
0 days 00:00:09.931972294,8.98624563225,2.3856441972499995,6.3421765565,-0.8578068614000001,-0.5599339157250001,-0.409279413525
0 days 00:00:09.951972294,9.787840843249999,3.5575290914999997,6.2560347315,-0.7510582506999999,-0.72517284755,-0.44379327445000005
0 days 00:00:09.971972294,9.6975119115,2.9102706315000004,5.482554793,-0.7005091756749999,-0.77953980865,-0.572991177425
0 days 00:00:09.991972294,10.689536413666666,2.8350960416666666,5.3758748370000005,-0.72158402205,-1.1211659311,-0.46822786330000005
0 days 00:00:10.011972294,10.652846335,2.713460922,5.294120073,-0.68584845465,-1.9529600936666665,-0.47769625983333325
0 days 00:00:10.031972294,10.5595264425,3.611965835,3.11007124175,-0.99937480685,-2.21812647575,-0.458454012875
0 days 00:00:10.051972294,11.5214407475,3.7692939045000005,2.9036902785,-1.2383756637499999,-2.2628722789999998,-0.33475390075
0 days 00:00:10.071972294,14.783456085000001,2.7260231375000004,5.44606447225,-1.0314452202500002,-2.2692863347500003,-0.6395754217
0 days 00:00:10.091972294,8.465806563166666,0.0578265190000001,4.8534419535,-0.6840158403,-2.4589598180000003,-1.251051068
0 days 00:00:10.111972294,8.559126615499999,4.284349084,6.139982819499999,-0.6982693473333333,-0.7597376008833333,-1.8618141016666667
0 days 00:00:10.131972294,-0.2991028427500002,2.66380983625,4.80060034975,-1.3132065535,-0.22136211395,-0.923627525825
0 days 00:00:10.151972294,5.30010181675,4.430311263,11.707483291499999,-1.3391683252500002,0.424169212575,-0.605061560875
0 days 00:00:10.171972294,5.018347203499999,3.05025076875,9.380463122999998,-0.39965829254999996,-0.35437792537499996,-0.675769150275
0 days 00:00:10.191972294,4.871786793333333,5.0221360525,7.3663044766666665,-0.066736981295,-0.83253231645,-0.4981602281
0 days 00:00:10.211972294,4.061816454,5.9485571385,5.556134224,0.07162389405166666,-0.32011859118333336,-0.18509202205
0 days 00:00:10.231972294,3.9571304322499996,5.8253266815,4.6127640012499995,-0.241902444475,-0.31024293599999997,0.71410091965
0 days 00:00:10.251972294,4.410570144999999,4.5349971057500005,5.16610395925,-0.60048006475,-0.488615460725,1.53724119075
0 days 00:00:10.271972294,8.2851485015,5.19242501275,6.745965361750001,-0.71914055945,-0.5690969154250001,2.05723989025
0 days 00:00:10.291972294,8.686743895166666,4.554339210499999,6.291927099333333,-0.7948877811499999,-0.3749946058,2.082743406
0 days 00:00:10.311972294,9.46839905,3.8404803275,7.628318548,-0.72555463515,-0.12830705441666665,1.6626721025000002
0 days 00:00:10.331972294,11.7254290625,4.332205474,7.8029944897500005,-0.44257152829999996,0.47090037912499993,0.829096235325
0 days 00:00:10.351972294,11.173883440000001,4.6959146257499995,7.55533742875,-0.2041815501,0.6046797633,0.13607012480000003
0 days 00:00:10.371972294,8.87617564225,5.731408357499999,7.9669027325,0.06001746467500001,0.9605084956250001,-0.155312370475
0 days 00:00:10.391972294,5.580859899500001,5.732804060333334,8.096115668333335,0.6427824497,1.6097050309999998,-0.122783821985
0 days 00:00:10.411972294,3.8045880795,4.7186462879999995,6.25842762,1.32766365985,1.8572071193333333,0.34340782807166664
0 days 00:00:10.431972294,6.7226351502499995,4.230510354,5.1942197085,1.5317433775,1.232496022825,0.358577635175
0 days 00:00:10.451972294,8.60339367425,4.198207259,4.9627143144999994,1.6375757155,0.756785117075,0.06597339734999999
0 days 00:00:10.471972294,8.39880776425,4.625326037500001,4.75094950175,1.75333464125,0.3258200082675,-0.19715660812499997
0 days 00:00:10.491972294,6.955935319333332,4.7641097705,4.984648386333333,1.8858923315,-0.004199694840000004,-0.2755000144
0 days 00:00:10.511972294,5.466403246,4.45782876,5.603990555,2.066606441833333,-0.00012726461000000153,-0.02097302365000001
0 days 00:00:10.531972294,5.62552607075,4.07198601975,5.137988448250001,2.0544909537500002,-0.17310380748749998,0.217773295925
0 days 00:00:10.551972294,5.82652330425,3.895515263,3.7076787945,1.7166827317500002,-0.61766065655,0.40973754230000003
0 days 00:00:10.571972294,6.2781685595,4.13479745375,2.9868408442499996,1.2968659100000002,-1.030147105575,0.69959287345
0 days 00:00:10.591972294,7.684549887999999,4.420341094,4.3868416151666665,1.2035563585,-1.4290418029999998,0.81275561455
0 days 00:00:10.611972294,9.560522556499999,4.25204587,5.880361795500001,1.8655301531666666,-1.5293254255,0.23681191603333332
0 days 00:00:10.631972294,10.136594773749998,4.302893281,4.27298301475,2.4849979285,-1.3670390245,-0.46440994742499997
0 days 00:00:10.651972294,9.90628552475,3.914059579,3.61974251275,2.8313581945,-1.2184461207,-1.044731468
0 days 00:00:10.671972294,9.3481600285,4.42552560575,1.5098710953999999,2.70017504675,-0.74563681335,-1.4720313847500002
0 days 00:00:10.691972294,7.444071213333333,4.028316974333333,-1.0333006183,1.6278019545,-0.22044582293,-1.6389501690000001
0 days 00:00:10.711972294,6.175875187,4.153940201,-0.37088751794999997,0.4488328844583333,0.34073528770666667,-1.4358376860000002
0 days 00:00:10.731972294,5.92881643775,5.64526677175,-0.037686951450000006,0.044440413009499996,0.81344282625,-1.075427487275
0 days 00:00:10.751972294,5.526223898,6.34277474925,0.4989035055,0.006261363976000002,1.003116294625,-0.784961268275
0 days 00:00:10.771972294,4.74855661425,6.3960149287500005,1.282552912775,0.08155044728000001,1.35283637025,-0.41615164840749996
0 days 00:00:10.791972294,4.269194444,6.121637900500001,1.4396816094999998,0.21670427920000002,1.8378630280000001,0.194560427235
0 days 00:00:10.811972294,7.188039302500001,7.2059855465,1.7850456835,0.3177005847666667,1.36678450815,0.43025243034999994
0 days 00:00:10.831972294,9.7268238095,7.998607993,1.84725907425,0.6047561169,0.14103338865,0.13805543652250002
0 days 00:00:10.851972294,7.963912011250001,8.056633949,3.2225338519999998,0.9827287197750001,-0.590324476375,0.0409279398175
0 days 00:00:10.871972294,5.40299367925,8.3976113795,5.0428735615,1.623220414,-0.5405389890250001,0.23105959967499998
0 days 00:00:10.891972294,5.503492117166666,7.075576464166667,2.904487888333333,2.5025602575000003,-0.49228064715000003,0.7434224486000001
0 days 00:00:10.911972294,8.7696950455,6.9966132645,1.8939191105,3.119024594833333,-0.5857429405166666,0.5072213759166667
0 days 00:00:10.931972294,11.0321087825,7.66480922725,-1.3058829900000002,2.8951935769999997,-1.1747693419749998,-0.42852165550000004
0 days 00:00:10.951972294,10.25862860575,7.62592577925,0.6125625969999999,2.57067173725,-1.9954662325,-1.21730083225
0 days 00:00:10.971972294,8.054839134,8.455038667,1.34715917675,2.51386117975,-1.8978805545,-1.45981410125
0 days 00:00:10.991972294,5.550949653,8.433902502,-0.2636092901666666,2.4084870815,-1.854203701,-1.2397500275
0 days 00:00:11.011972294,5.448457241,8.070990801,-2.295913279,2.0686425961666663,-1.7342705328333334,-1.1562652188333333
0 days 00:00:11.031972294,5.955735445249999,7.89152896425,-2.5860430594999997,1.7683008012499999,-1.65842148675,-1.52120599175
0 days 00:00:11.051972294,4.5948176385,7.647461176249999,-2.111067712,1.6146683695,-1.669417083,-1.7469205857499999
0 days 00:00:11.071972294,3.46241432425,7.96570694425,-2.5058835742500003,1.4384338555,-1.4814234075,-1.7154609862499999
0 days 00:00:11.091972294,3.2422746423333333,8.145966291333332,-2.7046871583333334,1.0658062992,-1.2747984525,-1.5833615065
0 days 00:00:11.111972294,3.8536410335,7.7048890595,-3.5820554495000003,0.2219984432166667,-1.3273328146666667,-0.7713185846166667
0 days 00:00:11.131972294,4.58524656325,8.163114786000001,-2.581257343,-0.271223962325,-1.74317899325,-0.1795942411
0 days 00:00:11.151972294,5.48853695425,9.1722877025,-1.4291132685,-0.1844811597475,-2.0194426177500002,-0.241291582625
0 days 00:00:11.171972294,4.582255363250001,9.1890375615,-0.6723831444,0.05345067103250001,-1.99241179225,-0.365755282375
0 days 00:00:11.191972294,2.7298117478333332,8.467401663333334,-0.6037889321333334,0.4839576185,-1.70515269,-0.5623010397
0 days 00:00:11.211972294,2.5591237545,8.1020975115,-1.5134603083,0.47469284386666666,-1.3207151193500002,-0.8727221687833334
0 days 00:00:11.231972294,2.6494529245000003,7.69711232225,-2.10747849975,0.07345648485,-0.917747959475,-0.9825760126
0 days 00:00:11.251972294,2.4819552895,7.07856750525,-1.7162520589999999,-0.33383760605,-0.5524508394,-0.9107993990500001
0 days 00:00:11.271972294,1.87896397725,6.7064837215,-2.5639095605,-0.9790635408250001,-0.08987348522500001,-0.67103497685
0 days 00:00:11.291972294,2.396013081,7.439285675333333,-2.3130618333333337,-1.9335397485,0.3403280452,-0.5140427053000001
0 days 00:00:11.311972294,2.379662156,7.974081754499999,-1.3615160586000001,-2.7217589221666665,0.8705586692166666,-0.7625628610333334
0 days 00:00:11.331972294,1.5451652404999998,7.13061141975,-1.15393871055,-3.1932956577500002,1.4582106175,-1.0303761661
0 days 00:00:11.351972294,0.596411034375,5.25523674475,-1.74018025425,-3.71176713725,2.0382267235,-1.14216440925
0 days 00:00:11.371972294,0.2667997256,4.53978264325,-1.83110755725,-3.92480629675,2.3134213089999998,-1.079398036025
0 days 00:00:11.391972294,0.35134612025000006,5.667400359833334,-2.1212372186666664,-3.691303134,2.150320411,-0.77488195895
0 days 00:00:11.411972294,0.5156532824000001,6.241677761000001,-2.610569477,-4.048964540166666,2.0855687065,-0.25442517922
0 days 00:00:11.431972294,2.3383859844000003,7.94417107125,-0.8578269294749999,-4.1123415232500005,1.6886592805,-0.128892464565
0 days 00:00:11.451972294,3.01196551325,9.710073945000001,0.41395830734999994,-3.0689846875,1.18408501125,-0.345749452725
0 days 00:00:11.471972294,2.192423701,10.31964588,0.6442675143750001,-1.662163138175,0.6810378879500001,-0.41080655902499996
0 days 00:00:11.491972294,2.061815500166667,11.105488776666666,0.6592226227333334,-0.09392045434999997,0.18486295363500002,-0.2498437017
0 days 00:00:11.511972294,2.817548752,11.42572832,0.52283173795,1.0072651556666667,-0.19377139803833332,-0.51221013565
0 days 00:00:11.531972294,1.211964696675,9.580263852999998,1.106680467525,1.4500402807500001,-0.3497964442,-0.7166970968249999
0 days 00:00:11.551972294,0.326620295625,9.74058294325,1.5314065215,1.5891647335,-0.061773702525,-0.696233123525
0 days 00:00:11.571972294,1.9310078175499998,9.967302561,0.714855775125,1.1177298497750001,0.4460076392,-1.0048725754999999
0 days 00:00:11.591972294,4.5738805535000004,9.093523661499999,-1.0963115590833332,-0.68737559045,0.8534544408499999,-2.233627081
0 days 00:00:11.611972294,4.1850467920000005,8.834300995,-0.017946124000000063,-1.9756894710000001,0.6018799866000001,-3.6018623909999996
0 days 00:00:11.631972294,-0.07118651250000008,10.603793862500002,9.044869424,-0.5878045855,0.03657552975,-3.85608398925
0 days 00:00:11.651972294,-2.9096724092499997,9.6323080075,6.6658056975,1.7971642019999998,-0.43470665065,-3.44283396
0 days 00:00:11.671972294,-2.818745017,9.31406259525,2.0434705315,2.18491059525,-0.356210514875,-3.23315453525
0 days 00:00:11.691972294,-3.682155291166667,8.941579819,3.853640934,1.6873612405000002,0.016569703800000002,-2.9593343735000004
0 days 00:00:11.711972294,-3.0077780485,8.379664898,1.3076776119,0.6164134567833334,0.7195732792,-2.805396556833333
0 days 00:00:11.731972294,-1.0229316800750001,6.86799907675,1.7024933022000002,-0.306043256075,0.768849700675,-2.94467365725
0 days 00:00:11.751972294,-1.6468601975250001,7.08634424175,1.59900370225,-0.9735657276,0.921718567525,-2.7591235037499997
0 days 00:00:11.771972294,-3.55633270725,7.43449986,-1.43389889575,-2.10198569325,1.27204951625,-2.1061090825
0 days 00:00:11.791972294,-4.810770114,6.319444656333334,0.6500501930333334,-3.3800675864999996,1.5669445395,-1.4602722525
0 days 00:00:11.811972294,-5.6650075915,7.966902971,5.2115677595,-3.1520113146666664,1.42237317555,-1.7528765006666667
0 days 00:00:11.831972294,-6.720242381,9.271589756249998,4.90648299475,-2.52088630175,0.7033344507,-2.34602624225
0 days 00:00:11.851972294,-7.978867054,8.959924459249999,4.677369952,-2.1287109852499997,0.074296429775,-2.4791946415000004
0 days 00:00:11.871972294,-8.529814720000001,8.733204364999999,3.2967113252500004,-2.32266050575,-0.103465229275,-2.1548254195
0 days 00:00:11.891972294,-7.555736382666666,8.359325886,0.5419743259099999,-3.3574655055,0.545578599,-1.5357140305
0 days 00:00:11.911972294,-4.4566321375,8.224131584,1.35194479665,-4.402553280333334,1.0688860712166666,-1.3658936816666667
0 days 00:00:11.931972294,-3.8440696005,7.904689669250001,3.4773694275,-4.16609776025,1.06817345305,-1.9043709340000001
0 days 00:00:11.951972294,-6.7884377245,5.79541659325,5.350949764,-3.27377706775,0.641637112935,-1.9761474730000002
0 days 00:00:11.971972294,-8.12064170875,3.8344983455,8.09252607825,-1.5864157972750002,-0.13614648207000002,-1.4123193476
0 days 00:00:11.991972294,-8.1284186045,1.2522437968333333,7.4010004995,0.59880018245,-0.90400350085,-0.380263336005
0 days 00:00:12.011972294,-7.701299667000001,-1.6606189311000001,4.8430731295,0.6406444205683333,-1.0325905408833334,0.9690351557316665
0 days 00:00:12.031972294,-6.54317331325,4.297509595699999,5.5441702605,-0.2498436896175,-0.024510946124999988,1.4208714960000002
0 days 00:00:12.051972294,-7.277769922999999,5.4293147325,5.03449881075,-1.019991442475,0.39958193155,1.620166093
0 days 00:00:12.071972294,-6.608976126,4.938187599000001,5.89591479325,-1.3918553885,0.1970802573125,2.00333100525
0 days 00:00:12.091972294,-5.8245289326666665,5.079962492000001,4.839483817333334,-1.081077963,-0.462653705875,2.3692389725
0 days 00:00:12.111972294,-4.017549157,5.34676218,3.594019651,-1.3304125768333332,-1.625943879,2.029191017
0 days 00:00:12.131972294,-5.1583274005,5.699703455,4.708476901,-1.78158712425,-2.33938306575,1.115897253275
0 days 00:00:12.151972294,-3.8751761910000004,6.13220620175,5.95932471725,-2.1694862845,-2.47117716075,0.5283980295249999
0 days 00:00:12.171972294,-2.7020949720000003,6.022734761500001,5.96829771975,-2.48438704025,-3.604178548,0.43569930645
0 days 00:00:12.191972294,-1.9712870916666667,5.987241267833333,6.424728711666667,-2.5789183374999998,-5.7310571669999995,1.2818997502
0 days 00:00:12.211972294,-2.421536565,6.269195318,7.1342008115,-2.2492550615,-6.832853634999999,2.539364834666667
0 days 00:00:12.231972294,-0.9577272981999999,8.420941352500002,9.881759405,-1.48073621125,-6.05389904975,3.1042621730000004
0 days 00:00:12.251972294,0.45284166929999997,8.288139820000001,10.891530755,-0.6539307330099999,-3.85020434875,2.93031835575
0 days 00:00:12.271972294,0.27876383255,7.041478872499999,10.575079922499999,0.130419628695,-2.06342485575,2.31685736775
0 days 00:00:12.291972294,-0.5706881842666667,5.8823556901666665,11.212766963333332,0.6626355648,-1.4058288934999998,1.08306327455
0 days 00:00:12.311972294,-2.177468538,5.044070243499999,12.817154405000002,0.19257512438500002,0.4605666199,-0.036244638428499995
0 days 00:00:12.331972294,-0.896112054575,4.932205796,9.63051295175,0.0551305469125,2.423987865,0.043676830121750006
0 days 00:00:12.351972294,-1.115055382025,4.5583273175,7.22752094225,0.063377219255,2.40596723525,0.2950476892
0 days 00:00:12.371972294,-1.019940644425,5.041677236749999,7.158129096250001,0.127518019645,1.660406828,0.60139639675
0 days 00:00:12.391972294,-1.1856436136500001,5.184449116166667,9.717252654166666,0.4326449633,1.0067815185000002,0.6875283122
0 days 00:00:12.411972294,-1.54217422,4.878965378,9.903892995,0.025401790946666652,1.1850522165000001,0.5979347974
0 days 00:00:12.431972294,-1.01395860315,4.8203413484999995,9.68794059775,-0.772743955275,1.7373757959999998,0.442266091725
0 days 00:00:12.451972294,-1.3668999078000001,4.849055171,9.37328434,-0.975703790925,1.96202132075,0.3703367636
0 days 00:00:12.471972294,-0.9511469901249999,5.24446904625,8.55374264725,-0.8130610436499999,1.5200606586,0.32024585455
0 days 00:00:12.491972294,-1.5740785000833333,4.6185464063333335,9.215158939333334,-0.49709121885,0.5700131878,0.22143848985
0 days 00:00:12.511972294,-1.0636096597,4.146761656,10.46620655,-0.11346813417666667,0.19178608308333334,-0.05793034284
0 days 00:00:12.531972294,-1.25024980335,3.82492703175,11.0051898975,0.14248420858,0.362471886,-0.2797760665
0 days 00:00:12.551972294,-1.55772754525,3.890729725,10.678569320000001,0.295047693,0.6813433170500001,-0.26786420489999996
0 days 00:00:12.571972294,-1.30109727375,4.0989052059999995,9.344570637499999,0.25213444306,0.8132901043,-0.231212321625
0 days 00:00:12.591972294,-1.6067804098333334,4.020739635,8.871788819999999,-0.13423754133,0.6631700992499999,-0.14385865441
0 days 00:00:12.611972294,-1.954936147,4.060619831,8.8522472385,-0.4395681073333333,0.5927169919,0.17318016106333334
0 days 00:00:12.631972294,-2.242074907,5.00937402225,9.098109960750001,-0.540462613125,0.5020544827,0.447611160575
0 days 00:00:12.651972294,-2.2749761942499998,5.95095002675,9.3978106975,-0.8565851449749999,0.7547997981250001,0.2029598132
0 days 00:00:12.671972294,-5.4526446465,4.21136796475,11.096715212500001,-1.5519019365,0.68592478335,-0.6123919635749999
0 days 00:00:12.691972294,-3.0177481672,2.961516857,8.8267237345,-1.5825979115,0.45547603817000004,-0.6612611412999999
0 days 00:00:12.711972294,-1.3639089166,4.149154544,8.252845287500001,-0.9548325538999999,-1.0357466963933335,-0.39696029076666667
0 days 00:00:12.731972294,-1.866401702,3.40319204375,9.1046903135,-0.39736753700000005,-1.33160886175,-0.2794706337
0 days 00:00:12.751972294,-2.14995113,3.7435709834999997,10.9298157695,-0.46273007985000003,-0.893160629675,-0.511751964725
0 days 00:00:12.771972294,-0.007178455574999909,3.552145183,11.817552804999998,-0.9967786073,0.289320830225,-0.79030631485
0 days 00:00:12.791972294,0.40358942714999996,3.4899318615,10.286345483666667,-1.5590795875,1.7602832314999999,-0.8350521623999999
0 days 00:00:12.811972294,-3.3906296489999996,2.7098716495,8.3365941045,-1.4183770816666668,0.8376737658166666,-0.5164861629333334
0 days 00:00:12.831972294,-4.075575113,2.183450639,7.638488054250001,-0.992349848225,-0.354836065375,-0.1779143568225
0 days 00:00:12.851972294,-2.80259352925,1.8664016425,7.81196784975,-0.599563769975,-1.11811158075,0.12553271465750002
0 days 00:00:12.871972294,-1.183250814675,1.9597217740000001,8.422735691,-0.07666353507499998,-1.5376229879999999,0.228616148275
0 days 00:00:12.891972294,0.48773699029999995,1.3507484198333335,9.348758379333335,0.23900084195000001,-1.5783982275000001,0.11056652294500001
0 days 00:00:12.911972294,-1.00498554115,1.6402800080000002,8.6608219145,0.10980294397000001,-1.1149554848333334,-0.0313577246085
0 days 00:00:12.931972294,-1.3304094075,2.3168504835,8.639884233499998,0.223881941325,-1.37742376325,0.00030543247675000017
0 days 00:00:12.951972294,-2.51665124325,2.06201490775,8.854042052999999,0.28512113545,-1.695531607,-0.00045814784249999935
0 days 00:00:12.971972294,-1.535593897,1.80717930175,10.96152091,0.4783071205,-1.2225695326500001,-0.033597561525
0 days 00:00:12.991972294,-0.13559327517666667,1.9816559553333333,11.99043449,0.9219476877999999,0.4295142742,-0.35918848215
0 days 00:00:13.011972294,-0.8267202151499999,3.6430724855000007,9.476774216,0.7761545976333334,0.660726597,-0.09112066029999999
0 days 00:00:13.031972294,-1.5984054799999998,2.4490540025,10.280164003,0.9135482610750001,-0.285502925525,0.3153589368
0 days 00:00:13.051972294,-0.8279166221,3.3577284215,9.416355132749999,0.4708240441925,-0.8236747980250001,0.453261658525
0 days 00:00:13.071972294,-0.8255238086000001,3.22133743725,9.107083081999999,-0.21945316717250002,-1.08298689125,0.47006045280000003
0 days 00:00:13.091972294,-0.4370889366,2.8845476708333333,9.507482051833334,-0.91889336715,-1.164231956,0.8277217746000001
0 days 00:00:13.111972294,0.59581282735,2.2504497765,10.563115595,-1.0132719872666667,-1.2951605716666668,0.8897245526166667
0 days 00:00:13.131972294,0.5850451290750001,1.94476661075,10.453046085,-0.87445293365,-1.37238410125,0.82039140165
0 days 00:00:13.151972294,0.585045143975,1.64626198975,9.930214406000001,-0.763580977925,-1.41453376375,0.882088750575
0 days 00:00:13.171972294,0.85722869635,1.34835553125,9.550353289,-0.773965656775,-1.2442552144999999,0.9340122342
0 days 00:00:13.191972294,1.1002996364833333,1.2043873864999999,9.2418788275,-0.6412552893,-0.9684497414000001,0.97188586
0 days 00:00:13.211972294,1.3818550704999997,0.94157573595,9.2542414665,-0.02641990035333334,-0.8261182705333333,1.1407900055000002
0 days 00:00:13.231972294,1.7282161710000001,1.000199898975,9.015557289,0.5201513692999999,-0.8001565039,1.1107048985499999
0 days 00:00:13.251972294,2.08833602075,1.5876378115,9.071788788,0.7619011104,-0.623158417675,0.8776599764499999
0 days 00:00:13.271972294,1.6402799785000002,2.07996100175,9.512666225250001,0.9711222947,-0.2807687241825,0.687070146225
0 days 00:00:13.291972294,1.8576279683333334,2.8574290275000003,9.662217776,1.161406696,-0.091553360215,0.76480269435
0 days 00:00:13.311972294,2.0422741175,3.0257241725,9.8871431365,1.0259982746833334,-0.18806999301666663,0.9945896964
0 days 00:00:13.331972294,2.0165512565,3.20817703025,10.208379505,0.78068517145,-0.47716175019999996,0.979216262375
0 days 00:00:13.351972294,2.0470597152500005,3.357728362,10.5044915675,0.543211497325,-0.6511055082,0.7283035293
0 days 00:00:13.371972294,1.934597105,3.2207391855000003,11.25643563,0.35643960532499996,-0.39622218345999993,0.38759370152500006
0 days 00:00:13.391972294,1.9218354028333333,3.3244282006666666,11.625927288333335,0.3443750292,0.14698934182999998,0.089186254905
0 days 00:00:13.411972294,1.7682958839999998,3.3188450335,11.279766085,0.49709120393333334,0.7281253685500001,-0.01822413271333333
0 days 00:00:13.431972294,1.6055839955,3.36670136475,10.21735239075,0.46807515625,0.75541065635,0.026725334344999997
0 days 00:00:13.451972294,1.58524504325,3.4743785259999997,9.52283573175,0.21868959171975,0.49808385967499996,0.0894916895875
0 days 00:00:13.471972294,1.41834566,3.321836114,9.45404195775,-0.042760533015749995,0.239993494,0.13530654462499997
0 days 00:00:13.491972294,1.4795620045,2.9734808999999998,9.797412554333334,-0.1989891976,0.27924156935,0.07483093718
0 days 00:00:13.511972294,1.512263894,2.8630121945,9.808180332,-0.10674862194000001,0.5825359076500001,-0.07981966342666667
0 days 00:00:13.531972294,1.47816616275,2.99641215825,9.748359203,0.11438442952,0.524351045475,-0.119576780125
0 days 00:00:13.551972294,1.5206387937499999,2.9635109305,9.895517587499999,0.22204935174999998,0.3861429021,-0.1006399728525
0 days 00:00:13.571972294,1.49431777025,3.2189446095000003,9.6729855535,0.13133592626,0.2196822445875,-0.06612611299775
0 days 00:00:13.591972294,1.2885350188333333,3.400998513,9.346365451666665,-0.19990549793,-0.07872520012499999,0.0635299362695
0 days 00:00:13.611972294,1.4225330950000001,3.1597223285000005,9.615557670500001,-0.5078831761833333,-0.17829615560833334,0.14385865255
0 days 00:00:13.631972294,1.41834566,2.77746886,10.133005617000002,-0.48441576955,0.011835503387500002,0.0991128138075
0 days 00:00:13.651972294,1.45363980525,2.62373006375,10.339985135,-0.31856598707499995,0.24610213935,-0.0190895251025
0 days 00:00:13.671972294,1.4309079945,2.807977319,10.19282651,-0.186466470375,0.361402861775,-0.131794078275
0 days 00:00:13.691972294,1.3682957291666666,2.9874389965,9.495517571666667,-0.250912711,0.3308596313,-0.17623449115
0 days 00:00:13.711972294,1.2658031585,2.811566591,9.407382011000001,-0.36015569173333334,0.18323397944666667,-0.08073596344783333
0 days 00:00:13.731972294,1.162911773,2.578266382,9.54616594325,-0.2950476781,0.021762057207499998,0.007024944759750001
0 days 00:00:13.751972294,1.1814561485000001,2.46580380225,9.5575315955,-0.253356158775,-0.06039925572,0.059101168065
0 days 00:00:13.771972294,1.3058829900000002,2.34436798125,9.644271612,-0.2351829447,-0.03810269059975,0.0655152504325
0 days 00:00:13.791972294,1.1980065505,2.3680968283333335,9.736395040833335,-0.2060141489,0.010461059400500001,-0.031459535475
0 days 00:00:13.811972294,1.186839998,2.4681965110000004,9.911071302000002,-0.13993894311000002,0.04914916182166667,-0.14905100809000002
0 days 00:00:13.831972294,1.0953145925,2.48255348175,9.88415217475,-0.0881172437175,0.103465221805,-0.168293245125
0 days 00:00:13.851972294,1.07318100375,2.575873494,9.601200580250001,-0.09208786486750001,0.0472656600175,-0.13744457440000002
0 days 00:00:13.871972294,1.232303649,2.504687071,9.64666414225,-0.11362084744999999,0.00022907415499999993,-0.114537145975
0 days 00:00:13.891972294,1.4472588896666665,2.4263222218333333,9.6773724555,-0.08292489313,0.052305296995,-0.11850776895
0 days 00:00:13.911972294,1.411765337,2.4789642095,9.6813602445,0.03792452129333334,0.003232492754,-0.033699373395
0 days 00:00:13.931972294,1.596610874,2.5974089502499997,9.741180658000001,0.07055488135499999,-0.07246383466,0.049480047075000005
0 days 00:00:13.951972294,1.62293195725,2.62193536775,9.82433152175,0.020463969559999996,-0.0329103408145,0.0881172418575
0 days 00:00:13.971972294,1.49671053875,2.6279174687499998,9.83749222725,-0.03375027888,0.0009926551715000002,0.09086613543
0 days 00:00:13.991972294,1.3822538458333333,2.6237299441666666,9.977671306833331,-0.042607819665,0.043753190894999995,0.057115854694999996
0 days 00:00:14.011972294,1.2107682229999999,2.6919254065,9.827322483,-0.05533416693166667,0.065235267085,-0.009061160805000001
0 days 00:00:14.031972294,0.9152546376499999,2.6991039512499997,9.73759150475,-0.08597921580250001,0.0217620576725,-0.037568183152500004
0 days 00:00:14.051972294,0.826720237725,2.69312196975,9.6909315585,-0.09392045997000001,-0.030466881115,-0.019089524518
0 days 00:00:14.071972294,0.9026923477500001,2.5818556545,9.741180896500001,-0.0757472300925,-0.06162098516,0.0129808763735
0 days 00:00:14.091972294,1.0133603516166667,2.4498515921666666,9.769097009833333,-0.03283398226,-0.11995857207499999,0.030237806029999998
0 days 00:00:14.111972294,1.174875915,2.3688944574999997,9.75912714,-0.06948586739666666,-0.10967568309499999,-0.020973023958333333
0 days 00:00:14.131972294,1.2466606494999999,2.3515465255,9.91466069225,-0.08582650124249999,-0.046960231384999995,-0.056352275425
0 days 00:00:14.151972294,1.288534969,2.3240290879999996,9.98465108875,-0.029779657254000003,-0.041004297787500005,-0.0452039921675
0 days 00:00:14.171972294,1.3124631942499998,2.4011975530000003,9.8632147315,0.0016798782154999999,-0.081474088135,-0.0340557104195
0 days 00:00:14.191972294,1.3571292161666666,2.437488635333333,9.744371096,-0.04688386991500001,-0.07780890167,0.010384700961
0 days 00:00:14.211972294,1.3196417089999999,2.352144718,9.775876999,-0.06632973315666667,-0.046349364645,0.06872228626166667
0 days 00:00:14.231972294,1.249053478,2.289931297,9.8231348995,-0.019853105189999998,-0.038560838437499995,0.0702494513275
0 days 00:00:14.251972294,1.17188489425,2.3288146254999997,9.78425145175,-0.012828160194999999,-0.033979352095,0.03481929144
0 days 00:00:14.271972294,1.10129663325,2.3521446585,9.774081945750002,-0.036193737765,-0.0205403282275,0.012522727494849999
0 days 00:00:14.291972294,1.2147563096666667,2.3286152681666668,9.958130042333332,-0.031917685645,-0.036880960685,-0.0027488914493
0 days 00:00:14.311972294,1.268195987,2.367697954,10.04028368,-0.04454222446,-0.004810559814733333,-0.013235403144
0 days 00:00:14.331972294,1.26400858175,2.38803702625,9.99541807125,-0.08216131106,0.002214384965,-0.0025961755320000005
0 days 00:00:14.351972294,1.3668999075000001,2.39042991375,9.958927393,-0.09376774169249999,-0.028787003365,0.012675444125000001
0 days 00:00:14.371972294,1.457827151,2.344367921,9.972686290750001,-0.09422589093,-0.0167224239525,0.0186313758575
0 days 00:00:14.391972294,1.4524433811666668,2.370489677,9.810572941833334,-0.08964440599000001,0.0287870029,0.032681264915
0 days 00:00:14.411972294,1.3531412485,2.329412937,9.7292170525,-0.06144281663166667,-0.0102065325075,0.055792317414999994
0 days 00:00:14.431972294,1.2436695995,2.2881366012499997,9.68375349075,-0.02840521337725,0.0003817903339999999,0.0569631401425
0 days 00:00:14.451972294,1.17906335025,2.2815563675,9.569496154749999,-0.0009162974317500003,0.01030834298575,0.03115410485425
0 days 00:00:14.471972294,1.1443673967499999,2.2839491365,9.5790672305,0.02214384824,0.011682789075,-0.00885753927225
0 days 00:00:14.491972294,1.1740783055,2.2883359986666667,9.749954700666668,0.08872810939999999,0.022983787115,-0.0131335925535
0 days 00:00:14.511972294,1.3112667795,2.3234307765,9.8751792905,0.16081015146666666,0.023900083265,0.016391537578833333
0 days 00:00:14.531972294,1.3573286235,2.39760828025,9.87996482825,0.15103631839999998,-0.02680169279,0.017715078252999998
0 days 00:00:14.551972294,1.394417405,2.419143677,9.8291170595,0.079412418875,-0.016111559004999998,-0.00320704007775
0 days 00:00:14.571972294,1.2897314130000002,2.4568306805000004,9.8141617775,0.01359174144325,0.0016035202424999999,0.00167987809975
0 days 00:00:14.591972294,1.2949158745,2.489333192166667,9.895517667166667,0.029168793466500004,-0.06772963143,0.040927940979999994
0 days 00:00:14.611972294,1.4189438225000002,2.500499725,9.8452687265,0.046985682413333334,-0.05948295990916667,0.05701404623333334
0 days 00:00:14.631972294,1.5224334005000002,2.4801606537499996,9.725627660499999,0.0358883054,0.00908661360125,0.031612252812500005
0 days 00:00:14.651972294,1.418943793,2.4885355232500004,9.684351444,0.06536253076000001,0.0150425448075,0.02458730759
0 days 00:00:14.671972294,1.3465609555,2.496910512,9.5503532885,0.088117245585,-0.0235946527675,0.025045455435
0 days 00:00:14.691972294,1.263809204,2.4562324281666665,9.602396964999999,0.10338886453,-0.028023420834999997,0.026267184875000002
0 days 00:00:14.711972294,1.259821117,2.450250387,9.432507037999999,0.12639810268333332,-0.06070468699333333,0.03532834630166667
0 days 00:00:14.731972294,1.4333007935,2.35932308425,9.46122097975,0.18325944242499997,-0.015195260754999995,0.009010255802499999
0 days 00:00:14.751972294,1.5152549149999999,2.2965114709999996,9.41037321125,0.30207264425,0.09063705988500001,-0.045967575162499996
0 days 00:00:14.771972294,1.52063873425,2.2863420839999997,9.233304024,0.438600912725,0.180434178575,-0.12202024086999999
0 days 00:00:14.791972294,1.4687942666666667,2.0845474006666667,9.28813982,0.6275108456499999,0.425849095,-0.383623071
0 days 00:00:14.811972294,1.02771729225,1.8891334535000002,9.5880403515,1.0138828651333334,0.9840777320333333,-0.8367829223666666
0 days 00:00:14.831972294,0.1351944766975,2.38085859975,9.41336417225,1.359326869,1.1943170425,-0.931721508525
0 days 00:00:14.851972294,-0.2811566628175,2.934198737,9.159126520000001,1.4805834892499998,1.0464877484250001,-0.7580832093750001
0 days 00:00:14.871972294,-0.214755836875,3.0598219635,8.945567608000001,1.401171118,0.87956890465,-0.5850557386499999
0 days 00:00:14.891972294,-0.2400798722833333,2.6891339225,9.515458107333334,1.2337940930000002,1.28930646175,-0.5632173419000001
0 days 00:00:14.911972294,-0.53718869385,2.032702804,9.6658067705,1.236848493,2.554712851666667,-0.9055052201666668
0 days 00:00:14.931972294,-0.416949354125,2.2899311782500003,11.461620569250002,1.719278961,3.82027184925,-1.4556908015
0 days 00:00:14.951972294,-0.937986448625,1.964507371,12.2004041675,2.34770613875,4.9543423650000005,-1.862832159
0 days 00:00:14.971972294,-1.6181463005,3.23988184325,10.5882399075,2.6904011965,5.11744344275,-1.83121988175
0 days 00:00:14.991972294,-3.1820553344999998,4.46700112,8.796813647,2.522413373,4.025675296999999,-1.4938697815
0 days 00:00:15.011972294,-5.2809596065,5.6446685795,8.4035930635,1.7879502773333336,2.204687377,-0.64782210013
0 days 00:00:15.031972294,-4.32263410075,6.114858389,9.013164997,0.7072287034125,1.3853649197500002,0.02993237694
0 days 00:00:15.051972294,-3.0161529185,6.82492840325,11.17866921225,0.11820233426249999,1.6756784320000002,0.09773836660000002
0 days 00:00:15.071972294,-3.429513097,7.0390859845,10.128219842250001,0.276569027425,2.7448446155,-0.46242465082499995
0 days 00:00:15.091972294,-5.722036481166666,6.330610990666667,6.7282184759999994,0.74052083495,3.5916558505,-1.1319324375
0 days 00:00:15.111972294,-7.8867435455,6.692724942999999,3.8943186995,0.9224567214333333,3.6547785998333335,-1.9785910053333333
0 days 00:00:15.131972294,-6.32602500875,7.3627152442499995,3.95892506825,0.5864301752,2.727129519,-2.5196645259999997
0 days 00:00:15.151972294,-8.4281196595,6.81894648075,3.8261234165,-0.150272732575,1.682245284,-2.15253481275
0 days 00:00:15.171972294,-8.44247651125,6.661019921499999,4.963312208750001,-0.97829993055,1.14392068975,-1.33580851525
0 days 00:00:15.191972294,-6.700700998333333,7.433702230833333,5.937789202,-0.7841976431500001,0.9881501497999999,-1.1001674535000001
0 days 00:00:15.211972294,-5.139783144,7.783851862,5.673382521000001,0.40301803254999996,0.6731475144666667,-1.1876229443333333
0 days 00:00:15.231972294,-6.34935498225,5.64466869825,1.7868403197,0.8104648293000001,0.037797257325,-1.11986780175
0 days 00:00:15.251972294,-6.92423057525,4.307679176500001,1.9603199361499999,1.3292417527500002,-0.3102429490875,-1.5502220389999999
0 days 00:00:15.271972294,-7.72941541675,4.01276367925,0.49292146222500005,1.8845178185,-0.12438734061249998,-2.674518645
0 days 00:00:15.291972294,-7.796214898166667,3.8081771926666668,0.89810610935,1.597258687,-1.20241093615,-3.4544403554999996
0 days 00:00:15.311972294,-7.9525461195,3.5916267630000003,2.5064817665,1.1551962493333334,-1.4773001273333335,-3.2522441546666667
0 days 00:00:15.331972294,-10.3220388875,2.1846470835,2.795415044,1.124449372,-1.128649056,-2.61236312975
0 days 00:00:15.351972294,-10.814362289999998,2.19242382025,4.919045150500001,1.5682425795000001,-1.070922285675,-1.76936978125
0 days 00:00:15.371972294,-7.715058566,3.46719998075,5.663811207,2.24859321075,-0.516715265775,-1.5809180137499999
0 days 00:00:15.391972294,-7.475975433666666,2.1232313115,5.093920667833333,2.747822523,-0.58788098395,-1.6988149879999999
0 days 00:00:15.411972294,-7.661818266,0.8889336064000001,3.5940195320000003,2.698444247333333,-0.6439787447233334,-1.4365503688333334
0 days 00:00:15.431972294,-8.510672331,0.421136785275,4.95792841925,2.10168030875,0.13019055127,-0.660955689875
0 days 00:00:15.451972294,-7.92682337725,0.0705882701925,5.27856671825,1.723402232,0.6761509328749999,0.264046303925
0 days 00:00:15.471972294,-6.26381146875,1.4111671432225,3.62153714875,1.7143920365,0.40752315520000004,0.64079716055
0 days 00:00:15.491972294,-4.519244353166666,0.5328018466333334,2.5491536853333336,1.4210242035,-0.9944114685500001,0.27030767128
0 days 00:00:15.511972294,-6.007181406,0.19262224399999991,6.313462496,-0.07192931575,-0.8934151828500001,0.41080656526
0 days 00:00:15.531972294,-9.57607650525,-0.09930211312499998,10.04566741325,-0.29474224149999995,-0.33467753235,1.06656987955
0 days 00:00:15.551972294,-7.743174074999999,1.938186317375,6.4809600125,0.768773332175,0.40049821135,1.5027273294999999
0 days 00:00:15.571972294,-7.1581288575,4.66480767725,3.5796626207499997,1.51448655125,0.6685151234,1.043204292725
0 days 00:00:15.591972294,-5.997609853666667,6.556732813666667,2.5487548708333336,2.602742076,0.25663956256,0.06230820715000002
0 days 00:00:15.611972294,-5.974878072999999,6.689135789999999,-0.11126625550000006,3.6907941498333336,-0.6950877681633334,-1.1745911689333335
0 days 00:00:15.631972294,-8.22532761075,5.93778955925,1.06420785175,4.0219336747500005,-0.8339067622749999,-1.4291181267500002
0 days 00:00:15.651972294,-9.708877564249999,4.913063288,3.1692936715,4.516581297,-0.20975568892500002,-1.0496184377
0 days 00:00:15.671972294,-9.908080578,3.6287156345,2.2211376425,5.2293080092499995,0.47135853019999996,-0.48441576817250004
0 days 00:00:15.691972294,-8.863015095,3.5306098460000004,-1.3690933385,5.8372712135,0.6237692982,0.045203994005000005
0 days 00:00:15.711972294,-7.808976650000001,4.8107700345,-3.099901676,5.770585139666667,-0.31675883628333334,-0.25187990811666666
0 days 00:00:15.731972294,-8.321638703249999,5.1409794095,-1.4291132986,5.7031861545,-1.078252717825,-0.5769618004250001
0 days 00:00:15.751972294,-9.49172949775,3.6430723670000003,-0.37926238405,5.893776059,-1.35833421325,-0.4222602956
0 days 00:00:15.771972294,-9.669994831250001,2.24506583825,-0.163908354975,5.9415762425,-1.31618449075,-0.10629047449750001
0 days 00:00:15.791972294,-9.367502053833332,2.268794676,0.22013968476666665,5.651262760000001,-1.3380229474999998,0.136222846805
0 days 00:00:15.811972294,-8.635696888,4.6504507065,1.22392877925,4.8836093745,-1.5153773623333333,0.44572765630000005
0 days 00:00:15.831972294,-9.711270335999998,4.58046066775,1.670190185,3.856847525,-1.3268746735,0.776867270475
0 days 00:00:15.851972294,-10.878967765,3.951746583,1.47517511225,2.804938287,-1.079474434025,0.931568816325
0 days 00:00:15.871972294,-10.5003042225,4.556532383,0.683150857625,1.70583987275,-0.91728982325,0.654694344875
0 days 00:00:15.891972294,-9.691729704666667,6.416353861666667,0.28394829731666665,0.91064667705,-1.21523913735,0.045203995
0 days 00:00:15.911972294,-9.870393754,7.4691958425,0.7118647546,0.5659152964999999,-1.7373248936666668,-0.18417572605000002
0 days 00:00:15.931972294,-10.561321020000001,6.978068948,2.294118792,0.458454027775,-1.599473059,-0.1652389206
0 days 00:00:15.951972294,-10.9106731425,5.9838511945,3.19681107975,0.15683953605,-1.14590597175,-0.273667424925
0 days 00:00:15.971972294,-10.32443142,4.999803066,3.92901486175,-0.05329795135,-0.977612689075,-0.576045490775
0 days 00:00:15.991972294,-9.872786362333333,4.356532533833334,2.574278414166667,-0.2866482958,-0.6685151457999999,-0.9694423973499999
0 days 00:00:16.011972294,-10.145567895,3.8476587529999997,1.2155539097999999,-0.5014690806333334,-0.31441719088333336,-0.7546216348666667
0 days 00:00:16.031972294,-10.6995067625,3.2392836805,-0.056231334775,-0.165391638875,-0.1210275814125,-0.6986766010750001
0 days 00:00:16.051972294,-9.85484004075,4.8628139497500005,-1.248455256475,0.11698061225,0.1256090737875,-0.977689072525
0 days 00:00:16.071972294,-10.13061308775,2.931207836,-0.7136593610749999,-0.370947625525,0.5750528425000001,-1.66384297625
0 days 00:00:16.091972294,-10.027123449166668,2.5403800805000003,2.1355942388166667,0.012370012699999997,0.80550158005,-1.5027273894999997
0 days 00:00:16.111972294,-7.1126654149999995,3.4612179995,0.29790639850000006,0.24419320003333334,0.77831807975,-1.252781848
0 days 00:00:16.131972294,-6.95593547825,2.5399813055,-1.0396814647500001,-0.23335034215,0.020234894000000003,-1.6725477572499998
0 days 00:00:16.151972294,-8.18225681775,1.9118653235,0.10049855700000002,-0.6629409939,-0.35605780782499996,-1.7550145385
0 days 00:00:16.171972294,-8.526225090249998,1.2855439782499998,1.44586309775,-0.759152203825,-0.202119883175,-1.7794491055
0 days 00:00:16.191972294,-8.395218372666667,0.5320042171666667,1.8747765220000001,-0.52885617315,-0.1373682171,-1.4080433250000002
0 days 00:00:16.211972294,-9.9266247755,1.7491533755,2.0207387804,-0.35557420796666667,0.4286998261833333,-0.41986772426666663
0 days 00:00:16.231972294,-10.92622614025,6.60777986025,-3.4977086487999998,0.088575393,0.016111563875000012,-0.925918296
0 days 00:00:16.251972294,-12.762119535,3.6945182085,-1.735992863875,-0.24052800610000002,-0.47532915325,-1.102916359925
0 days 00:00:16.271972294,-12.320045947499999,1.264008581675,2.818745151125,-0.355981461725,-0.27725624849999997,-0.661413840925
0 days 00:00:16.291972294,-11.197612443333334,1.6630117493166667,1.6530416409666664,-0.42684176565000004,0.21723878755,-0.21044291928000003
0 days 00:00:16.311972294,-12.12323618,2.888136864,1.6019947529000003,-0.36046112823333337,0.6915753037,0.04917461426
0 days 00:00:16.331972294,-12.449258087499999,3.6622151135000003,2.11286237825,-0.0928514450675,1.4693588615,0.27305655557499997
0 days 00:00:16.351972294,-10.850852252500001,3.038884759,1.0546365976,0.20952661707249998,1.3809361456999998,0.10399972275
0 days 00:00:16.371972294,-9.8309121135,2.1056839525,-1.06061866855,0.30100362,1.0455714166,-0.544585965575
0 days 00:00:16.391972294,-10.010373750333335,0.09970094261666668,-0.43150568000000006,-0.39416050165,1.185154021,-1.146593213
0 days 00:00:16.411972294,-8.729016781,0.7501498908500001,-1.7096717355,-0.044949466983333325,0.9132173857,-1.0391828321166665
0 days 00:00:16.431972294,-7.7898341415,-1.9082759917499998,-0.48454658679999996,0.18814635276999997,0.8091667741249999,-0.718682419525
0 days 00:00:16.451972294,-5.12123870875,-0.08973081412499989,-1.0037891416,0.4149298966,0.64652399715,-0.1869246252
0 days 00:00:16.471972294,-3.9409788255000002,0.28534410332500004,-1.9669002294999998,0.09483675285000001,0.38354670066749996,-0.17547090633
0 days 00:00:16.491972294,-6.672784686,-1.1122637403999998,-1.14297161755,-0.44119707495,-0.20456333831499998,0.27519457974
0 days 00:00:16.511972294,-9.611968517500001,1.3280166385,0.46181475385,0.10471240681666667,-0.002570721633333333,1.2810852329666667
0 days 00:00:16.531972294,-10.902297970500001,3.1950165029999997,-4.0055851045,0.593760572375,-0.6129264673299999,1.1470513492999999
0 days 00:00:16.551972294,-10.4225373275,0.862612575225,-4.15812760625,0.036499172450000006,-2.64848065375,1.8878776135000002
0 days 00:00:16.571972294,-9.64307546675,0.4043870196,-1.15094771985,-0.7008146121000001,-3.5644723175,2.8860306742499997
0 days 00:00:16.591972294,-9.299705028833335,0.6161518146833335,1.7036897145333334,-1.7872375845,-3.5505751370000005,4.2024441955
0 days 00:00:16.611972294,-7.2071819305,4.406382799,4.246063947500001,-1.2680025545,-3.130300124833333,5.102044502999999
0 days 00:00:16.631972294,-6.7250279184999995,8.8785682915,2.770290464,-0.382859501975,-2.4581961635000003,4.322479188499999
0 days 00:00:16.651972294,-9.78305542625,8.31027305125,0.273978188575,-0.19242240112499998,-2.42108613275,3.12594777325
0 days 00:00:16.671972294,-13.8927280925,6.7028944495000005,3.400799050775,-0.2881754487475,-1.8560362715749998,2.40069854275
0 days 00:00:16.691972294,-15.188441595,2.9806593654999998,5.089533646833334,0.010842850430000002,0.37759078295,1.9220860599999998
0 days 00:00:16.711972294,-10.61456132,2.7445676324999995,5.3898329735,-0.25926119894166666,1.8967096607,2.3251549600000003
0 days 00:00:16.731972294,-5.563910842,5.8211393954999995,3.409772217,-0.2167042896855,1.7871612161750001,2.12336593875
0 days 00:00:16.751972294,-3.58265370125,8.179265856499999,0.529412001275,0.0426078198935,0.488615468125,1.5402955715
0 days 00:00:16.771972294,-3.43429863475,8.362915039250002,-0.973280578575,0.15714497025750002,-0.7862593532,0.9393572810749999
0 days 00:00:16.791972294,-4.870989362166667,6.725426912,-0.7010970338666667,-0.033750278885000005,-1.7634902600000002,0.7718276381
0 days 00:00:16.811972294,-5.06799829,5.6781682965,2.1726830529,0.057370383283333326,-1.8401537139166668,1.0706423419166666
0 days 00:00:16.831972294,-2.2600209715,9.946963665750001,4.4991047385,0.02474001420000002,-0.393473252675,0.323452912275
0 days 00:00:16.851972294,-3.947559178,8.242077469249999,4.28375077225,-0.52076223495,0.9168316871,-0.353690713675
0 days 00:00:16.871972294,-5.53639352325,6.579663873,3.61734956475,-0.531452357775,1.2799907624999998,-0.41660976785000003
0 days 00:00:16.891972294,-6.286742687166666,7.140581369166667,3.160121122666667,-0.35506515205000005,1.2453241945,-0.16340632735000002
0 days 00:00:16.911972294,-7.6773712634999995,7.194021225,2.2636102435,-0.11866048162666666,0.9354121586,-0.04459312930333333
0 days 00:00:16.931972294,-8.4352982045,7.1192455290000005,2.61475688225,-0.01527161966425,0.760144874475,0.04825831763
0 days 00:00:16.951972294,-8.387441635,7.02113986025,3.08016091575,-0.00595593149775,0.838488250975,0.151341747475
0 days 00:00:16.971972294,-7.65523791275,6.589833736499999,2.20259326675,-0.044593127919999996,0.8213840722999999,0.24358233064999998
0 days 00:00:16.991972294,-6.693522453499999,6.451049963833333,1.2929218211666667,-0.2121227868,0.39255698769999997,0.347276628
0 days 00:00:17.011972294,-4.9292144775,7.276573658,1.8472590445000001,-0.3048724234,0.012293652943333335,0.15179989735166666
0 days 00:00:17.031972294,-5.79960393875,7.41535735125,2.46700006725,-0.22739442062499998,-0.16439898312499998,-0.055894127115
0 days 00:00:17.051972294,-6.679564357,7.2610204217500005,2.47238391625,-0.12171481178999999,-0.11186460777499999,-0.1354592610175
0 days 00:00:17.071972294,-6.651448726750001,7.233502865,2.7032913567500003,0.01359174400499999,0.142255134875,-0.310624733575
0 days 00:00:17.091972294,-7.068398237499999,6.31545647,2.7026932040000005,0.38377581535,0.22212570165,-0.26297729464999997
0 days 00:00:17.111972294,-6.512066840999999,5.717649698,1.538585007,0.42012226708166667,-0.11822778981666666,-0.08623374751
0 days 00:00:17.131972294,-5.58484804625,5.461617588999999,2.6853451725,0.0478001711875,-0.17478368569,-0.125838145625
0 days 00:00:17.151972294,-6.19382143,5.5076793435,3.147758245,-0.05910116713,0.0078648836325,-0.18493930992500002
0 days 00:00:17.171972294,-7.28674316375,6.45822834975,0.674177802975,-0.12217295729500001,-0.0579557968175,-0.293825954175
0 days 00:00:17.191972294,-7.0010004045,7.245466867833333,-0.8382855057999999,-0.5294670612000001,-0.19540037210000002,-0.37171120939999996
0 days 00:00:17.211972294,-8.6153581145,6.892525673000001,2.90608306245,-0.78470673165,-0.19540037461666668,-0.18224132559999998
0 days 00:00:17.231972294,-10.254441741,5.1487561465,3.62153708975,-0.6531671583750001,-0.358348563325,0.328339815125
0 days 00:00:17.251972294,-7.676175237500001,5.8271212575,4.977071285499999,-0.5769617781,-0.5474112182499999,0.591011688125
0 days 00:00:17.271972294,-4.7246284485,6.92662334425,4.68873596175,-0.39889470485,-0.35239260640000003,0.673783823875
0 days 00:00:17.291972294,-5.1557350956666665,7.422136863333333,2.2564317388333333,-0.47937613725,-0.3343721032,0.682641387
0 days 00:00:17.311972294,-6.6687965395,7.7156565189999995,1.501496196,-0.5682569444166666,-0.9298634777166667,0.76897693675
0 days 00:00:17.331972294,-6.907480597499999,7.188039184,4.55533593925,-0.42989608179249994,-1.3374120889999999,0.75365443525
0 days 00:00:17.351972294,-4.14377051575,7.5744799375,8.36112046275,0.1792888184975,-1.12223497,0.28221952541749995
0 days 00:00:17.371972294,-5.58664280175,6.513861298249999,3.90209549675,0.54107349365,-1.3548217115,0.1291979029775
0 days 00:00:17.391972294,-4.987439950333333,7.374280611833332,3.1964122059999998,0.52793990075,-1.7286709545,0.10354158095499999
0 days 00:00:17.411972294,-5.739185095,7.0863442425,3.5617165565,0.8823432823499999,-1.769598861333333,-0.156788627915
0 days 00:00:17.431972294,-5.8857454065,7.0133632425000005,3.93439877025,1.14582958825,-1.9847759900000002,-0.20433427395
0 days 00:00:17.451972294,-5.7942200902500005,6.85244596,4.4709892275,1.2205078302499999,-1.785328686,-0.240986157225
0 days 00:00:17.471972294,-5.864808440500001,6.3314087390000005,4.04985231175,1.06687532365,-1.2492948471499998,-0.1901316605725
0 days 00:00:17.491972294,-5.958925883333333,5.945765336666667,3.592424353166667,0.6601921022,-0.51274462045,0.118507765255
0 days 00:00:17.511972294,-5.5429737569999995,6.40438962,3.2961131335,0.49403689305000004,-0.04237874846666665,0.32162030045
0 days 00:00:17.531972294,-4.870590568,6.843472838499999,3.0975089665,0.40683594342499996,0.6908116937,0.494189597675
0 days 00:00:17.551972294,-4.649254441249999,7.3423764702500005,2.9772696495,0.427605353275,0.37942338737500003,0.3935496286
0 days 00:00:17.571972294,-4.705485582250001,7.97348344325,3.5162528157499997,0.47815439847499996,0.095676694085,0.289549917025
0 days 00:00:17.591972294,-5.440481027000001,8.251648902666666,3.2494532263333333,0.5566505193500001,0.039477135053000004,0.41905325655
0 days 00:00:17.611972294,-5.314459324,8.791230202,2.658426046,0.5508472919,0.007101302966,0.5320632458
0 days 00:00:17.631972294,-5.314459324,8.791230202,2.658426046,0.5508472919,0.007101302966,0.5320632458
0 days 00:00:17.651972294,-5.314459324,8.791230202,2.658426046,0.5508472919,0.007101302966,0.5320632458
0 days 00:00:17.671972294,-5.314459324,8.791230202,2.658426046,0.5508472919,0.007101302966,0.5320632458
0 days 00:00:17.691972294,-5.070391376833334,8.762117545,2.509672224166667,0.5508472919,0.007101302966,0.5320632458
0 days 00:00:17.711972294,-3.850051641,8.61655426,1.7659031149999997,0.12476912699000002,-0.11028654410566667,0.12838341854833332
0 days 00:00:17.731972294,-4.43509668075,8.140980720249999,2.324029058,0.0018325941674999999,-0.044211340135,0.048716466875
0 days 00:00:17.751972294,-4.43988227825,7.8586275575,2.5136601925,-0.1087339315625,0.12912154477,0.0218384163475
0 days 00:00:17.771972294,-5.10867619475,7.587640523499999,2.23848551525,-0.214871685975,0.40599600970000005,-0.044134980067499996
0 days 00:00:17.791972294,-6.082156260833333,7.2781689165,3.6059837341666667,-0.10277799608999999,0.41882416605,0.098654665075
0 days 00:00:17.811972294,-5.5477592945000005,7.3016982075,4.217350006,0.16834415465333333,0.2654971033333333,0.43768462543333336
0 days 00:00:17.831972294,-3.8303107617500003,8.19481956975,2.768495798,0.1788306702025,0.283670336,0.439822651475
0 days 00:00:17.851972294,-3.62273353325,8.934201479,2.36829614625,0.066431546585,0.18135048632,0.25534148887249997
0 days 00:00:17.871972294,-3.6819559337500003,9.071789026,2.38384956125,0.0952949039575,0.03474293463,0.0013744495925000072
0 days 00:00:17.891972294,-5.1972108685,8.391628742499998,2.2149561446666666,0.05910116619,-0.09216422215999999,-0.06566796077499999
0 days 00:00:17.911972294,-6.234499216500001,7.351947546000001,2.2683958410000002,-0.17180571640333334,0.2087884880833333,0.38515023764166667
0 days 00:00:17.931972294,-2.6877380017499997,9.2123669385,3.254238784,-0.1331685246,0.43653923274999995,0.3652971327695
0 days 00:00:17.951972294,-1.9812570812499999,9.14417171475,3.8644086714999997,0.031001385775,0.318336911525,-0.005192350711499999
0 days 00:00:17.971972294,-5.1032925245,6.57846784625,4.11266386525,0.167071512,0.393778718975,0.04444041569000001
0 days 00:00:17.991972294,-4.521637201333333,7.239086151333333,2.1208384831666667,0.037720900035000005,0.71631532905,0.32467463609999997
0 days 00:00:18.011972294,-4.376472712,6.9810600285,2.6033910515,0.18127412597833334,0.8341103891333334,0.43015061815000005
0 days 00:00:18.031972294,-4.560121655750001,6.3373908995,2.33898407225,0.333226732925,0.829325288525,0.6516399830499999
0 days 00:00:18.051972294,-5.113461852,6.50189733475,1.9034903645,0.301003620025,0.874834746125,0.953101784125
0 days 00:00:18.071972294,-4.333401918,7.396214962,2.09790724525,0.28741188345,0.67309663445,1.11895158925
0 days 00:00:18.091972294,-5.075974464,7.119843880333334,1.3818550703833334,0.37491826715,0.1442404464,1.2370011810000001
0 days 00:00:18.111972294,-5.419743061000001,7.5493555064999995,0.561116904,0.24052800239999997,-0.5473602935833334,1.6850705148333331
0 days 00:00:18.131972294,-7.71386194225,7.40698266,0.48634120825000005,0.316733390075,-0.443106032925,2.2631012795
0 days 00:00:18.151972294,-5.37487793,9.0658067465,1.941177353025,0.57803080975,-0.52725266665,2.58915042875
0 days 00:00:18.171972294,0.0819541212499999,11.825329779,4.13838684525,0.640797153125,-0.8452077656750001,1.8639010785
0 days 00:00:18.191972294,0.15712867920666665,9.412965456,4.9016972385,1.2765546737,-0.97791814795,1.2467749715
0 days 00:00:18.211972294,-1.9094725253,10.321440699,1.7012968364,2.049807588333333,-1.7929135956666666,1.3429862456666666
0 days 00:00:18.231972294,-2.40000110875,12.38883901,-0.26201408725,1.43629576295,-1.8277837337499998,1.61451563225
0 days 00:00:18.251972294,-0.24107687917500006,12.6358978725,-2.59920359065,0.4897608160975,-1.0811543167250002,1.384372264
0 days 00:00:18.271972294,-0.708275534475,12.327822207499999,-2.5058834555000002,-0.13958260415749998,-0.853301763525,1.033735900825
0 days 00:00:18.291972294,-0.5998008948,11.748759426500001,0.2293121815333333,-0.40637779235,-0.7824414372,0.7733547985500001
0 days 00:00:18.311972294,-3.60478735,8.3210406305,0.7896314859999999,-0.24368413788333332,-0.7683915297666667,1.1382447381333334
0 days 00:00:18.331972294,-3.3930225965,9.529416084000001,-1.9698912499999999,-0.59040079265,-1.36367926025,1.810450494
0 days 00:00:18.351972294,-0.975075252225,9.628718137500002,-1.046261697925,-0.98578302575,-1.9487350877499998,2.009592444
0 days 00:00:18.371972294,0.15672987697500002,7.9214394089999995,1.2364911440250002,-1.033277795025,-1.6892701685,2.02471128125
0 days 00:00:18.391972294,-3.820141231099999,6.789235512333334,0.9726824165333333,-0.7860302627000001,-1.9690462350000002,3.1569491625
0 days 00:00:18.411972294,-0.2943172455000001,7.2514491085,2.2875384094999998,-0.5676461060999999,-2.7018803355000003,4.4960667295
0 days 00:00:18.431972294,8.897711279,8.976674199000001,0.9050851315999999,-0.517097041,-2.7856197954999997,3.5563020107499996
0 days 00:00:18.451972294,10.262218240000001,9.6317090985,0.509671226175,-0.759610369775,-2.782565415,1.94636794925
0 days 00:00:18.471972294,6.271588207000001,8.20259583025,1.422533065325,-0.771064057925,-2.03242349625,1.013882786125
0 days 00:00:18.491972294,7.041279634166666,4.6432724,1.309671620566667,-0.57070043685,-1.2460877895,0.2229656577
0 days 00:00:18.511972294,3.2638100985,5.6303117275000005,2.9252257940000006,0.19440771141666666,-0.32052583748333335,0.3101156751333333
0 days 00:00:18.531972294,4.00438877975,10.92383384475,-1.66301164025,-0.019853107649999993,0.21861323345,0.376598123475
0 days 00:00:18.551972294,5.407181025,10.746764895000002,0.33379882549999995,-0.46334094554999994,0.3175733313,-0.324674624925
0 days 00:00:18.571972294,2.9862426517500005,8.2845503085,2.26361018425,-0.7098248898999999,0.9927316456249999,-0.880867004425
0 days 00:00:18.591972294,2.0039889415,7.966105222833334,3.8711882433333336,-0.09300416710000003,0.2254854736499999,-0.5332849623
0 days 00:00:18.611972294,5.0333024265,10.429117203499999,2.139183402,0.40749772388333333,-1.00367626545,0.44644034405
0 days 00:00:18.631972294,4.5684965255,11.0368943225,0.2865405380750001,0.118355051879,-1.5861867365000002,0.43325584382500004
0 days 00:00:18.651972294,4.72522646175,9.86560773875,0.571884609725,-0.045051276913,-1.3629156645,0.8083268105999999
0 days 00:00:18.671972294,4.25623333475,6.7256261112499995,-0.271585367625,-0.09086613355999999,-1.04328069075,1.1531600207250001
0 days 00:00:18.691972294,5.091527700333334,8.912067651666666,2.013161510216667,0.05940659996,-1.02464929225,0.4657844007
0 days 00:00:18.711972294,6.853044033,10.4063859,1.05284196125,-0.11611521275999999,-0.8176679710833333,0.07198023423
0 days 00:00:18.731972294,4.68395042425,9.899705410500001,-0.38943189385,-0.44669486584999996,-0.60849769415,0.194560430925
0 days 00:00:18.751972294,9.55992460425,8.236693858999999,-0.83090767265,-0.53572842475,-0.39973462372499996,0.247094795125
0 days 00:00:18.771972294,8.941977978,5.510072350750001,-1.604985803525,-0.78633569185,0.6877573952749999,-0.7411316856
0 days 00:00:18.791972294,6.122834364333333,7.585646549833334,-0.37846479816666667,-1.3675735594,2.080681801,-1.8680244685
0 days 00:00:18.811972294,3.4935210945,7.308876991000001,4.1276190875,-0.22963425518333333,1.4478259083333331,-1.7044145265
0 days 00:00:18.831972294,2.4023938774999998,6.369095564,4.30528622825,0.608421325775,1.364137410925,-1.3865103424999998
0 days 00:00:18.851972294,0.01615153250000001,6.957131862500001,3.01196551325,1.15285459175,0.985095798925,-0.989295512475
0 days 00:00:18.871972294,-1.36689992275,6.9367927315,3.6281173232499997,1.189811899925,1.4823397397,-0.506559610375
0 days 00:00:18.891972294,1.0257233184999999,4.781657258666667,-0.28554352100000013,0.99616774935,2.876944065,-0.2602283955
0 days 00:00:18.911972294,3.3020952939999995,1.578066528,4.953142762,2.063552181,2.8565818868333337,-0.7091121971666667
0 days 00:00:18.931972294,4.71565514775,5.547161131999999,0.7190431655,2.1981968875,3.846997142,-0.6126973629250001
0 days 00:00:18.951972294,4.2640099525,8.918648361999999,-4.12402990425,1.4811943765,2.66421037925,-0.38774643095
0 days 00:00:18.971972294,5.9784673452499995,10.6181507105,-2.8223344089999998,0.918893299775,1.87802737925,-0.39141160995
0 days 00:00:18.991972294,4.349354108033333,12.465808231833334,-3.290529887,-0.012370020149999994,1.783496082,-0.4883863926
0 days 00:00:19.011972294,-0.7022934554,9.9684991855,-4.66839695,-1.0602067160666666,1.4621811705,0.33332854515000004
0 days 00:00:19.031972294,-0.817148953575,13.4991090325,2.603390932,-1.473253115825,1.4276673197499998,1.43263059875
0 days 00:00:19.051972294,1.6480565664750002,14.5226387975,8.52502894375,-0.615904390825,1.6753729876999999,1.7253875435000001
0 days 00:00:19.071972294,1.8496519027500002,11.554940465000001,3.1860433666750003,0.38789914550000004,0.38446304210000004,1.59435704325
0 days 00:00:19.091972294,0.8506484429666666,11.493125598333334,1.9062820371500002,0.6378955543,-1.3358849284999998,1.3753620389999999
0 days 00:00:19.111972294,1.8364914060000002,13.021740915,2.602194667,1.1072433092333334,-1.0427715976166667,0.6228784484433333
0 days 00:00:19.131972294,1.80059906825,11.289935589999999,2.01176571825,1.310763091,-0.08086322245,-0.0366518863015
0 days 00:00:19.151972294,1.54636165475,9.633503914,1.5720845460000001,1.54166996475,0.850247427725,0.07941242331050001
0 days 00:00:19.171972294,1.4261223075,9.05025362975,1.007976531975,1.7162246107499999,1.62818372225,0.38973174245
0 days 00:00:19.191972294,-2.6245277726666667,3.1609187918333332,4.153940240383333,2.016617298,1.7395138145000002,0.8894191384
0 days 00:00:19.211972294,8.968298912,12.589836595,-3.2087751625000003,1.5639665024499998,0.6655117435183334,0.6984220544166666
0 days 00:00:19.231972294,5.624329686,8.996414899000001,-1.5978073030250002,0.564744487425,0.0515417140075,0.54794570805
0 days 00:00:19.251972294,2.0673987865,8.00638449225,-0.6855436861499999,0.096669346125,0.14561488855,0.844978690175
0 days 00:00:19.271972294,2.7649065252500002,9.06760156175,-1.991426661575,-0.4021017402,0.20196717235,0.785266671325
0 days 00:00:19.291972294,3.4679975506666665,8.340582053,-1.2087742389833334,-0.9198096394499999,0.2880991027,-0.09468404204999999
0 days 00:00:19.311972294,2.9599215985,8.836694240500002,1.4213366805499998,-0.7804306745833333,-0.037186393506666665,-0.5302306115333334
0 days 00:00:19.331972294,4.444069743249999,9.2153582575,1.59122705425,-0.25763221457499996,-0.5232820436,-0.16768237202499997
0 days 00:00:19.351972294,6.22791922125,9.4672026635,0.756131946975,-0.1747073233,-0.3041342971625,0.184786600965
0 days 00:00:19.371972294,5.9976100925,8.0632139445,0.632303372,-0.23396120592500003,0.0353537993475,-0.027947066354999998
0 days 00:00:19.391972294,4.428317149833333,7.102296273166666,-0.05942176035,-0.1879936382,-0.06406444683,-0.3390299529
0 days 00:00:19.411972294,3.7603207824999996,8.4574313165,-0.28833512214999996,-0.45300714918333335,0.3348302691833333,-0.5830704172166666
0 days 00:00:19.431972294,1.4488541483750002,7.259823798999999,0.701097071125,-0.529772497725,1.1578178700750001,-0.17165300255000004
0 days 00:00:19.451972294,-0.05383851379999999,3.70947337125,0.646062120775,0.08811724555,0.45822495222500004,1.1449133305
0 days 00:00:19.471972294,0.08913264049999998,7.6660056115,0.23030918095,-0.121409371525,-1.1854594647499999,0.33246315105515
