time,acc_x,acc_y,acc_z,rot_x,rot_y,rot_z
0 days 00:00:00.026096724,0.37664523725,0.9634850025,2.6386852275,0.813824594,0.07164298556000001,0.048258316705
0 days 00:00:00.046096724,0.0,0.0,0.0,0.40072730185,0.0588720925,0.033521205185
0 days 00:00:00.066096724,0.38943189375,1.068619609,2.1200408935,0.0,0.0,0.0
0 days 00:00:00.086096724,1.491476297,4.29003191,8.4502530095,0.19006803633333333,0.239955311,0.13986258458333334
0 days 00:00:00.106096724,1.2823286349999998,4.388586163499999,8.3994805815,0.153708854705,0.26549709587500003,0.17333288492499999
0 days 00:00:00.126096724,1.234696507,4.41625309,8.392526627,-0.083153968685,0.17346650924,0.183908481175
0 days 00:00:00.146096724,1.1417253811666666,4.3651564125,8.865607102833332,-0.12438733880000001,0.09941824526,0.1661552191
0 days 00:00:00.166096724,1.2004492282499999,4.3672751192499994,8.99873280525,-0.1243873388,0.09941824526,0.1661552191
0 days 00:00:00.186096724,1.4687444565000003,4.37288332,9.132656574,-0.14304417125,0.008004874615,0.08540653065166666
0 days 00:00:00.206096724,1.487812221,4.21450841425,9.243698597249999,-0.163635406625,0.0689513599525,0.06553433649000001
0 days 00:00:00.226096724,1.482054472,4.172185421,9.274580956,-0.147791096925,0.14439316095,0.08105411753
0 days 00:00:00.246096724,1.4808580676666665,4.219942172333333,9.253294786166666,-0.1085048541,0.18104505539999996,0.09514218569
0 days 00:00:00.266096724,1.474876046,4.458725929,9.146863937,-0.1085048541,0.1810450554,0.09514218569
0 days 00:00:00.286096724,1.294217944,4.3577787875,9.1815595625,-0.06968948861666667,0.13286309441666666,0.09052252148833334
0 days 00:00:00.306096724,1.069143087,4.19334697725,9.27682375925,0.1298469417,-0.11186461525000001,0.07506000996000001
0 days 00:00:00.326096724,1.054337502,4.172185421,9.297013283,0.14775291455,-0.10835214149,0.10279708914999999
0 days 00:00:00.346096724,1.054337502,4.172185421,9.297013283,0.152334407,-0.06345357746,0.1172860414
0 days 00:00:00.366096724,1.1488539877500001,4.2086759805,9.195916414500001,0.069695854565,0.031039567667500004,0.104801487175
0 days 00:00:00.386096724,1.432403445,4.318147659,8.892625809,0.03838267084,0.045611237490000005,0.10355430343333334
0 days 00:00:00.406096724,1.38529473525,4.2703660725,8.994246483,0.017619631017499998,-0.0461966488525,0.12062670287499999
0 days 00:00:00.426096724,1.369591832,4.254438877,9.028120041,0.005211440144999999,-0.06039925292500001,0.13580287617499998
0 days 00:00:00.446096724,1.4114662406666667,4.260271310666667,9.012018362833333,-0.052038044670000005,0.00820849463,0.1880699992
0 days 00:00:00.466096724,1.620838284,4.289433479,8.931509972,-0.08941533417,0.05482511222,0.2173151523
0 days 00:00:00.486096724,1.5382858510000001,4.227668762,8.818299293499999,-0.077707088245,0.061633713545,0.24276785055000003
0 days 00:00:00.506096724,1.3628620205,4.1605203155,8.705088615,-0.05841394223,0.032604910435,0.252688039075
0 days 00:00:00.526096724,1.331904888,4.158725739,8.705088615,0.004619664862499999,-0.0767971575175,0.269983142575
0 days 00:00:00.546096724,1.3877374131666667,4.180659930333333,8.788039842833333,0.04115701467,-0.131488651,0.2784016132
0 days 00:00:00.566096724,1.709970862,4.32181143775,9.22851872425,0.04115701467,-0.131488651,0.2784016132
0 days 00:00:00.586096724,1.839183331,4.41625309,9.305686951,0.03996073765166667,-0.11147010199166668,0.27028220391666663
0 days 00:00:00.606096724,1.8477077485,4.397185444749999,9.309276103750001,0.03397935256,-0.01137735695,0.2296851575
0 days 00:00:00.626096724,1.7307585475000002,4.3448425532499995,9.189111471250001,0.0040087988575000025,0.0440586227875,0.224034659525
0 days 00:00:00.646096724,1.6189439293333334,4.301846504333333,9.064211209833333,-0.10984112692499999,0.22533274440000003,0.21433718499999999
0 days 00:00:00.666096724,1.259521961,4.163511276,8.641978264,-0.1337793916,0.2402989268,0.2215912044
0 days 00:00:00.686096724,1.4150554535,4.3075294495,8.6962652205,-0.08726457878333334,0.12188024942499999,0.20784674581666665
0 days 00:00:00.706096724,1.5939189792500001,4.33355152625,8.80865311625,-0.07796161622,0.09819651395,0.2050978541
0 days 00:00:00.726096724,1.64476648,4.1937206985,8.936146020999999,-0.06580158975,0.029111525037500002,0.20769402755
0 days 00:00:00.746096724,1.659123421,4.1602211,8.972187996,-0.047952884805000005,-0.16447534414999998,0.2336939499
0 days 00:00:00.766096724,1.659123421,4.1602211,8.972187996,-0.105590519795,-0.016926045535,0.34964373215000005
0 days 00:00:00.786096724,1.6654045585000001,4.0446178915,9.222686291,-0.1098411232,0.066736976639,0.437111944
0 days 00:00:00.806096724,1.4235799315,3.6986308095,9.4911310675,-0.09413044710999999,0.10984112139499999,0.5383627862
0 days 00:00:00.826096724,1.13741332325,3.4430474634999997,9.447536707000001,-0.03590739612,0.03229947202,0.6802552044250001
0 days 00:00:00.846096724,0.9208379465333335,3.2121151683333333,9.452147801833334,0.02932151034,-0.07628174126,0.8059597015
0 days 00:00:00.866096724,0.1770688742,2.355434895,9.557830811,0.02932151034,-0.07628174126,0.8059597015
0 days 00:00:00.886096724,0.6053841336,2.778067112,9.375079155,0.5273671777233333,-0.5741365278766667,1.8006511527500002
0 days 00:00:00.906096724,1.3811820744999999,3.3352956175,8.9603729245,0.583299487825,-0.628408044575,2.07096517075
0 days 00:00:00.926096724,1.9187447127500001,3.4627135395,8.78614544875,0.4522690177,-0.4925097227,2.285092354
0 days 00:00:00.946096724,2.615155855333333,3.752942880333334,8.939285914000001,0.33589927105,-0.370336771,2.3211333755
0 days 00:00:00.966096724,2.8514969345,3.78193092375,9.0664794445,0.2195295244,-0.2481638193,2.357174397
0 days 00:00:00.986096724,3.315554857,3.679712534,9.391829014,0.26832235103333335,-0.23065236209999998,2.3581161503333337
0 days 00:00:01.006096724,3.676422477,3.551920891,9.620941639,0.5122864842,-0.1430950761,2.362824917
0 days 00:00:01.026096724,3.9011234645,3.450973749,9.743573665500001,0.6255637258,-0.1306677945075,2.35203933725
0 days 00:00:01.046096724,3.9457645420000005,3.428017616,9.765109062,0.9653954506,-0.09338594972999999,2.319682598
0 days 00:00:01.066096724,3.945764542,3.428017616,9.765109062,0.9653954506,-0.09338594973,2.319682598
0 days 00:00:01.086096724,3.437738419,2.537887573,8.7342512605,0.9653954506,-0.09338594972999999,2.319682598
0 days 00:00:01.106096724,2.929712296,1.64775753,7.703393459,0.9653954506,-0.09338594973,2.319682598
0 days 00:00:01.126096724,3.1073793174999995,1.95104777775,7.32944023625,0.7687924318,0.0833448656025,2.51235318175
0 days 00:00:01.146096724,3.677569031333333,2.1598215103333334,7.391478856166667,0.2138026729,0.4348593652500001,3.0915102960000005
0 days 00:00:01.166096724,4.31119340625,2.437613249,7.5071817635,0.323930129425,0.087296395095,3.0652812125000004
0 days 00:00:01.186096724,5.905486106999999,3.2063822750000006,7.742276669,0.34903284910000004,0.03100138716,3.056156397
0 days 00:00:01.206096724,6.294918179250001,2.4580270055,7.3129147295,0.10854303094999998,0.27152939002,2.824905932
0 days 00:00:01.226096724,6.5629144905,1.8640088442499998,7.53051185625,-0.6579204350250001,1.01785343895,2.08176991325
0 days 00:00:01.246096724,6.666204373333334,1.3653545973333332,8.773782889333333,-0.7929024696,1.09207356,1.933616042
0 days 00:00:01.266096724,6.087340832,1.50418818,10.56999493,-0.7484620660499999,1.068879783,1.6688061950000002
0 days 00:00:01.286096724,5.3012986185,0.86216393115,10.44227791,-0.7336485982,1.061148524,1.580536246
0 days 00:00:01.306096724,4.515256405,0.2201396823,10.31456089,-0.35628688334999997,0.736626598775,1.6645301577500002
0 days 00:00:01.326096724,3.9546629192499996,-0.67178493735,10.985299112500002,0.73267503085,-0.09069433434999999,1.9287864565000001
0 days 00:00:01.346096724,4.773531437333333,0.07577272751666664,10.951650303333333,0.5913171172,0.4988092631,1.991571844
0 days 00:00:01.366096724,4.97467804,0.2847459018,10.90020466,0.7539980560749999,1.1283436117249999,1.8673754335
0 days 00:00:01.386096724,4.44661212,0.5355436355,10.126873971,0.8369993071,1.1562270469833333,1.8521165848333334
0 days 00:00:01.406096724,5.45473849775,1.1585000607999998,8.471713781750001,0.9608902931,0.4977020919,2.026085854
0 days 00:00:01.426096724,6.0554116965,1.669068575,8.64930582025,0.88260415195,0.503047160775,1.8586516085000002
0 days 00:00:01.446096724,5.202843824666666,1.4322538773333333,8.487940311166666,0.6477457285,0.5190823674,1.356348872
0 days 00:00:01.466096724,5.026422977,1.35912323,8.424231529,0.7486529797,0.0806341543725,1.5275246795000001
0 days 00:00:01.486096724,3.980460405,0.48858445884999996,9.6526465395,0.7822887301,-0.06551524997,1.5845832819999999
0 days 00:00:01.506096724,2.934497833,-0.3819543123,10.88106155,0.7822887301,-0.06551524997,1.584583282
0 days 00:00:01.526096724,1.9288393255,-1.095090210075,11.02463126,0.6956031918250001,0.0725974589475,1.7130175825
0 days 00:00:01.546096724,3.2227333779999996,-0.8435198167500001,7.811518907500001,0.49613672495,-0.07456369700000003,1.9640448094999998
0 days 00:00:01.566096724,3.548556089,-0.7456633449,7.159325123,0.7263563871000001,-1.0838459731749999,1.6237740517500001
0 days 00:00:01.586096724,3.548556089,-0.7456633449,7.1593251229999995,0.7828995585,-1.233106971,1.555109024
0 days 00:00:01.606096724,3.548556089,-0.7456633449,7.159325123,0.7828995585,-1.233106971,1.555109024
0 days 00:00:01.626096724,4.479289233499999,-1.758500382225,8.74150478825,0.8848757893750001,-1.2930098772499998,1.74518340825
0 days 00:00:01.646096724,1.133250768,-0.94830553725,8.091928005,1.2296707635,-1.587370276,2.4126485585000004
0 days 00:00:01.666096724,0.4019941986,-0.7187440991,7.856534004,1.10835686375,-2.095743507,2.75803530175
0 days 00:00:01.686096724,2.7649066298000005,-0.67088764905,7.4205915925,1.05496347,-2.226984024,2.840750217
0 days 00:00:01.706096724,5.127819061,-0.623031199,6.984649181,1.0800662045,-2.99325656875,2.67541587325
0 days 00:00:01.726096724,7.6912047865,0.48200422527500003,7.60267055,1.1262437702499999,-5.33498752075,2.01946172125
0 days 00:00:01.746096724,8.686943213333334,0.6571787695,7.247161864833334,1.00200909365,-5.6419091224999995,1.2948424815
0 days 00:00:01.766096724,9.008079529,0.5048855543,6.332305908,1.0934479830750001,-5.968817115,0.818883329675
0 days 00:00:01.786096724,9.008079529,0.5048855543,6.3323059079999995,1.6069689195,-5.583113114,0.29175155855
0 days 00:00:01.806096724,11.48240804725,-1.507553070925,5.2447681425,2.033797979,-4.037128925,-0.2628245652
0 days 00:00:01.826096724,12.30718422,-2.178365946,4.882255554,2.033797979,-4.037128925,-0.2628245652
0 days 00:00:01.846096724,12.477074466666666,-2.1564317545000002,3.242872834,1.7747913000000002,-1.85145476445,0.18726824224999997
0 days 00:00:01.866096724,12.32871914,-1.204487085,2.233999014,1.296159625,0.966120794525,0.7534444183
0 days 00:00:01.886096724,12.328719139999999,-1.204487085,2.233999014,1.0137937373233334,0.96665529671,0.8275690375833333
0 days 00:00:01.906096724,9.68569755575,0.07036395382499999,0.1984547227500001,-0.03199404106,-0.08384118974,1.004719853
0 days 00:00:01.926096724,8.90653491,0.690927535275,0.6671488735000001,0.02191477548,-0.290408927955,0.9457141307000001
0 days 00:00:01.946096724,9.246215661833334,0.5848457316666666,1.9294624925000001,0.1836412251,-0.9101121426,0.7686969638
0 days 00:00:01.966096724,9.976275922500001,0.34456647092750003,3.88534575725,0.1836412251,-0.9101121426,0.7686969638
0 days 00:00:01.986096724,9.687342644,-0.48454658874500006,3.2542387245,0.34530404708333334,-0.4386518002,0.36256096759999995
0 days 00:00:02.006096724,9.380662599999999,-1.0560324194,1.9094724653333335,0.4402977625666667,0.009722947988888878,0.13859842964444444
0 days 00:00:02.026096724,9.84885788,-1.296909928,1.689332843,0.4261800051,0.0528398156333334,0.22347469626666666
0 days 00:00:02.046096724,9.635497887666666,-1.4432708322666665,1.9992033048333333,0.4831940531999999,0.4241692423999999,0.1146898642
0 days 00:00:02.066096724,9.756135701999998,-0.702293448125,2.244467676,0.317344263225,0.005879573524999987,0.41111197509999997
0 days 00:00:02.086096724,9.007780552,0.01076769829999999,3.911068678,0.2974911431333333,-0.20939935556333333,0.4850775450666666
0 days 00:00:02.106096724,8.781659364500001,0.280558444575,4.633701086,0.428368933525,0.08575014119000002,0.2828303855275
0 days 00:00:02.126096724,8.82951593425,0.93080797775,3.8685960172500002,0.513889990775,0.14943279327500003,0.03756818641
0 days 00:00:02.146096724,8.1140616735,0.20139590151,2.2009980778666667,0.62308207155,-0.40874490139999997,-0.002596175300000003
0 days 00:00:02.166096724,8.0907316205,-0.11724830790000002,0.82731842995,0.505948752175,-1.104367211325,0.1849393081225
0 days 00:00:02.186096724,9.071190356999999,0.18903298675,0.8650054036,0.17216205985343333,-1.2679261864833333,0.16355904192833334
0 days 00:00:02.206096724,9.872187853,-0.2656033039,1.8735801580000002,0.034513859740449994,-0.8122211098750001,-0.039553494189999996
0 days 00:00:02.226096724,9.5784688,-0.77587272225,2.28514569975,0.28954990582499995,-0.5307651535,-0.018020509752499997
0 days 00:00:02.246096724,9.641479969,-0.8374879161166667,2.3142582573333335,1.0714568496999999,0.03688095509999998,0.1201876476
0 days 00:00:02.266096724,9.531808614749998,-0.8823533653250001,2.53280270125,1.404378176,0.2824485898,0.1305723488
0 days 00:00:02.286096724,8.544769287,-1.655833244,2.256431818,1.814370194833333,1.0593667928,0.05726857296333334
0 days 00:00:02.306096724,10.109675886749999,-0.8195417522750001,4.555336176999999,1.977980137,1.906738043,0.03283398226
0 days 00:00:02.326096724,10.8879415975,-0.47258246687500005,6.987042307499999,2.15024399775,2.25508368025,-0.13377938512999998
0 days 00:00:02.346096724,7.453642566333333,-1.6279169867666667,8.682755789,3.069290042,3.248502493,-0.82604190715
0 days 00:00:02.366096724,3.49770849925,-4.10069972275,9.4881399305,2.76462131725,4.04629188775,-0.47097674017499996
0 days 00:00:02.386096724,4.1766719815,-0.8195418119999999,0.6544370054999998,0.8860593735999999,2.9283075131666667,0.40810859205000005
0 days 00:00:02.406096724,3.05383992175,2.0973089935,0.4205385745,-0.87628550825,1.83786302825,0.7406735271
0 days 00:00:02.426096724,6.8548383710000005,2.7080770735,4.116253257,-2.6061018107500002,1.5802308025,0.6073523067075
0 days 00:00:02.446096724,7.739584684333334,-1.0209376018333334,7.440482061166667,-3.0106470585,0.79160437755,-0.138513584385
0 days 00:00:02.466096724,5.5495538707500005,-0.917647451,13.9513526,-2.07694023875,-1.104825298975,-0.14721840989999999
0 days 00:00:02.486096724,4.939982414,1.848455489,6.807580470999999,0.24332780633333337,-1.263141135,0.3248273407666667
0 days 00:00:02.506096724,5.190032482,2.20618248,4.634897232,0.6395754218,-1.231274366,0.4109592736
0 days 00:00:02.526096724,5.190032482,2.20618248,4.634897232,0.6395754218,-1.231274366,0.4109592736
0 days 00:00:02.546096724,5.190032482,2.20618248,4.634897232,0.6395754218,-1.231274366,0.4109592736
0 days 00:00:02.566096724,5.923058629,1.62435269925,4.6809591055,0.6395754218,-1.231274366,0.4109592736
0 days 00:00:02.586096724,7.70578599,0.060717876999999996,3.7153058055,0.5784253130333333,-1.3500493761666668,0.25315254431666667
0 days 00:00:02.606096724,7.5765736100000005,1.0548609125,2.5856692197499997,0.2726747692,-1.943924427,-0.5358811021
0 days 00:00:02.626096724,7.67228651,1.325623751,2.577069998,0.2726747692,-1.943924427,-0.5358811021
0 days 00:00:02.646096724,7.67228651,1.325623751,2.577069998,0.2726747692,-1.943924427,-0.5358811021
0 days 00:00:02.666096724,8.25493896,0.9717103245225,3.57345634725,0.07320832659925,-1.9221051037499999,-0.880867004425
0 days 00:00:02.686096724,10.00289631,-0.09002995491,6.562615394999999,0.09105702791583332,-1.7940462231666665,-0.9637282689666667
0 days 00:00:02.706096724,11.3654592075,0.9620642962724999,5.1210889815,0.5127446055,-1.190117359,-0.8030580878
0 days 00:00:02.726096724,12.5040686175,1.6963617210000002,3.4547871945,0.5127446055,-1.190117359,-0.8030580878
0 days 00:00:02.746096724,12.724781516666667,2.0856938961666667,2.796063125,0.5127446055,-1.190117359,-0.8030580877999999
0 days 00:00:02.766096724,12.5609729275,3.61794781675,1.4177474380000001,0.5127446055,-1.190117359,-0.8030580878
0 days 00:00:02.786096724,12.18096256,4.292723656,1.234696507,0.16913318508333333,-2.8219534556666663,0.006337722116666666
0 days 00:00:02.806096724,12.18096256,4.292723656,1.234696507,0.100410901,-3.148320675,0.1682168841
0 days 00:00:02.826096724,12.18096256,4.292723656,1.234696507,0.100410901,-3.148320675,0.1682168841
0 days 00:00:02.846096724,8.5039917625,4.524777651,0.02831507466666668,0.100410901,-3.1483206749999995,0.1682168841
0 days 00:00:02.866096724,7.7158060074999995,4.68043577675,-0.23008484764999998,0.100410901,-3.148320675,0.1682168841
0 days 00:00:02.886096724,8.1391863825,5.2398328780000005,-0.30179475245,0.100410901,-3.1483206749999995,0.1682168841
0 days 00:00:02.906096724,8.720941544,5.471487999,-0.3221337497,-0.8432224672499999,-3.337287903,-0.153040721925
0 days 00:00:02.926096724,8.720941544,5.471487999,-0.3221337497,-3.674122572,-3.904189587,-1.11681354
0 days 00:00:02.946096724,9.19686397,4.621138667099999,-0.57073805225,-3.7405159475,-3.7347891334999996,-1.0030017791
0 days 00:00:02.966096724,11.8103745,0.31136605517500004,-1.803216189,-3.806909323,-3.56538868,-0.8891900182
0 days 00:00:02.986096724,12.401999949999999,-0.16899309305000002,-1.8601204754999998,-3.526229659666667,-2.185152431666667,-0.3991619547
0 days 00:00:03.006096724,12.2919302,-0.475274384,-1.94865489,-3.23380357025,-1.46357476735,-0.12358558175
0 days 00:00:03.026096724,12.2919302,-0.475274384,-1.94865489,-2.5249331,-0.1269835234,0.409126699
0 days 00:00:03.046096724,11.692478341666666,-2.466052979,-4.000998775,-2.5249331,-0.1269835234,0.409126699
0 days 00:00:03.066096724,11.512916805,-2.2119401989250003,-4.34431898575,-2.5249331,-0.1269835234,0.409126699
0 days 00:00:03.086096724,10.879267215,0.022432714700000005,-4.446313142499999,-0.07822886116666666,2.2634067732666665,1.6157882309999998
0 days 00:00:03.106096724,10.42463112,0.3000001311,-4.749752998,0.34874653070000006,3.44550633425,1.98403152825
0 days 00:00:03.126096724,10.42463112,0.3000001311,-4.749752998,0.3595702946,4.083249092,1.989815712
0 days 00:00:03.146096724,10.1567845355,0.5207878649166666,-4.4093241291666665,0.35957029459999995,4.083249092,1.9898157119999997
0 days 00:00:03.166096724,8.922611475,1.60939753075,-1.9899311812500002,2.1453188729,6.6667492392500005,1.4174163045000001
0 days 00:00:03.186096724,9.8436236355,1.726421535,1.4651552140000002,3.0669738451666664,8.140053272166666,1.266208132
0 days 00:00:03.206096724,9.91645550625,2.7389594015,3.308002472,3.0694046615,8.781315088,1.1313979331250001
0 days 00:00:03.226096724,9.738788605,3.022135019,3.48783803,2.83540535,8.826843262,0.9495129585
0 days 00:00:03.246096724,8.807581742833333,2.856631437666666,3.470440228833333,2.83540535,8.826843262,0.9495129585000001
0 days 00:00:03.266096724,4.2239302397500005,2.0793628095,3.83569473,2.33590883,8.316179275749999,0.86721800265
0 days 00:00:03.286096724,4.536791563,2.447857499,6.535995006499999,0.837126553,3.1953317721666665,0.14024436969666665
0 days 00:00:03.306096724,4.668397068999999,3.26859569575,8.527421593749999,0.6756164282499999,1.32779094575,-0.369878627375
0 days 00:00:03.326096724,4.567300439,3.67417919675,10.200603005249999,0.6322450340000001,1.035644829225,-0.2803869331425
0 days 00:00:03.346096724,4.238486528666667,1.6522440220299999,10.325827519333332,0.6395754218,0.9000328778999999,0.03894263133
0 days 00:00:03.366096724,6.4504514935,0.241675096635,7.27597534675,0.7664825767250001,-0.08910990510000003,0.0210748354425
0 days 00:00:03.386096724,5.7631132605,1.4644075034999997,5.864808321000001,0.6769399791666667,-1.1117484721833335,-0.30293802315333335
0 days 00:00:03.406096724,5.33419978625,2.1954147817500003,7.007381081749999,0.32070402055,-2.28654328,-0.59437142315
0 days 00:00:03.426096724,5.2157552240000005,2.34855538625,6.741179466,0.098349232225,-3.367163122,-0.57192212345
0 days 00:00:03.446096724,6.312266270166667,2.8933213951666663,5.566503047833334,-0.49724393335000006,-4.460611105,-0.6314814687
0 days 00:00:03.466096724,6.925427079,3.10408920075,5.6805609465,-0.8655954003,-5.124315739,-0.6580541134
0 days 00:00:03.486096724,9.186046124999999,3.716053486,5.492724419000001,-1.77415491155,-5.708607594,-0.9096285701000001
0 days 00:00:03.506096724,10.31785107,4.017549038,4.429114819,-2.27073705175,-6.0945215225,-1.08565944425
0 days 00:00:03.526096724,10.8687982575,1.383051425225,3.70050025,-2.4023784399999997,-6.4899038075,-0.9665407684
0 days 00:00:03.546096724,11.811371166666667,0.4793621302,3.7910286586666664,-2.114202976,-6.613604069,-0.6696605086000001
0 days 00:00:03.566096724,11.413764,0.8685946465,3.754338741,-1.33993184575,-5.08705270325,-0.36728245765
0 days 00:00:03.586096724,11.975545353333333,1.1049523401333334,2.9096723796666666,-0.8692605496,-3.6993716560000003,-0.04576395949333332
0 days 00:00:03.606096724,11.645469030000001,0.11445669074999998,1.630708635,-0.500603668375,-2.689714059325,0.30298893906999996
0 days 00:00:03.626096724,10.8071832625,0.5928218327250001,0.02033898237500001,0.330325141575,-0.934241309725,1.033888668
0 days 00:00:03.646096724,9.471589405666668,1.6039888360666668,-1.2514462269166666,0.4694495797,-0.9255365135,1.0438151955
0 days 00:00:03.666096724,8.84806013075,2.3904299142500003,-1.5726827085,0.22831070795,-1.653534621,0.760068491175
0 days 00:00:03.686096724,9.3882398605,2.928814888,-0.576670246165,0.03828085711666668,-1.8400010863333331,0.60806496445
0 days 00:00:03.706096724,9.44746232025,3.0885357855,0.6023930823175,-0.44318240877500004,-1.3908627556500002,0.154701501175
0 days 00:00:03.726096724,8.65842866875,1.9118652939999998,0.12143574464999998,-0.19440772753250002,-0.06757690757500001,-0.127059868505
0 days 00:00:03.746096724,7.141379117666666,-0.03589233253333337,-2.1627128757,0.06536252797,0.5060251355,-0.03497200832
0 days 00:00:03.766096724,7.310073376,0.4546363056,-2.852244616,0.082314027475,0.3191004917,0.253203452545
0 days 00:00:03.786096724,8.551948309,1.6390834898000002,-2.569891572,-0.04479675119166668,0.15477785965000002,0.2884808936866667
0 days 00:00:03.806096724,9.67537832275,2.87019073975,-0.9343972726249999,-0.7086031437,-0.3552942276,-0.01542433538
0 days 00:00:03.826096724,8.72961545025,2.203789681,-0.870987482375,-0.7605266571,-0.32169666515,-0.092698726335
0 days 00:00:03.846096724,9.043673515166667,1.8380866251666665,-1.6043875816666666,-0.87445294855,-0.056275919100000016,-0.36392268535
0 days 00:00:03.866096724,10.18624639575,1.483550101625,-0.825523816225,-0.7428115606250001,0.365831654525,-0.711657479375
0 days 00:00:03.886096724,11.825329779999999,-1.20000058425,1.3651053460499998,-0.5472330153,0.6950877755833332,-0.8551597991666666
0 days 00:00:03.906096724,11.61236858,-1.536192179,3.010170937,0.2809978127,1.912235856,-1.058781385
0 days 00:00:03.926096724,13.4374937975,2.14995121975,3.469592929,0.397672981,2.03425607075,-0.8484911841
0 days 00:00:03.946096724,12.194621881666665,4.452245195666666,1.9720846811666666,0.7476984859,2.400316715,-0.21762058139999998
0 days 00:00:03.966096724,10.463215231500001,3.8524442763500004,2.0685952605,0.07513636352499999,1.99164819725,-0.489302672475
0 days 00:00:03.986096724,7.083951473,0.717846781,0.5778666793564999,0.12074760098333333,1.8864776888333334,-0.8404990335
0 days 00:00:04.006096724,5.454439281999999,2.34077867865,-0.81595253632175,0.217467859375,1.50509445355,-0.958294123475
0 days 00:00:04.026096724,5.89830791925,5.4598228935,-0.3146561811925,0.31322091817500003,0.10987929997500001,-1.324965686
0 days 00:00:04.046096724,7.674978892166666,7.933004855833334,2.218944135735,0.2959639877,-0.8671989438500001,-2.3052509430000003
0 days 00:00:04.066096724,7.6983085875,7.9830547567500005,3.3948171735,0.55588693915,-0.649883791675,-3.449095249
0 days 00:00:04.086096724,7.0337021355000005,5.321637630000001,3.104687452,0.93248509375,0.22757258015,-3.7944374878333336
0 days 00:00:04.106096724,6.241677880499999,4.977071166,1.6301104130000001,1.47279501,0.9763910174,-3.474140644
0 days 00:00:04.126096724,6.6006013155,5.571089387,1.025922700825,1.54182273175,0.703334454425,-3.132056415
0 days 00:00:04.146096724,9.495916923166666,6.996613343500001,1.8512471515333333,1.7544036504999998,-0.059635674453,-2.2661557195000004
0 days 00:00:04.166096724,10.36092186,3.708875179,-0.6556333899,1.8803944585,-0.1413388428515,-3.0271404979999996
0 days 00:00:04.186096724,10.260423185,3.1836506125000006,-0.94277212045,1.7834196684999999,-0.5592212403333333,-3.3718209663333334
0 days 00:00:04.206096724,5.702096344,2.51306194075,-6.7052872182500005,0.791986152625,-2.29310995325,-4.09126698975
0 days 00:00:04.226096724,0.8009974212500001,4.691726923,-8.968299388750001,-0.8243620246250001,-1.6628503054500001,-3.71573770075
0 days 00:00:04.246096724,2.9503502946666664,8.1347994805,0.4594219523333332,-2.223242402,-1.5101340709000002,-2.567922831
0 days 00:00:04.266096724,7.78026294725,9.494720102999999,4.088137522325,-0.8077159523749999,-2.12527495625,-3.6714501380000004
0 days 00:00:04.286096724,6.0107705595,5.2677989005,1.16171541815,-0.6919061641166667,-1.6179517312166667,-5.081325928666668
0 days 00:00:04.306096724,4.067200303,3.19262355575,2.3180468674999997,-0.6696604937499999,-0.46265373377499996,-6.46432375925
0 days 00:00:04.326096724,3.9613178375,3.11066943375,2.3964118955,-0.3384190798,0.3368155658,-7.168040276
0 days 00:00:04.346096724,2.1802602011666665,2.2233310139999998,2.8490542169999995,0.24220788479999997,0.9229402989000001,-7.7486672405000006
0 days 00:00:04.366096724,1.0947163851,3.4683963657500003,2.39282262325,1.6323833761,2.0047818722499997,-8.767283916499998
0 days 00:00:04.386096724,-1.3794622718000003,4.456632137,-3.680161357,1.3651809291666666,0.005523244583333309,-9.295579910333332
0 days 00:00:04.406096724,-13.28614825,0.881156906375,2.7571299075,0.829401619475,-1.081917881975,-8.653052091749998
0 days 00:00:04.426096724,-16.60140419,-0.3684946895,6.867401123,-0.11499530825000004,-2.6768858135,-4.830871541325
0 days 00:00:04.446096724,-21.338394643833336,7.038487644083332,2.4211376505,0.7648026943,-2.1985786555,2.90114959335
0 days 00:00:04.466096724,-0.12203395374999992,20.9569387475,-3.73639258725,0.6224712133,-2.826242208,5.637518406
0 days 00:00:04.486096724,2.001596093,20.671595095,0.82313101,-1.4581342337833334,-0.8815542261666666,2.4804673614333335
0 days 00:00:04.506096724,-5.67338246125,10.93938684375,-1.4081761915,-2.32449317,1.4933353365,0.13515384122500002
0 days 00:00:04.526096724,-5.911468148000001,6.5611195567500005,-1.3938191830000002,-1.77883818755,1.04037903215,0.916602611575
0 days 00:00:04.546096724,-3.044866840166667,7.735995292333334,2.0418752635,-0.31978772208,0.6000982820499999,1.01785340915
0 days 00:00:04.566096724,-3.1449666023333336,8.584649721333333,2.0171494288333336,0.4593703200266667,0.5740347305666667,0.6752600868666666
0 days 00:00:04.586096724,-4.570291280499999,9.6239323615,-0.013160526750000012,1.0598503947000002,0.2885572584449999,0.2008217908
0 days 00:00:04.606096724,-4.40099918875,9.0586285595,0.9439685795,0.79610951245,0.06070468901750001,0.1101083773825
0 days 00:00:04.626096724,-4.280161619,8.16132009075,1.21136650475,0.2970329884,0.367358818675,0.0962111987225
0 days 00:00:04.646096724,-4.166701793833334,8.105686903333334,0.9176474810333333,0.0134390248,0.5781071782,0.1452330947
0 days 00:00:04.666096724,-3.8775690789999997,8.453842401750002,1.04147610075,-0.189978943475,0.15706861252,0.10674862004749999
0 days 00:00:04.686096724,-3.4013973474999997,8.581858635,0.9523434342,-0.2649116963,-0.38380125444,-0.11082105461166665
0 days 00:00:04.706096724,-2.900101006,9.08494925475,0.7501498907999999,-0.2272416949,-0.8030580878,-0.3477347791
0 days 00:00:04.726096724,-1.8059828875,11.494521620499999,1.23649105415,-0.1934914160325,-0.8006146401,-0.533284969575
0 days 00:00:04.746096724,-2.0394824741666664,11.777472975833334,1.3878370918333334,-0.124921847115,-0.56420999765,-1.4943280220000001
0 days 00:00:04.766096724,-4.780261278499999,8.933603524999999,1.0498509664250002,0.1722638682,-0.12942697759,-1.66964617375
0 days 00:00:04.786096724,-1.3854443430000003,7.6965141295,1.3411770983500002,0.8836159109666667,-0.24676392540333336,-0.9847649236333335
0 days 00:00:04.806096724,-4.456632346,6.789634347,-1.5152549145,1.431867033,-0.61216286945,-0.9665407984500001
0 days 00:00:04.826096724,-8.70030319675,4.49491727375,-2.7649065852500003,1.882837951,-2.177351147,-0.5007563825000001
0 days 00:00:04.846096724,-5.325625539,3.8707893688333335,-0.12442679209999997,1.9877539870000003,-3.483532667,1.067028046
0 days 00:00:04.866096724,-2.785245657,6.498906136,0.390030086,2.01890811325,-2.70147311675,1.85137838125
0 days 00:00:04.886096724,-3.1537402869999998,10.833504198,-0.14356935025000003,1.15249819705,-0.5476148128333334,1.3825397096333332
0 days 00:00:04.906096724,-6.3326052425,13.2119700875,-2.141576275375,0.1111773923,1.214017391,0.7707586288
0 days 00:00:04.926096724,-6.40259516225,9.8787684435,-2.06440776575,0.12140937707499999,1.30167648175,0.90667605385
0 days 00:00:04.946096724,-3.4113674559999994,9.024131775166666,-0.8969096938,1.0903936622000001,1.3129774925,1.428354561
0 days 00:00:04.966096724,-2.6829524635000004,9.58385300625,-1.3046865162499999,2.5660902854999996,0.66820973145,1.40208736025
0 days 00:00:04.986096724,-3.466003656,11.3790679,-2.264806628,2.3503021994999997,0.5575413703666667,1.308014234
0 days 00:00:05.006096724,-3.87397992575,11.225328919999999,-2.39940297575,1.84847682725,0.8701005281,1.29533875025
0 days 00:00:05.026096724,-3.9882372022499997,10.088140248,-2.548356116,1.538768411,1.172478557,1.403003693
0 days 00:00:05.046096724,-4.7114677825,8.782456795666667,-1.410568954966667,1.650862098,0.7815251054,1.2979349495
0 days 00:00:05.066096724,-4.394418776249999,7.8909310105,-0.9906285515999999,1.7221805755,0.4148535356,1.13651388875
0 days 00:00:05.086096724,-1.9513468739999997,8.9072823525,-3.8979080914999997,1.12256585545,0.31971135335,0.6457349608333333
0 days 00:00:05.106096724,-1.82153621325,8.958129644,-3.6089747552499998,0.65515246985,0.120569434475,0.419511385275
0 days 00:00:05.126096724,-1.4051850735,9.09392213825,-2.7792634962499996,0.7609848082249999,0.47884162515000006,0.793513357625
0 days 00:00:05.146096724,-1.0448658665333332,8.993025143833334,-2.1738794248333333,0.70371624825,0.7451786697,1.0383174419
0 days 00:00:05.166096724,-1.5397813025,7.91426062625,-2.54895430775,0.453108966325,0.8594103902250001,1.0389283002499998
0 days 00:00:05.186096724,-1.9501504299999999,6.406782627000001,-3.816552043,0.3347538932833333,0.6035598516333334,1.023147563
0 days 00:00:05.206096724,-0.96430754655,6.9613193275,-3.7651064400000003,0.16966768726,0.30703590812500003,0.910341218275
0 days 00:00:05.226096724,-0.7495516985999999,7.1778696777499995,-3.5587254170000002,0.0561995594775,0.1553887333475,0.5713112950749999
0 days 00:00:05.246096724,-0.7134599561833334,6.916453997333332,-3.1521449885,-0.062919073755,0.06528617442,0.41095928849999996
0 days 00:00:05.266096724,-0.1794617027,6.616154671,-3.041277647,-0.2081521731,0.2459494415875,0.368809618025
0 days 00:00:05.286096724,-0.46061836930000005,6.3924257755000005,-3.2614172694999994,-0.4392117808,0.3539197891833333,0.19593488301666664
0 days 00:00:05.306096724,-0.9212367237,6.134599208499999,-3.55513614375,-0.730288833375,0.271605744925,0.0522289397175
0 days 00:00:05.326096724,-1.011565804825,5.93300390225,-3.80937355775,-0.941037207925,0.15294527286374998,0.007483094002500001
0 days 00:00:05.346096724,-0.7126623514250001,5.551747401499999,-4.206981023166667,-1.3900228145,-0.1439350093725,-0.0190895240799
0 days 00:00:05.366096724,0.12861422216249999,5.48076009725,-4.3525444265,-1.561370373,-0.2813795805,-0.0007635809598
0 days 00:00:05.386096724,1.01694965355,6.567101717,-3.9900316,-1.6565634806666667,-0.4363356232833333,0.04006254908503334
0 days 00:00:05.406096724,1.7473587097499998,8.46281564225,-3.86261385675,-1.4375175532499997,-0.74808025365,-0.0531452372575
0 days 00:00:05.426096724,2.41136696925,11.5806636835,-4.124628067,-0.9382883237249999,-0.9499710651,-0.05131264772500001
0 days 00:00:05.446096724,5.548955718833334,17.660227775,-3.815355698333333,-0.23915356025,-0.5550470054,0.31535893680000004
0 days 00:00:05.466096724,7.57328367225,21.225533007499997,-4.942375183,0.178677955625,-0.487699165975,0.989906385625
0 days 00:00:05.486096724,4.17069,14.7972154625,-5.947360753999999,0.4743365099166667,-1.4936407305833335,1.100218356
0 days 00:00:05.506096724,-0.4504488405000001,4.9663035275,-4.561916232,0.161421019575,-1.57259497025,1.063515544
0 days 00:00:05.526096724,-3.27397960375,1.6941184105000002,-5.2612186667500005,-0.349109228725,-1.067104398975,1.0835213657499998
0 days 00:00:05.546096724,-5.319244622833334,3.056830903,-3.4516466259833334,-1.068402529,-0.4756345749,1.070693254
0 days 00:00:05.566096724,-5.25583505625,10.59541869225,0.9517451823249999,-0.686764732075,-0.011071916700000003,0.19562944758250003
0 days 00:00:05.586096724,-2.931207597,17.228322985000002,-0.40319061250000016,-0.1716530000533333,-0.08641190889666665,-0.7728966871483333
0 days 00:00:05.606096724,-2.3060827552500003,14.243875025000001,-2.8492535947500004,0.02076940238,-0.6729438901,-1.752723813
0 days 00:00:05.626096724,-3.0173494217499996,7.9214394082499995,-1.1832507998000001,-0.250149127215,-0.384004853675,-1.5018110871
0 days 00:00:05.646096724,-2.0191434768499996,4.66839695,0.8287142215,-1.062904716,0.4828122556,-0.7490729094
0 days 00:00:05.666096724,-0.300897453,4.514059782,0.8123632967250001,-1.123838514,1.1365902649000001,-0.6491965204500001
0 days 00:00:05.686096724,-0.54436712735,7.153343201000001,1.4045868518500002,-0.98267779745,1.1465168693333334,-1.0322087707999998
0 days 00:00:05.706096724,-1.972284019,10.20897769825,2.440080941,-0.627358127375,0.649578355225,-1.3066397605
0 days 00:00:05.726096724,-1.7096717355,12.2703943275,0.8775677309250001,-0.188757211,-0.03397935625000001,-1.58107075075
0 days 00:00:05.746096724,-1.8400805788333336,12.449855963333334,-0.3920241048,-0.39675668625,-0.44020442660000003,-1.8742858770000002
0 days 00:00:05.766096724,-2.6081766485,10.025926827,0.7776673585249999,-0.83978638055,-0.0959821254825,-1.6213878695
0 days 00:00:05.786096724,-1.832902193,8.798408508,1.732403636,-1.0042616624166667,1.0056107395316667,-0.8331686457499999
0 days 00:00:05.806096724,-0.6646065116000001,9.532406806500001,1.3734801709999997,-0.95065827655,1.22333312025,-0.5917752385
0 days 00:00:05.826096724,-0.06879365445,9.9493565565,0.32063822193124997,-0.74220070245,1.212642937525,-0.29031347485
0 days 00:00:05.846096724,-0.9523434043333333,9.102696259666667,-0.01435693493750001,-0.9043852985999999,0.7479275614,-0.2576322183
0 days 00:00:05.866096724,-1.345364541,9.0394854545,1.2047862409999999,-0.9103412331,0.25984660165,-0.20387611909999998
0 days 00:00:05.886096724,-1.5014962555,9.172885894499998,1.20717901,-0.8067487528166666,0.10020727665,-0.20550509293333333
0 days 00:00:05.906096724,-1.47457694975,9.5485591885,1.1772687735,-0.4048506394,-0.39759660515,-0.246483944375
0 days 00:00:05.926096724,-1.6713866295000002,9.606584787500001,0.90927264105,-0.223271071925,-0.656908705875,-0.22892158107500002
0 days 00:00:05.946096724,-2.3421745701666667,9.131011486166665,0.3353939751833333,-0.235182941,-0.5648208261,-0.1143844277
0 days 00:00:05.966096724,-2.799602509,8.786444664,0.3684946895,-0.49037170407499997,0.053679741899999994,0.09773836285000001
0 days 00:00:05.986096724,-2.8450661900000003,9.158528805,0.48335018755,-0.6956731776333333,0.6807324538833334,0.16569707541666667
0 days 00:00:06.006096724,-2.587239444,9.629316807,0.45463631302499996,-0.755639717,0.8154281229,0.0813977308575
0 days 00:00:06.026096724,-2.43768799325,9.139984130750001,0.19142581339999998,-0.746324032575,0.648814752675,-0.0621554907275
0 days 00:00:06.046096724,-1.7706887326666667,8.957930088333333,0.4243272157833333,-0.66553717855,0.43852454425000004,-0.2240346558
0 days 00:00:06.066096724,-1.43928283475,9.22433161775,0.8243274092749999,-0.41019569337499995,0.179212451,-0.4642572403
0 days 00:00:06.086096724,-1.3651053309999999,9.894321441999999,0.5192424953,-0.3209076275333333,0.041055202500000006,-0.5184714893666666
0 days 00:00:06.106096724,-1.1724830864999998,9.999007463249999,0.1674975827,-0.2422078848,-0.40614872427500004,-0.5606211424
0 days 00:00:06.126096724,-1.1054840685,9.89791107175,0.373878531175,-0.42348200829999993,-0.34231335484000003,-0.54901473225
0 days 00:00:06.146096724,-0.9898309309166667,10.006784437666667,0.98584296335,-0.52778717875,0.07170025632,-0.4634936601
0 days 00:00:06.166096724,-0.6921239346250001,9.836295605,1.025324493675,-0.5212203562,0.3322340734,-0.3866774067
0 days 00:00:06.186096724,-0.6831508577,9.275776862999999,1.337587893,-0.43941539523333334,0.5538761814666667,-0.2688314045333334
0 days 00:00:06.206096724,-0.613160789025,8.873184442749999,1.3698909877499998,-0.2897026222,0.60788680615,-0.17104213404750002
0 days 00:00:06.226096724,-1.183848976725,9.25842905025,1.15214407425,0.146149402475,0.6197986602500001,0.0714711798325
0 days 00:00:06.246096724,-1.928615113,10.724232039999999,0.06620141856666661,0.24251332135,0.45013098415,0.1617264487
0 days 00:00:06.266096724,-2.0211374756666665,11.775080043333332,0.7489534616666665,0.2431241771,0.4838303526,0.22362740836666664
0 days 00:00:06.286096724,-1.6917255519999999,11.803794385,1.11625173695,0.4108065665,1.0115156769,0.44516770540000006
0 days 00:00:06.306096724,-0.719043195275,10.9944217225,-0.43250267205000004,0.504727035775,1.6173408029999998,0.7279981076500001
0 days 00:00:06.326096724,-0.620339289325,10.634301902499999,-0.8775676935750001,0.30558510125000005,2.65321475275,1.112537488275
0 days 00:00:06.346096724,-1.1553345618666666,10.633304913333333,-0.8303094407333332,0.26633705195,3.6189919715,1.731038034
0 days 00:00:06.366096724,-1.2801600995,10.4745807625,-2.67338103075,0.75762505085,4.160523474,2.6175555885
0 days 00:00:06.386096724,-2.1212373375,10.803594109999999,-4.4243290425,1.4977386494499998,2.1908919015,3.1596472663333333
0 days 00:00:06.406096724,-2.7308089134999998,11.5704941775,-2.584248543,1.9709552527499998,0.9021708667500001,3.08227103975
0 days 00:00:06.426096724,-3.2063822745,12.314063784999998,-0.5288138287825,3.11647945675,-1.7812053857499999,2.46789369
0 days 00:00:06.446096724,-4.494119723333333,12.041481333333332,1.0540384008816666,3.0720390079999995,-1.42094784995,1.658039749
0 days 00:00:06.466096724,-4.6384866835,10.999207255,0.971485957325,2.776991367,-0.8696423769,1.426827431
0 days 00:00:06.486096724,-2.03629203885,9.0915293695,-0.23090739549999997,0.7667371195183333,-0.07063123583333335,1.5149955948333333
0 days 00:00:06.506096724,0.9158528635749998,8.467003107250001,0.9176475184249999,-0.0068722274175000014,-0.06406444312500001,1.28128889175
0 days 00:00:06.526096724,2.76071912075,8.31206798575,-0.0017946063750000074,0.219911322,0.5787180066,1.126892805
0 days 00:00:06.546096724,2.7752754590833333,8.486943404166666,-0.8247262239166666,0.5271763131,0.17340923099999994,1.192866206
0 days 00:00:06.566096724,0.26380869842,9.64965558075,-2.82771825775,0.80191272495,-0.6639336459,1.1626284122500001
0 days 00:00:06.586096724,-0.47976094296000005,9.401400089,-1.994417727,0.4282162040333333,-0.8674025436,0.8258382678333334
0 days 00:00:06.606096724,-1.460220024275,7.927421569750001,-1.7982062105,0.221133053275,-0.9317978471,0.477390825775
0 days 00:00:06.626096724,-2.32761824125,6.33200681175,-1.808973879,0.298102013775,-1.02190044525,0.391258895375
0 days 00:00:06.646096724,-3.141776124333333,4.972285509,-1.769492308,0.30390521885,-0.9120974840999999,0.2744310051
0 days 00:00:06.666096724,-3.55932372775,4.04626303875,-1.7659030852500002,0.2272416949,-0.7890082002,0.1727220118
0 days 00:00:06.686096724,-2.5387847420000003,3.7016966339999997,-1.4321044084999999,-0.33862270911666664,-0.3265835779783333,-0.4115701466833334
0 days 00:00:06.706096724,-2.139183402,4.19162696625,-1.19162568475,-0.7370083332249999,-0.016569709402499994,-0.8071050942
0 days 00:00:06.726096724,-0.9822536856000001,6.0741801265,-1.5726827082500001,-0.9138537049,0.2079230994,-0.8749110699
0 days 00:00:06.746096724,0.08454641699999994,7.314459880833333,-1.8775682048333333,-1.06748619695,0.29894194749999997,-0.97692549245
0 days 00:00:06.766096724,3.78365093475,10.6474626075,-2.73439812675,-1.2151627545,0.403247117975,-1.334128678
0 days 00:00:06.786096724,4.584648371,9.9361963255,-2.6344977615,-0.92912533885,0.12820524968333333,-1.7372485003333333
0 days 00:00:06.806096724,3.4007991549999996,7.625925778999999,-1.99800690975,-0.708755850775,-0.26305364815,-1.9141448137500001
0 days 00:00:06.826096724,0.739980380233,6.0436716079999995,-1.097109183575,-0.683863133175,-0.5307651310999999,-1.8458806872500002
0 days 00:00:06.846096724,-1.2418749240593332,5.891129175833334,-0.8374879261833333,-0.72845622895,-1.1188752354,-1.3636029365000002
0 days 00:00:06.866096724,-2.45563417675,7.783253908500001,-1.3890335562499998,-0.89079356195,-1.439884663,-0.8666644097
0 days 00:00:06.886096724,-1.90827605135,10.336994171999999,-2.315055847,-1.3425789672,-0.092113336,-0.42002043131666666
0 days 00:00:06.906096724,-0.144167562975,10.401600120000001,-3.9212380650000003,-1.5612176952499999,2.16177403925,-0.45081819592500005
0 days 00:00:06.926096724,1.28315111815,9.11904692525,-5.163711429,-1.326645613,2.015930146,-0.6226239204
0 days 00:00:06.946096724,2.179861426,8.357730547833334,-4.553142786333334,-0.87933984405,0.93943366395,-0.60551971195
0 days 00:00:06.966096724,2.08893418275,8.210970879000001,-3.54317218075,-0.6175842881,0.3142135739,-0.5884155035
0 days 00:00:06.986096724,0.27996027460000006,8.419146538,-1.676172256,0.05945750325000001,-0.02756527066666668,-0.4604393293666667
0 days 00:00:07.006096724,-3.39182603395,10.529616358999998,0.23030915900000004,0.16508620975,-0.377896219475,-0.2458730730925
0 days 00:00:07.026096724,-4.204189301,11.09551907,1.067198873,0.1343902498,-0.6491202116,0.06887500733
0 days 00:00:07.046096724,-2.988236586333333,12.429118633333333,-0.0031904378333333927,0.1343902498,-0.6491202116,0.06887500733
0 days 00:00:07.066096724,-2.249253273,10.04267693,-2.49332118,0.1036942954975,-1.1123083829,0.0926987286575
0 days 00:00:07.086096724,-2.633301258,11.307283405,-2.240878403,-0.5647444787116666,1.0349322159999998,0.009926550083333333
0 days 00:00:07.106096724,-4.35792803775,15.3553404825,0.2422733009,-0.7428115606,1.40338552,-0.2408334464
0 days 00:00:07.126096724,-2.2564316690000004,16.3962192575,1.9962123032999999,-0.38347035645,1.162857502725,-0.24862197415000004
0 days 00:00:07.146096724,2.1762721141666668,11.242278497666666,-4.2344983815,0.33750279152999996,0.93637937295,-0.374612838
0 days 00:00:07.166096724,1.5092728435,7.6025955675,-2.55912387375,-0.02825249592,0.06574434037500002,-0.39293877035
0 days 00:00:07.186096724,-0.35892337550000003,8.201399565000001,0.89850491295,0.14049890016666666,-0.6732493439166666,-0.4219548454
0 days 00:00:07.206096724,-1.607976794,9.753145218,0.6843472719,0.896596789375,-1.95560726475,-0.6606502682
0 days 00:00:07.226096724,-1.0624132454,10.476376054500001,-0.12681961057499996,0.48472122102500004,-1.465693682,-0.53206324575
0 days 00:00:07.246096724,-0.20059829702333332,8.502496400666667,0.8119645117666666,0.1685986817,-1.22333312,-0.5682569742
0 days 00:00:07.266096724,-0.4378865361,8.377271652,1.095912814,0.0352774416125,-1.1005492805000001,-0.7162389606
0 days 00:00:07.286096724,-0.1998006869,8.8163547515,0.533599471605,-0.14945824599166668,-1.1016692025,-0.8839722474333334
0 days 00:00:07.306096724,-0.16271193415000001,7.8789668079999995,0.1633101469025,-0.5406153202,-0.608192265,-0.899345696
0 days 00:00:07.326096724,-0.45942194010000004,6.058028698,0.6669993214500001,-0.6637045741500001,-0.05658136300000005,-0.71578082445
0 days 00:00:07.346096724,-0.3760719547333334,6.053841273166667,0.28195427850000004,-1.111773908,2.3264021875,-0.09880737961500001
0 days 00:00:07.366096724,0.5186442956,8.803792953,-2.3838495615,-1.45080384625,2.6944482329999997,0.1924223974425
0 days 00:00:07.386096724,0.5240281522,9.3427762975,-3.129812002,-1.7853541375,2.9606834251666663,0.5364919802
0 days 00:00:07.406096724,0.2440679073,8.379665375,-3.85244441,-2.073885918,4.202978611,1.129336238
0 days 00:00:07.426096724,-0.40019959215,5.01296359325,-3.33380013725,-1.3367248478000002,3.7900340557499996,1.8197661340000002
0 days 00:00:07.446096724,1.6079767944499999,5.270590583333334,-1.2291132411,1.6591086983999999,1.8590906264999998,3.9970408674999995
0 days 00:00:07.466096724,2.2923241782500003,8.80259657,-2.88933336725,3.8628035787500004,-0.8300888835,3.82676231875
0 days 00:00:07.486096724,-0.06580261885,12.155539034999999,-1.54456697385,4.3320492905,-2.820133566666667,3.112814187833333
0 days 00:00:07.506096724,-1.3148560374249998,14.8678033375,2.524427898575,3.2695009710000003,-1.954538286,2.65237480375
0 days 00:00:07.526096724,-2.4335006772499996,15.489937065,4.416552365,1.9097160411825,-0.55565789325,2.48453968775
0 days 00:00:07.546096724,-5.525027632666667,11.095518510166665,1.5445670289499998,-0.881783304635,1.52616924,1.79884398
0 days 00:00:07.566096724,-6.104688883250001,7.413562655750001,-1.6366906762250002,-1.813657522,2.011806726,1.464090109
0 days 00:00:07.586096724,-2.69192549605,9.090332985,-5.778666615500001,-2.774242321833333,1.1058943271333332,0.5366955996
0 days 00:00:07.606096724,0.396012142275,13.110873699999999,-7.75992381575,-2.47354415025,0.7166207360499999,-1.527620077
0 days 00:00:07.626096724,1.56849527385,12.054442407500002,-5.42273437975,-1.83076179,-0.2477820218,-2.752709389
0 days 00:00:07.646096724,1.7124634387500002,8.760123809500001,-1.0859426855833334,-1.3512329159999998,-0.7187587769,-3.2404849529999997
0 days 00:00:07.666096724,0.76031939685,6.1818572285,1.1024930475749999,-0.30589054155,-1.53517955525,-3.678780377
0 days 00:00:07.686096724,-0.0035892427000000135,5.3874402045,1.2550354595000002,0.4197659269333333,-1.4838668904999999,-3.3176575103333334
0 days 00:00:07.706096724,-0.327816702425,6.053841472,-2.27856534725,0.461966499725,-1.59825131325,-2.97094082825
0 days 00:00:07.726096724,-0.2321037948,6.37687254,-3.395415306,-0.091629713675,-1.9890520572500001,-2.0213514865
0 days 00:00:07.746096724,-0.2640080998,5.826523065333333,-0.1670987705333333,-1.5186098215000001,-1.3842959402000001,-1.3342814146000002
0 days 00:00:07.766096724,0.2739782036499999,4.4907299279999995,1.06061866875,-1.871689677,-0.9362266064,-0.9958623052
0 days 00:00:07.786096724,1.9070796969999997,4.60379076,-1.241874933,-1.8102977869999999,-1.1177552537333333,-0.9645045698
0 days 00:00:07.806096724,-3.10349094875,11.25643623,-0.45942194752500004,-2.313955709125,2.8054729405,-0.756555995205
0 days 00:00:07.826096724,-5.353342295,17.260626555,0.7328019588250001,-0.9633337855,1.640401006,0.05665770918
0 days 00:00:07.846096724,-1.15174526975,16.774086316666665,0.34337005758333333,-0.050396353000000005,-0.379117906,0.41065384819
0 days 00:00:07.866096724,0.5222335307750001,15.9015035625,-0.0783649348,-0.010231986624999995,0.3653734919999999,0.3536907062
0 days 00:00:07.886096724,1.2789636997,14.659627915,-0.77527451515,-0.6473130484166667,2.3867759703333333,0.25030185278333333
0 days 00:00:07.906096724,-1.6073785944,12.077174187499999,1.56789708125,-0.199752777775,1.898644111975,0.299323752475
0 days 00:00:07.926096724,-2.026720762,11.10748291,2.299502611,1.350622058,-0.2257908881,0.4262309074
0 days 00:00:07.946096724,-1.4241282346666668,11.355937481,-0.30827530725,1.7693699004999999,-1.71996612855,-0.21731513739999997
0 days 00:00:07.966096724,-1.0157532022,9.1680996415,0.08853442227500001,1.9269729555,-3.401524246,-0.82512561975
0 days 00:00:07.986096724,0.8195417671,10.356136324,1.999203265,0.9599740008166666,-1.8681008664966665,-0.3214675933
0 days 00:00:08.006096724,2.34616255725,11.266007185,3.3068808315,0.2441931926025,1.004643507265,0.59986922895
0 days 00:00:08.026096724,1.8580267730000002,9.12682390175,3.76091897475,-0.0916297193625,4.14693194625,1.1501056850000002
0 days 00:00:08.046096724,-1.4871392449999998,4.0103706914999995,-5.638686299166667,-0.26633704079000003,5.908207655000001,2.126573026
0 days 00:00:08.066096724,-3.2799616455000002,2.4352951642500003,-4.149752676249999,-1.16400282805,3.7628505827499996,3.6647306085
0 days 00:00:08.086096724,-3.2578281165000003,3.9996030329999996,-0.69750781355,-0.9248492715,2.5003967287499997,3.9806494713333334
0 days 00:00:08.106096724,-2.1786650714999998,8.6111701725,-0.032303104199999995,1.805410862,0.3554469347,3.8482952115
0 days 00:00:08.126096724,-1.0719845741,14.50050568575,0.559920499075,2.5970916747499997,-0.582230485975,2.91794830525
0 days 00:00:08.146096724,-1.5334005256,16.671593665,2.59023055455,1.841146469,-0.3137554228,2.078620195
0 days 00:00:08.166096724,-6.3379889725,13.4620204,-0.441475763825,0.428674364435,0.28504476695000003,0.993266150275
0 days 00:00:08.186096724,-7.671389341,11.814561845,-4.839483738,-1.7071634344033333,1.01243197905,0.20947572586666663
0 days 00:00:08.206096724,-1.4350953250000003,13.4871444675,-6.07717120675,-2.2956297694999996,0.80794501305,-1.372918546325
0 days 00:00:08.226096724,3.7429726872500004,12.546167132499999,-5.3850471975,-1.7692171035,0.23144139347500003,-3.063639522
0 days 00:00:08.246096724,4.106482426166667,8.930013815333334,-1.0923235217666667,-0.7205150148464999,-1.0232748389,-4.194350362
0 days 00:00:08.266096724,1.0689935085000002,6.21595513825,1.71804663575,1.2467750000767501,-2.7764567735,-4.45091354825
0 days 00:00:08.286096724,-2.496910453,5.258227825,-0.1423729655000002,1.9222896295,-4.006229361166667,-3.42547516
0 days 00:00:08.306096724,-2.35693031525,6.538388014,-3.95354109975,0.9077450630249999,-3.5750097035,-2.5156939327499996
0 days 00:00:08.326096724,0.05024926369999999,7.166503787,-3.2536404725,-0.6206386089,-2.434677839,-1.65437448
0 days 00:00:08.346096724,0.8845467766,5.931009610333334,0.05742780400000003,-1.5164378750777778,-1.2881525952666666,-1.4537393914444445
0 days 00:00:08.366096724,1.39441740475,3.8536409142499997,2.88873520475,-1.8951061568333334,-0.5772417486,-1.2125156718333332
0 days 00:00:08.386096724,1.3890335555,6.0693947075,1.1832508146,-1.7449352741666664,-0.06655880813333341,-0.9127847105
0 days 00:00:08.406096724,-0.482751936,12.206386804250002,0.8506484479,-1.8733696345,1.503109171875,-0.18295399097499998
0 days 00:00:08.426096724,-4.20299303525,16.688741444999998,-0.89192461955,-1.26510101575,0.0593302399,0.707686871225
0 days 00:00:08.446096724,-3.1876386208333334,16.935201961666667,0.16151554388333333,-0.9660826623500002,0.1639408469,1.421635091
0 days 00:00:08.466096724,-1.7168501917499999,14.876776695,0.10588242107500001,-0.8081740737,0.7033344507,1.650403976
0 days 00:00:08.486096724,-4.078566194,12.59581852,2.0781664845,0.31856599453333334,-0.12153664234999999,0.36992953959
0 days 00:00:08.506096724,-3.1866415142499998,10.4261262425,1.92741867875,1.020296901425,-0.1237764722075,0.14217877294999998
0 days 00:00:08.526096724,-1.90767779975,10.362716675,1.197009504,1.361617565,-0.05047270283,0.0542142503
0 days 00:00:08.546096724,-1.6857435306666666,11.383853755000002,0.6703891543616667,1.3985748885,-0.387364638965,-0.32665994205000004
0 days 00:00:08.566096724,-0.6993024645000001,11.206784725,0.1310070399275,1.31091579775,-1.329929008775,-0.757930472525
0 days 00:00:08.586096724,1.691725552,10.1168541885,1.6785650849,0.43870270992500005,0.17391829693333327,-0.4976002772666666
0 days 00:00:08.606096724,1.2023933232500001,8.22831881075,2.75772815975,-0.026725334928500002,3.4309985039999997,0.3851502538
0 days 00:00:08.626096724,2.9563323852499996,5.895316839,-2.24566405975,-0.12156208382299999,4.204353332250001,1.025947421825
0 days 00:00:08.646096724,1.5888342650316665,3.145764112166667,-2.9910283883333335,-0.8038980365,3.8309620615000006,2.036775887
0 days 00:00:08.666096724,-0.49950173785750007,2.2671994567500002,-1.23290187125,-0.471434898725,2.789132297,3.12961298225
0 days 00:00:08.686096724,-2.1320049764999998,3.9792641399999997,-2.4801607135,0.6814196754833333,1.4599922695333332,3.584299962
0 days 00:00:08.706096724,-3.18664157375,10.945967436,2.3796622755000003,1.8383975325000002,-0.8129846602249999,3.574169874
0 days 00:00:08.726096724,-3.6251262422499995,14.79063487,3.85005164175,1.6427680847500001,-0.10056363042500005,3.31852299
0 days 00:00:08.746096724,-3.9405801695,16.429120378333334,2.1016958953333336,1.0216713547,0.8704059422,2.852585793
0 days 00:00:08.766096724,-6.5994049310000005,13.844871995,-3.9870406985,-0.27565273640000004,0.9754747152000001,2.1855213644999996
0 days 00:00:08.786096724,-6.358926058000001,15.08555031,-4.937589407,-1.7362813153333334,0.27206390599,0.6672170560666665
0 days 00:00:08.806096724,-1.5439687558500002,12.656237125,-4.37707078475,-1.6044363380000002,0.29955280830125,-1.9434662457499998
0 days 00:00:08.826096724,1.67557403805,8.49870777075,-2.7649065854999995,-1.187521114825,-0.31222824737125005,-3.298058867
0 days 00:00:08.846096724,1.9369898535333334,6.433103482,-0.42831524213333333,-0.16982041299999998,-1.7850232124999998,-4.877297163000001
0 days 00:00:08.866096724,-0.3966103346,6.7310098405000005,2.2755743117250002,0.9431752190750001,-2.395582676,-4.997332215249999
0 days 00:00:08.886096724,-0.58265228585,9.517451761499998,-1.31724885105,0.9255619135133334,-1.6511421002666669,-4.382496753999999
0 days 00:00:08.906096724,-0.49411786347500003,10.446465732500002,-4.39322227275,-0.06719512492,-0.4133263826,-3.393506527
0 days 00:00:08.926096724,1.2592229544000002,7.993822217750001,-1.3328021840250002,-0.64033897769,-0.9982294141999999,-2.9487969874999997
0 days 00:00:08.946096724,3.257429182833333,5.518646717166667,1.6506488573833333,-2.388481259,-2.610607028,-1.590233743
0 days 00:00:08.966096724,0.8422735932499998,4.332803726,3.640679701825,-2.28982657175,1.1653008459999998,-1.5621339674999999
0 days 00:00:08.986096724,-3.256631613,8.633303882,0.13998010755,-2.247371435,2.376492977,-1.5609122510000002
0 days 00:00:09.006096724,-1.505085483275,12.7722892775,1.6857435407,-1.3168716727499998,1.4081196187499998,-0.8761328157499999
0 days 00:00:09.026096724,-2.739781960675,11.0105736275,-3.8847475644999996,1.40987592925,-1.6558253170000001,1.13666668525
0 days 00:00:09.046096724,-4.335395852833334,14.046666621666667,-0.9451649186666665,1.1872156855,-2.227289319,1.181565225
0 days 00:00:09.066096724,-2.967100046525,20.3204479225,4.1497526765,1.158810496,-2.322278738,1.351080179
0 days 00:00:09.086096724,-0.9930214135499998,13.1712923025,1.7730815414999999,0.9215913315,0.5935824313333333,0.6740383703833334
0 days 00:00:09.106096724,-2.356930375,9.011968613,2.3413768412500002,1.0656536071,1.045113243025,0.2803869322
0 days 00:00:09.126096724,-2.234298229,9.88953637725,2.3377876285,1.5082251725,0.2761872485,0.222660213725
0 days 00:00:09.146096724,-2.319442748833333,9.93978548,0.100897342,1.6682717205,-0.5565741658,0.17150028795000002
0 days 00:00:09.166096724,-1.9698912351,9.378070235500001,-0.07058826092499998,1.630398154,-0.9710459113,0.1684459597
0 days 00:00:09.186096724,1.7395820918000002,7.34716177,2.20618250965,-0.17368921641666665,1.743331720616667,1.0169371787833332
0 days 00:00:09.206096724,2.99222469325,4.84247469925,0.588634386675,-0.74113169315,4.39799732,1.2800671757500002
0 days 00:00:09.226096724,0.34277182812499996,1.0211370308375,-6.105287030025,-1.1371247916749998,5.34086704275,1.752418399
0 days 00:00:09.246096724,-1.0029914772500002,-0.4953142913583333,-2.9491539,-1.104748979,2.117181003,2.421315312
0 days 00:00:09.266096724,-1.684547126,-0.004187457299999975,3.02452778825,0.8417716842499999,0.7150935679499999,2.34342998225
0 days 00:00:09.286096724,-2.9874390364999996,2.3246272205,0.8745766793349999,2.447327872,-0.3860410749833334,2.2092433771666666
0 days 00:00:09.306096724,-4.694119811,10.03908753475,0.6681957203175,2.08656129225,-0.870405942125,2.4885104302500003
0 days 00:00:09.326096724,-4.58644270925,20.794825555000003,-0.8530412914500001,1.13025258515,-1.18790289725,2.6355760100000003
0 days 00:00:09.346096724,-2.5140589473333335,19.906689646666667,-1.9162520966666667,-0.03573557729999999,-0.74991288765,1.5496111811000002
0 days 00:00:09.366096724,-1.264008522,15.7687008375,-4.06241464625,-0.6487383842,-0.2844339013,0.6491965652
0 days 00:00:09.386096724,1.05643120395,10.807183264499999,-3.2530424595,-1.0236057638,-2.1244604287166666,-3.2488335073
0 days 00:00:09.406096724,-3.247060283775,7.936394333999999,0.691525757,-0.688902743125,-3.10891991825,-4.6621201039999995
0 days 00:00:09.426096724,-5.499902963249999,7.6325061320000005,1.70069870325,-0.258701235025,-4.151666045000001,-4.2131342885
0 days 00:00:09.446096724,-5.459623813666667,5.875576019166666,-0.9164510766666666,-1.0396918805,-2.8396811485000004,-2.373667836
0 days 00:00:09.466096724,-0.3170490265000001,5.127819061499999,1.93340063075,-2.0241005422500002,-0.9380592258,-1.498604029
0 days 00:00:09.486096724,5.9162540435,6.5240309235,-4.1539402005,-2.52256612,0.5007309565466668,-1.623729527
0 days 00:00:09.506096724,-0.055633127499999935,10.54935693525,-7.294520020249999,-3.2178830209999996,3.031492873825,-1.867260962575
0 days 00:00:09.526096724,-4.9286163445,11.44845986,2.82472693925,-0.57283842575,0.23021967722499997,-0.4563159682
0 days 00:00:09.546096724,-2.4713869888333333,11.288539571666668,-2.7497520444999997,2.3225079175,-2.1573452945000002,-0.0664315447
0 days 00:00:09.566096724,-4.37228524675,12.94935775,-5.300700247,3.397629976,-3.30332756,-0.2066250145
0 days 00:00:09.586096724,-1.2251251934999998,24.392433165,3.0005995035,1.8812599179999998,-2.4673592450000004,-0.155210563282
0 days 00:00:09.606096724,0.4701896617675,22.42254305,1.9698912205,1.306334316725,-1.5513674247,-0.9744820595000001
0 days 00:00:09.626096724,-2.0452651873275,14.892928597500001,2.7003003660000005,0.5045742989,-0.3986656368,-1.755167246
0 days 00:00:09.646096724,0.07377868890000006,9.954541364833334,2.4291137954499997,0.88483762745,-1.1692715734,-1.24723318225
0 days 00:00:09.666096724,1.226321637525,7.945367813,1.686341747525,0.29749114673,0.8099303244999999,-0.4117228761
0 days 00:00:09.686096724,1.46680033205,6.6233329770000005,4.3920259475,-0.015373430059999998,3.3310710984999994,0.7613920221999999
0 days 00:00:09.706096724,3.2344980835,4.75573504,-4.337589145000001,-0.0183259428025,3.89846271275,1.295796886025
0 days 00:00:09.726096724,3.58145731675,2.03270286325,-8.4610209465,-0.3697258951075,3.6557967665749995,2.3364050384999997
0 days 00:00:09.746096724,0.8773683011333334,-1.5529418788333336,-0.3306083279999999,-0.7467821687499999,0.39240426568000003,2.5734206435
0 days 00:00:09.766096724,-0.87577311705,-1.775474407075,3.107678473,-0.1136208475,0.07536543906,2.583194494
0 days 00:00:09.786096724,-1.133001566,0.70827548185,5.1792645455,2.1884231419166666,-1.1487057581566666,2.825504183833333
0 days 00:00:09.806096724,-3.13280305225,4.37826728775,5.03988266025,3.173289895,-0.6790526061750001,3.03752511725
0 days 00:00:09.826096724,-6.35114967825,9.102297065999998,-7.1533433222500005,2.333656177,-0.28687734902500006,3.5660758615
0 days 00:00:09.846096724,-5.350351373666666,18.956339993333334,-1.1916256850333335,-0.3698786199,-2.668639064,4.1534223555
0 days 00:00:09.866096724,-3.41515618575,18.4743852575,0.10767702754999997,-1.6810998622,-1.891008228,2.71254515675
0 days 00:00:09.886096724,-3.0664021970000004,12.727423667000002,-3.4504502415,-2.6539020145,-1.2816706298333334,0.74092807875
0 days 00:00:09.906096724,-0.44386858127500006,8.01775062125,-3.5916268227500003,-2.41749733725,-1.22440207,-0.38560841232500004
0 days 00:00:09.926096724,0.2153540403,7.357929707,-2.979064226,-0.965624465059,-1.2948042752499997,-3.3156213165
0 days 00:00:09.946096724,-1.6215361627833333,9.908279974833334,-3.791427612333333,-0.13805544026799998,-2.027842045,-4.5181086065
0 days 00:00:09.966096724,-4.426123798,12.043076514,2.792424023,-0.2712239623,-2.548298836,-4.352564335
0 days 00:00:09.986096724,3.2889348245,13.483555318,-7.176075220999999,-0.38331765428333336,-1.4990366303333333,-2.06599562395
0 days 00:00:10.006096724,2.8743782330000003,17.50648928,-27.21058035,-1.5705333647500002,3.805764019,-0.6971494518499999
0 days 00:00:10.026096724,-2.724826723,10.898110867749999,0.5527420074999991,-1.4495821,2.412533998,-0.1748600453
0 days 00:00:10.046096724,-2.608974337833333,7.320840835333333,4.080560089166667,1.8338160514999997,-1.6732350590000002,0.00015271454999999748
0 days 00:00:10.066096724,-2.26480668825,10.83529901475,4.2675990465,3.3735006455,-2.194149941,1.73699392385
0 days 00:00:10.086096724,3.9086756705000005,27.464818955,1.0372884275,3.917781074666666,-2.1705808043333334,1.8009820578333333
0 days 00:00:10.106096724,1.6654044685,21.693928239999998,1.0319048170000003,3.2830926028749996,-1.9650757015000002,1.002734512
0 days 00:00:10.126096724,-1.021735311,18.01795387,3.64426899,0.827263608625,-1.0527490675000002,-1.0056361850500002
0 days 00:00:10.146096724,-0.4849454066333334,10.051848729166666,2.262014985,0.9724966884,-2.567541003,-0.5902481078999999
0 days 00:00:10.166096724,-1.8478573262500002,8.6823570725,3.13100832675,0.7470875978,-2.873278856,-0.5120574236
0 days 00:00:10.186096724,-3.594019651,9.927821159,4.591826439,-0.50823949775,-1.4054726065166667,-0.06806052228666666
0 days 00:00:10.206096724,-2.77926343675,13.256835937249999,1.1605189284525,-0.8501710594,-1.161483034575,0.154701501125
0 days 00:00:10.226096724,-0.07238285244999998,16.3998086425,-4.6618166221825,-0.979674384025,-2.4137558345,-0.35002551969999995
0 days 00:00:10.246096724,-1.6638093891,12.068599702999999,-2.5375881984999986,-2.8148649334999996,-3.4835327864999996,-0.97142773885
0 days 00:00:10.266096724,-4.6917270425,7.328019261500001,9.596415045,-3.3800676464999997,6.184776544250001,-0.8904881180499999
0 days 00:00:10.286096724,-1.275374532,5.7702918055,-19.032511232500003,0.5000946124000002,2.000709335166667,0.4888445238166667
0 days 00:00:10.306096724,3.9266219735,6.02871668325,-2.92343103875,3.965581417,-1.73447418225,0.856432415525
0 days 00:00:10.326096724,-0.41395834075000004,5.36111915125,0.40677985550000006,5.181355,-2.4401756525,0.6840158476
0 days 00:00:10.346096724,-1.2438690115333333,8.475776751166666,2.3932214778333334,5.058571339,-3.200702429,1.314428329
0 days 00:00:10.366096724,1.6115661041,19.9316148725,4.9986066225000005,5.17494094375,-4.4578621985,2.41444301575
0 days 00:00:10.386096724,2.3413770499499997,20.651255605,5.7367924455,4.173122842833333,-3.159163626316667,2.4957389434999997
0 days 00:00:10.406096724,-1.650449440025,16.871791837499998,10.091131212,2.508210897,0.2299142331,2.815933943
0 days 00:00:10.426096724,-0.5784648769,19.6971173275,7.0893350845,1.89200102225,1.3068688250750002,3.0610434415
0 days 00:00:10.446096724,-1.6510476297,18.684753893333333,4.952744165833333,-0.6579013669999999,3.679773092,3.4222172499999997
0 days 00:00:10.466096724,-3.8829528692500004,14.334204436250001,-1.8113666767500003,-1.7550145387499998,0.19616399697499998,2.73056554825
0 days 00:00:10.486096724,-3.527020514,9.273384094,-8.090133309,-3.3445864318333336,-5.731107821116667,2.706589103
0 days 00:00:10.506096724,-2.64885464325,7.3316084145,4.28255444775,-3.1929901240000005,-6.358720541,2.5178319215
0 days 00:00:10.526096724,-3.7088751195,6.602396011250001,3.1345977187500003,-1.9346087871750002,-3.4603198172500003,2.048840463
0 days 00:00:10.546096724,-4.573481599166667,6.5423760411666665,0.9328020513666667,-0.35949391869999997,-4.334161877500001,1.2701405586499999
0 days 00:00:10.566096724,-4.7599226235,5.7158548835000005,2.4891338350000005,0.406988654275,-6.02534115325,0.8547525256749999
0 days 00:00:10.586096724,-4.530809641,4.692325114999999,3.0173493625000005,0.9526436674333333,-6.739034652833333,0.6545924941333333
0 days 00:00:10.606096724,-4.527818679499999,4.65942382775,2.13140675425,0.987310245425,-6.56351280225,0.6320923119499999
0 days 00:00:10.626096724,-5.41077029675,6.42233586275,1.81495594975,0.75411258635,-5.593154192,0.667522490025
0 days 00:00:10.646096724,-6.956732909,8.9531446295,-2.2193430465,0.12522728739999997,-5.0140545365,0.72677639125
0 days 00:00:10.666096724,-8.020143390000001,9.799805161750001,-6.6610200405,-0.3139844835,-4.822548389,0.7622065544
0 days 00:00:10.686096724,-6.397211432500001,8.977870464,-8.6416790485,-0.43289950986666664,-2.5767040564333334,0.549421981
0 days 00:00:10.706096724,-0.30388846985000006,7.8616187570000005,-3.6879379745,-0.711504757475,0.72731087555,0.05024363102500001
0 days 00:00:10.726096724,0.5347958802999999,7.18205702325,0.41515475525,-1.002429128,2.615341187,-0.4399753511
0 days 00:00:10.746096724,1.5549359125000002,8.144370476333334,5.451248685166667,-0.26786421255,1.3823106366,-0.4433351159
0 days 00:00:10.766096724,2.784647286,13.857434032500002,4.87358140925,0.820391423975,-0.656603258075,-0.8439096734
0 days 00:00:10.786096724,-0.6687939164999999,20.668005945,3.0963124635000003,1.5257366101666667,-2.46562839575,-2.168519109883333
0 days 00:00:10.806096724,-2.31505584675,16.4614236375,-14.516656908500002,1.052520021875,-3.6400668622500003,-2.2957825962499996
0 days 00:00:10.826096724,-2.33001101025,7.393822074000001,-1.6253249652500008,-1.2315033823750001,-5.76022589175,-1.7006475181
0 days 00:00:10.846096724,-2.3924237888333333,5.105087121166666,7.633901596,-2.078161955,-2.755382061,-0.8324559629
0 days 00:00:10.866096724,-2.85044991975,5.79362165975,8.180462598750001,-1.389106512,-1.187292099,-0.7490729094
0 days 00:00:10.886096724,-3.0185457469999997,7.6079797744999995,4.731806755,1.6789618334999998,-1.8909065526666666,0.08506293096666669
0 days 00:00:10.906096724,-2.11884442,11.854043246749999,-6.695715666249999,2.140928407335,-1.364442855,0.6534726173000001
0 days 00:00:10.926096724,-1.137188941275,11.73978591,-2.5992035047749997,0.02932151034,-1.179350853,0.651639998
0 days 00:00:10.946096724,-1.3643077216166668,8.990233501,2.9678976188833333,0.29413137772000003,-2.203160167,0.48487392069999996
0 days 00:00:10.966096724,-3.1262227895,7.757530808249999,2.309672087,0.6427824497000001,-2.8201336265,0.42027497295
0 days 00:00:10.986096724,-4.0331025125,8.994620323500001,1.6869399545,0.31337363273333335,-1.7101923625,0.6518436372166666
0 days 00:00:11.006096724,-3.73758888275,9.623334408,0.3284148964475,0.058948453525,-1.269300699275,0.6902772039
0 days 00:00:11.026096724,-3.6299119,9.678967476,-0.04546362907,-0.592080689975,-0.5669588893499999,0.61223920435
0 days 00:00:11.046096724,-1.7914265423883335,9.070392768,-1.4356935930783334,-1.10230547195,-0.8901063500499999,0.156534101825
0 days 00:00:11.066096724,0.4241278045025,10.518848179999999,-4.607380092,-1.306028843,-1.106047034,-0.07467821985
0 days 00:00:11.086096724,2.8223344084999997,9.8548402765,-8.1667038205,-1.4890847006666668,5.147375842,0.7093667127916667
0 days 00:00:11.106096724,3.35593384475,7.39262545125,-6.65623444325,-0.3185660242499999,2.626336753725,1.82969272175
0 days 00:00:11.126096724,4.9848477245,6.6101725105,-0.007776677750000016,1.936441302,0.4492146969,2.85686183
0 days 00:00:11.146096724,2.9320053258333334,8.926026265166668,2.0741783774999996,3.5647014974999998,-1.5996258260500003,2.7878341675
0 days 00:00:11.166096724,1.63908350455,11.39581823475,1.1581261155,5.5388636587499995,-5.0536078812500005,2.3202171922500003
0 days 00:00:11.186096724,-0.7812565863,17.672191620000003,0.0777667760000001,3.691761254833333,-2.8540366095,2.550309618
0 days 00:00:11.206096724,-2.7170500312,16.50987816,5.32522684375,2.6320635971,-1.258915961,2.7733261582499997
0 days 00:00:11.226096724,-3.314059258,16.01755524,6.36251545,0.13851359480000003,2.22851109475,3.16962462675
0 days 00:00:11.246096724,-5.914658785,13.928620971833332,-0.2057827311666666,-2.3267838955,1.96110498895,2.871828079
0 days 00:00:11.266096724,-6.006582975000001,10.34596705575,-1.0402797462499995,-3.316384792,0.7851903439,2.738965034
0 days 00:00:11.286096724,-4.342973232,11.60758305,4.991427898,-3.472053528,1.5353322926333333,2.4445281426666665
0 days 00:00:11.306096724,-1.0642079049075002,11.7493574625,-0.7226325274999998,-1.1291835734,0.19204060742500006,2.2889102995
0 days 00:00:11.326096724,-0.6945167807525,9.69152998875,-2.09431800225,-0.0268780496,-1.35283637,1.833052516
0 days 00:00:11.346096724,-1.5876378315999997,6.650850375,-1.1150553425,0.2107483493,-1.7199661730000002,1.2234094440999999
0 days 00:00:11.366096724,-1.7527425884999999,5.3778687115,-1.0821540356,0.4483747482,-2.087095976,0.6137663722
0 days 00:00:11.386096724,-2.4478574995,2.4598216415,-1.1940184831499998,-0.08979711931666666,-1.8087452055000002,-0.6453277170333332
0 days 00:00:11.406096724,-3.80518603325,1.5104693175,-0.640080064525,-0.492662444725,-1.72867098475,-1.075885564
0 days 00:00:11.426096724,-4.060619831,1.361516118,-0.5455635786,-0.784808531425,-1.640401006,-1.2570069729999997
0 days 00:00:11.446096724,-2.399203518666667,5.3647084435,-0.5822535256333333,-0.92026779055,-1.238604724,-1.9353722929999997
0 days 00:00:11.466096724,-1.42253306475,10.18205833575,-1.781456515,-0.7524326890749999,-1.074587524,-2.83135819425
0 days 00:00:11.486096724,-1.505085468,11.27498055,-0.866201818,-0.3684532778833334,-0.9885574082666668,-3.1780748765
0 days 00:00:11.506096724,0.3308077455,10.4207427525,-0.433699101175,-0.20754130367499998,-1.0805434436499999,-2.72995460075
0 days 00:00:11.526096724,3.02811706075,6.69212663225,0.20398813489999998,-0.513279125075,-1.62344950475,-2.302654684
0 days 00:00:11.546096724,2.571087917,2.2536401348333333,1.3168500364,-0.8506292405,-2.5006513595000004,-2.032194376
0 days 00:00:11.566096724,2.5202403665,0.980459094,-0.5635097920749998,-1.4953970315,-3.27064639325,-1.64811319075
0 days 00:00:11.586096724,2.829512715,2.5387848615,-0.483350277,-2.8779875835,-0.14424045877333333,-1.7465133471666665
0 days 00:00:11.606096724,-0.16151554894999998,7.1784677505,-0.20398810474999984,-2.77332612875,1.76654454433,-1.483790546925
0 days 00:00:11.626096724,-2.7960132808999996,11.78943729125,-1.472782284,-1.572518706575,-0.0513890003825,-0.5213730931
0 days 00:00:11.646096724,-8.021937884333333,19.586848736666667,-0.18903299173333332,-0.75808319445,0.30382886155499994,1.65803968885
0 days 00:00:11.666096724,-1.2598211316749999,13.3704943625,-1.0492528079999999,-0.5676460861749999,0.123012890105,2.23988837025
0 days 00:00:11.686096724,0.23210380225000002,14.78764391,4.182654023,-0.4045961052,-0.3102938588433333,1.1245511373333332
0 days 00:00:11.706096724,0.06939185689249999,17.2169568575,2.559123844,-0.23838998004999998,0.12499821179999995,0.5189296305000001
0 days 00:00:11.726096724,-0.5006981221775,12.931411745000002,-0.59700927125,0.09178243575,1.611843109,-0.563980884825
0 days 00:00:11.746096724,1.2522438860833331,8.266404788166666,1.2785648901666666,0.12125665694999999,1.1058943274,0.17699806395000003
0 days 00:00:11.766096724,3.1818559764999996,8.104490280499999,1.98365004395,0.3518581092,0.5335140228,0.6027708054
0 days 00:00:11.786096724,3.5485559700000002,9.232706069999999,-1.1318050921,0.9177225580333334,1.9811616741333333,1.8755075534000003
0 days 00:00:11.806096724,2.4885355234999995,6.91705203025,-0.5629115178999999,1.21409374475,1.7934226544,2.780961871
0 days 00:00:11.826096724,1.236491099025,5.619543791,-1.19162570705,1.583361506,0.7222712636,3.559356451
0 days 00:00:11.846096724,-1.5956138867166667,7.106284300333333,-0.24526433159999997,1.6887356635,0.53595750035,4.057211280000001
0 days 00:00:11.866096724,-3.4115668535,12.9972140775,2.83549475645,1.723554939,0.64102625105,4.4588549135
0 days 00:00:11.886096724,-7.142575502500001,18.153148650000002,0.2931208014,0.5219839613,0.7531199032833333,3.8886125089999997
0 days 00:00:11.906096724,-7.462017417,15.5635166175,-0.05084747824999997,-0.7738129495999999,-0.049250971525000006,2.969566405
0 days 00:00:11.926096724,-5.395815253249999,10.00558781675,-2.20259320025,-1.1696533857499998,-0.8678097575749999,2.377791166
0 days 00:00:11.946096724,-1.8807586655666668,10.260822138166667,-3.7898322341666666,-1.518304467,-0.51442450275,0.45097091780000004
0 days 00:00:11.966096724,0.3996013887,10.25803089,-5.38624382,-1.10459624215,-0.06253727897499999,-2.6028948276
0 days 00:00:11.986096724,1.2299108505,7.3256266115,-1.4177473483999998,-0.6791798288916667,-0.6628646478166667,-3.9892016248333335
0 days 00:00:12.006096724,0.3643072508175,5.1577291487500005,-0.11605189737500002,0.13515383796249997,-1.088790103875,-4.62928617
0 days 00:00:12.026096724,-0.5898307823025,4.57088959225,-1.198205947975,0.5681042671,-1.753563762,-4.64944458
0 days 00:00:12.046096724,-1.0879366748,6.602196534166666,-0.13918250793333323,0.07605268059999998,-1.4542399645000001,-4.1100509165
0 days 00:00:12.066096724,1.237687475975,8.0093755725,1.4883357736750003,-0.760526664575,-0.85208001725,-3.1496187444999997
0 days 00:00:12.086096724,5.6709895135,10.13479996,-4.15633288015,-0.5714639922166667,-2.5598034065,-3.128900289166667
0 days 00:00:12.106096724,3.06400936875,10.776076557500001,-0.42592245299999965,-1.1227694451249999,-2.7779839634999997,-3.02332252225
0 days 00:00:12.126096724,-1.7539389132499998,11.679367302500001,7.3932240605,-2.6754350065,-1.7637957660275,-2.097709715025
0 days 00:00:12.146096724,-0.7864409684999999,13.988839624999999,6.533203284166667,-1.28984099645,1.572900467945,0.35139995794999995
0 days 00:00:12.166096724,3.42771851975,15.45942831325,-6.530013084749999,-1.8582506477249998,2.4827836155,1.20340365175
0 days 00:00:12.186096724,-2.898904562,10.1144614215,0.9032905099999997,-1.8686353516666667,0.4485020240333333,1.1590650579666668
0 days 00:00:12.206096724,-7.0809606315,15.287744285,6.934998274,0.16187914450000002,-0.13187041874999994,1.0051779896
0 days 00:00:12.226096724,-5.308477163499999,18.9702978125,1.0588240176750001,1.4760019777500002,1.5701515675,1.21516272425
0 days 00:00:12.246096724,0.8785647156666666,13.680963517,-0.9160522320166665,1.2220349910000001,0.7977130412000001,0.8223766683
0 days 00:00:12.266096724,3.4432718157499997,8.87737202625,2.4634109737500003,1.03449952575,1.01624989485,0.4717403203
0 days 00:00:12.286096724,3.3583265544999996,5.324030280500001,0.39840500074999996,0.9293289678333334,1.4313834108333332,0.7082468171666667
0 days 00:00:12.306096724,2.17148655675,1.334596797925,-0.6705885604249999,0.57574005425,2.2987605035,2.22629672275
0 days 00:00:12.326096724,0.040079757624999934,-0.34875391424999996,0.8434699479000001,1.0786345005000002,1.024802067985,2.53905940025
0 days 00:00:12.346096724,-0.8183453580166667,-0.3505485355833333,1.3607184688833334,1.847865939,0.05765036494,2.7255258559999995
0 days 00:00:12.366096724,-2.531606277,2.5363919338,1.2227323848666667,1.863748431,0.47242755196,2.8757986226666667
0 days 00:00:12.386096724,-8.2600235955,10.767701624499999,0.1866402625000001,1.0433570443,1.224096656,3.9570292235
0 days 00:00:12.406096724,-9.456434727249999,20.40060782,-3.9631124134999998,-0.27076582605,0.6265181752,4.461450756
0 days 00:00:12.426096724,1.1395817994999997,28.508687495,-5.739185214,-2.02807110525,-1.2076033204,2.45323297425
0 days 00:00:12.446096724,3.8201413212766666,16.794025662,-0.17667008450000002,-3.0775368210000003,-1.3592504856499998,-2.0651810765
0 days 00:00:12.466096724,-0.43728834850500004,6.50488829575,-0.266201517575,-1.60581082125,-0.030619598925000005,-4.486649215
0 days 00:00:12.486096724,-1.8556340335000001,4.601397872,-0.1591227036,0.055792316716666644,-2.8348961818,-4.868439435833333
0 days 00:00:12.506096724,-1.3178470730000003,1.949552268,-0.816550709275,0.186161041225,-4.4807695152500004,-4.341721237
0 days 00:00:12.526096724,0.8003992139999999,0.8560323269000001,-0.32422746155000004,-0.7261654809,-4.07897317425,-3.6132650972500002
0 days 00:00:12.546096724,2.2002004581666665,1.9373887080333334,1.0249256612833333,-1.9181153775000002,-0.4707476499999999,-3.045313597
0 days 00:00:12.566096724,3.44865570965,7.4620172975,-1.6031912062749998,-2.0961824655,2.28761217025,-2.8388412595
0 days 00:00:12.586096724,0.8877372146,10.61695385,-6.039484501,-1.7622430743666666,-0.1301905710333333,-1.9683590723140003
0 days 00:00:12.606096724,-5.26600445785,14.956338169999999,2.43469703225,-0.05268708987500001,-1.4866158365,0.517555180587
0 days 00:00:12.626096724,-1.58345039925,20.16611052,1.2538390775275,0.454025238725,1.2581523357500002,2.0983204837500002
0 days 00:00:12.646096724,2.0917257255683332,18.80639013,-0.331007129205,0.24831653760000003,0.8978948594,1.4515673815
0 days 00:00:12.666096724,-0.7974081169424999,13.9088799975,1.4255241452499998,0.163100896375,-0.030466880650000014,0.500603675825
0 days 00:00:12.686096724,-3.0532416105,12.190234660000002,2.331805706,0.2938259591333333,-0.004759651933333331,0.5469785034166667
0 days 00:00:12.706096724,-1.1024930179499999,10.529017925000002,1.5870396494999999,0.8619302064500001,0.9913572073,1.3267983495
0 days 00:00:12.726096724,1.0510473546,9.8512508865,1.97407871475,0.89002999665,2.46186143175,1.474627614
0 days 00:00:12.746096724,2.1359930036666666,8.315457423833335,-1.163709402,0.8643736838999999,3.648924351,1.6253584620000001
0 days 00:00:12.766096724,3.66580432675,5.83250510725,-2.07816654465,0.59910562635,2.4664428232500004,2.3657265599999997
0 days 00:00:12.786096724,3.1860432625,3.7184463740000004,0.256032010545,1.0665699045833335,1.3432152566166666,2.752607623333333
0 days 00:00:12.806096724,0.40378879757499997,2.76191550525,-0.1716850260525,1.693317175,0.9452368617,2.78355813
0 days 00:00:12.826096724,-2.3670998442249997,4.607978224749999,-1.7156538555749998,1.7154610157499999,0.606359630825,2.8773258327499995
0 days 00:00:12.846096724,-5.448457281166667,11.688141104333333,2.981457034666667,1.4517201185,-0.06940951939999997,3.357465506
0 days 00:00:12.866096724,-7.611568689249999,15.89193153,1.7635103165,0.2858847079395,1.0411426725,3.7377288342500004
0 days 00:00:12.886096724,-6.731009959999999,17.51306915,-2.1894326805,-0.23070326801166666,1.074434808355,3.5301365851666664
0 days 00:00:12.906096724,-4.79521656,17.43649864,-3.292523861,-1.5120430587499998,-0.029703299397750002,1.372307628
0 days 00:00:12.926096724,1.27417808775,15.1537456525,-5.347360253,-1.785557747,0.006948587019,-1.080161691
0 days 00:00:12.946096724,3.0564321478333336,12.934003831833335,-5.107479795416666,-1.7855577469999997,0.0069485870189999995,-1.080161691
0 days 00:00:12.966096724,1.852044702,5.639883041,-0.4833501875,-0.20952662082499993,-1.2355504044952499,-4.606073052
0 days 00:00:12.986096724,0.5000999274,5.3276195525,0.51804606625,0.46201738532000003,-2.685946961166666,-5.385129372000001
0 days 00:00:13.006096724,-2.53878475755,6.0041903255,0.496510688275,-0.05070177838,-1.032743216,-4.439918041
0 days 00:00:13.026096724,-0.001794636500000002,7.49671351925,-0.257228437825,-0.36987862078500006,-0.8189405578750001,-3.9394670722500003
0 days 00:00:13.046096724,7.0161549655,9.51067241,-2.9870401718333333,-1.3894119260000002,-1.8186207562499999,-2.4057382345
0 days 00:00:13.066096724,9.366704466249999,9.34756195525,-3.9840495584999998,-2.8519749340000002,-3.58707433925,-2.7311764955
0 days 00:00:13.086096724,2.46221452945,7.99800992,6.197410821999999,-3.176293214333333,-1.6277255813333333,-2.3977970285
0 days 00:00:13.106096724,-3.656233042775,12.9906344415,4.6079781650000005,-1.474474835145,1.9322416485000002,-0.49999281774999993
0 days 00:00:13.126096724,-6.18963396525,17.833706855000003,-5.9671011565,0.04886918142,2.039906502,1.321147799
0 days 00:00:13.146096724,-2.183051848033333,14.274383068333334,-2.2360926864999997,-0.29077163898999997,1.6575052144999998,2.2368341085
0 days 00:00:13.166096724,-0.36969109065,14.147563932499999,3.09391975375,0.480139732375,0.2236528807,2.2815799712500002
0 days 00:00:13.186096724,-1.8400805589999998,16.514065265,3.495913863,1.92340956105,-0.7621301487333333,0.9181806743333333
0 days 00:00:13.206096724,-5.135595619249999,15.250056507499998,-0.22073787474999995,2.24049925775,-0.8484147936249999,0.56795153025
0 days 00:00:13.226096724,-2.34018054625,11.19661546,-1.0636096448499999,2.3593124149999998,-0.7541889101250001,0.21212279799999997
0 days 00:00:13.246096724,3.8045879405,7.625128349000001,1.4564313792000003,1.3891065121,-0.14210242035000006,0.4625773728
0 days 00:00:13.266096724,4.091726661,5.3527442815,2.8917260765000004,0.669049635525,2.4313181195249998,0.797789394875
0 days 00:00:13.286096724,1.6654045581499999,2.1092731955,0.27517455799999996,0.67225667835,3.1954591275,1.1070397295833334
0 days 00:00:13.306096724,0.787836834775,0.26560332326700004,-4.5702913105,0.68065607545,2.4227660001999998,1.4309507909999999
0 days 00:00:13.326096724,-0.025124654200000013,-0.33439697178600003,-1.15393874045,0.6507237255,0.6595048755,1.5137229267499999
0 days 00:00:13.346096724,-1.6741782823999998,1.0532407362833334,1.6873387099,1.3338232635,0.210366562,1.5209006075
0 days 00:00:13.366096724,-6.7639114857500005,5.1972106692499995,0.8195417522,1.9042181669999998,-0.24793473632500002,2.027918309
0 days 00:00:13.386096724,-7.13061142,14.327025415499998,0.05024927855000002,1.6373211591999999,-0.2677369366166667,2.420195301333333
0 days 00:00:13.406096724,-1.0115657598749999,27.36910486,-1.291526019925,-0.5148062781,0.37010768805,3.21437054875
0 days 00:00:13.426096724,-0.214755818225,20.484355925000003,-6.11067080475,-1.63543769725,0.46097381787499997,1.551902010975
0 days 00:00:13.446096724,1.8049858410333333,13.300903635,-5.527021408166667,-2.9920156,-0.1598175019,-0.5450441241
0 days 00:00:13.466096724,0.9068797825,8.784649968,-2.8767710623,-1.07832902665,-0.7237984054,-3.342957422025
0 days 00:00:13.486096724,-1.6426727175,7.4404819015,0.29790639890000004,0.39370234806666665,-2.837848782316667,-4.157596429333333
0 days 00:00:13.506096724,-0.773479908775,5.95274448425,0.3625126239575,1.021365881,-5.059564114,-3.65801096
0 days 00:00:13.526096724,0.14297115800000001,3.90807747875,-2.0811575635975,1.021365881,-5.059564114,-3.65801096
0 days 00:00:13.546096724,2.7996024689833336,3.1641091503333336,0.8211369313333333,-0.3732383845,-3.4685666564999997,-3.2673629524999996
0 days 00:00:13.566096724,7.28853785975,5.215754985499999,-3.1334013042500004,-1.83748129,1.2634974715,-3.0109525325
0 days 00:00:13.586096724,-0.9786646365000001,7.6558358664999995,-3.2327035664999997,-1.442760805,-0.05810848875,-2.185725093333333
0 days 00:00:13.606096724,-4.86520683725,10.7850499155,3.08375024825,-0.5907062289999999,-0.9916626213749999,-1.167820752
0 days 00:00:13.626096724,-2.80438816525,14.895918604999999,-0.3541377187500001,1.6539164185000002,-2.034714311,1.42865997575
0 days 00:00:13.646096724,-0.5435695251,17.911473595,-1.840878248,0.9856303187000001,-0.7294489144499999,1.0615302922499998
0 days 00:00:13.666096724,0.4570291040000001,22.90948153,2.5375884175,0.57344933595,-0.76381003855,-0.13622283935
0 days 00:00:13.686096724,-1.6426727774999998,18.290736199999998,2.03270277395,1.2668317556333333,-1.9848778051833336,-1.0902409352166667
0 days 00:00:13.706096724,0.467796832,14.0524489875,-0.03708875182499999,1.15865773675,-2.1683409515000003,-1.1386519075
0 days 00:00:13.726096724,1.65164583925,11.970095395000001,0.79262249165,0.25274529158049996,-0.47166398914999996,-1.058628633325
0 days 00:00:13.746096724,2.2887348131666667,9.907482465,3.176073313,-0.21594070198899998,1.6135229917,-0.5832231566
0 days 00:00:13.766096724,2.559722006,8.73858857175,1.9148563745,-0.216856993725,4.8697376845,0.844673264775
0 days 00:00:13.786096724,3.3236306905,4.790431023,-6.3744796515,-1.0332777598666665,3.911290824333333,2.3199116390000003
0 days 00:00:13.806096724,2.17088833425,0.19262224447499993,-3.36849617975,-1.3915499301,1.518380761025,2.99888789675
0 days 00:00:13.826096724,1.2430713770000001,-1.585843205175,0.27637101704999995,-0.22785253830000007,0.220751255825,3.34219384175
0 days 00:00:13.846096724,-0.27517457805,-0.14995022613333334,2.5599214537333332,1.602909207,-1.205007076,3.341277599
0 days 00:00:13.866096724,-1.3142578303249999,2.8468607365,4.9088755847500005,2.9956808384999998,-1.78548136375,3.455814719
0 days 00:00:13.886096724,-3.4516466855,9.109476088500001,4.286741734,3.359654545666667,-0.9756274025000001,3.7480117479999997
0 days 00:00:13.906096724,-5.8815582395,20.3019044375,-2.4029921885,1.2027927933,-1.56847167,3.9939867857499998
0 days 00:00:13.926096724,-4.6348974707499995,21.11127615,-0.032901346749999894,-0.6655371488499999,-1.78089988225,3.3538003565
0 days 00:00:13.946096724,-3.6973096926666664,13.057234445666666,-4.870590607333333,-1.8283182385000003,-2.081903577,2.070984304
0 days 00:00:13.966096724,-1.8472590000750002,7.9579296115,-5.95992302925,-2.587012291,-2.575787783,1.408501506
0 days 00:00:13.986096724,2.37726923835,3.471985817,-3.1369904280000003,-1.46627904475,-0.7574468702666666,-2.1438808241666667
0 days 00:00:14.006096724,2.2354945537499997,4.3142591715,-4.95673221375,0.04459313302500001,0.04085157815000001,-4.10776013125
0 days 00:00:14.026096724,0.20039891437500004,7.6995047327499995,-2.8504500095,0.5430588126,-0.2166279256,-4.67632246
0 days 00:00:14.046096724,-2.2851456380166666,9.694520792833332,1.9984056551666665,0.5568032562499999,-2.3210570068000003,-3.71268332
0 days 00:00:14.066096724,2.3515464252999996,10.149157048,1.58823600425,0.26175555955,-4.8501899245,-2.1080943045
0 days 00:00:14.086096724,3.2195428609999994,12.78365469,-2.356930256,-2.657669079816667,3.8498990140000005,-1.8189008033333334
0 days 00:00:14.106096724,-6.0035918355,14.2911331625,-1.0600203872249998,-1.729969025,2.585408926,-1.199280262
0 days 00:00:14.126096724,-7.000800847999999,13.1042933475,-1.001396238575,-0.3885099890000001,1.08481955525,-1.0305288732
0 days 00:00:14.146096724,-5.972485383333333,13.886347613333333,-0.8929216065,3.635867119,-3.416948557,-0.5242747068
0 days 00:00:14.166096724,0.28534400449999975,21.544975280000003,2.9258239267499997,3.29317200175,-4.582936823500001,0.38423392177500004
0 days 00:00:14.186096724,2.6237299144499997,20.83311081,3.8883367779999998,2.621424317166667,-3.332649270833334,0.06093375633333333
0 days 00:00:14.206096724,-0.45044884085000003,14.958132745,1.0713863225,1.740964650875,-1.6457461119999999,-0.41157014294999994
0 days 00:00:14.226096724,-0.5694918036500001,13.637892725,1.06540425125,0.7110465988750001,-1.6422336105,-0.1550069376625
0 days 00:00:14.246096724,-2.33140690125,11.593624749333332,5.044070283333333,-0.4954113513,-0.8516218812999999,-0.011759147045000001
0 days 00:00:14.266096724,-3.8267217872500003,10.228718757,4.147359937175,-1.4663808941499998,0.9977712256,0.41783152148999997
0 days 00:00:14.286096724,-1.6283158359500003,13.052847385,-2.08295208215,-1.5607594648333334,0.6477457383333333,0.64512409765
0 days 00:00:14.306096724,2.052443549025,14.238491060000001,-8.896514652,-1.9010111689999998,-0.992120728,0.23258674150000003
0 days 00:00:14.326096724,1.35373939575,10.57926678725,-3.6329030387500003,-3.07891124525,-4.45328050875,-1.09390613425
0 days 00:00:14.346096724,2.285544504666667,7.544968605333334,-20.481365324833334,-1.2351685764,0.755257964,-0.25915938635
0 days 00:00:14.366096724,2.7032914165,7.657630682,-4.50927424425,0.8765909672,3.023398876,0.6461422443
0 days 00:00:14.386096724,1.13300150625,3.592823267,1.601994819695,4.3722647427,-1.8643337886666664,-0.024180055325000005
0 days 00:00:14.406096724,-1.293320596375,2.73858553175,0.3427718542225,4.904480695749999,-2.7007095815,0.22357649821249995
0 days 00:00:14.426096724,-1.524227977,4.73719078325,1.423729516625,4.761385441,-5.221443176499999,1.3755147457499999
0 days 00:00:14.446096724,2.0725831388333336,17.220746361166665,6.158327897333334,4.9443395135,-7.66184783,2.4567455055
0 days 00:00:14.466096724,2.9431717100249997,28.0887470225,8.898308992,4.209621906,-4.32133370625,2.5396704075
0 days 00:00:14.486096724,-1.31246322395,22.999812125000002,8.8977110385,2.1842488897683334,2.614933928,3.533394574833333
0 days 00:00:14.506096724,0.11006984112499996,21.923639299999998,1.671984814175,-0.26221371454250003,5.6986812352500005,3.6062402127500004
0 days 00:00:14.526096724,-1.8903298081250002,18.745372295,-0.231505591425,-1.4054471555,4.0093347728249995,2.82906746825
0 days 00:00:14.546096724,-3.324029524833333,13.426925343166666,-3.1070801342000003,-2.318537235,-1.53212517485,1.9888229965
0 days 00:00:14.566096724,-3.0442686675,8.614161611,-3.9565322397499996,-3.20276397475,-5.330787718,2.06075230275
0 days 00:00:14.586096724,-3.4480574130000003,6.937989235,2.2468604704649997,-2.857014616166667,-3.7508878709999998,1.9402592183333336
0 days 00:00:14.606096724,-3.8823546765000003,6.01914536925,-0.2895315456925,-1.0354157796824999,-3.2054365875000004,1.3437497617499998
0 days 00:00:14.626096724,-4.037290156,6.335596084750001,1.9172492027749999,0.1140789948525,-5.45326638175,0.921794966
0 days 00:00:14.646096724,-3.883950034833333,5.239882667833334,3.6869409484999998,0.7092140019,-6.375366687500001,0.62231850625
0 days 00:00:14.666096724,-3.42353105525,3.7094733712499997,3.3332018855000003,0.98318685555,-5.82635188125,0.493731461475
0 days 00:00:14.686096724,-4.4697927235,4.0677984955,3.1142586469999998,1.10617433,-4.768079678166667,0.6217076232166666
0 days 00:00:14.706096724,-5.77268457375,7.683353543750001,1.228116199475,1.065959081075,-3.776442468,0.825583756
0 days 00:00:14.726096724,-6.440880417500001,11.048858883250002,-5.901298806175,0.5757400616749999,-4.088441551,0.8058833479749999
0 days 00:00:14.746096724,-6.057829221333333,11.251451175166666,-4.922833850283333,-0.4440986812,-5.423028468999999,0.709672153
0 days 00:00:14.766096724,-4.721637368,8.61655414125,-2.239083811525,-1.46897711605,-6.36727261525,0.614377245325
0 days 00:00:14.786096724,-1.734796524,6.0011992455000005,-6.634100914,-1.47615478465,-3.4807838598333336,0.61651528375
0 days 00:00:14.806096724,1.82273265725,5.98265469075,-1.862214274825,-0.8130609989,3.198717117,0.4268417656
0 days 00:00:14.826096724,-0.016749739624999982,4.932205558,2.9976085202250005,-0.501519970575,2.8150940237500004,0.307875849275
0 days 00:00:14.846096724,-0.36570305628333327,9.739984274666668,3.2478578485000003,0.9611957221999999,-0.1873064635,-0.15531237425
0 days 00:00:14.866096724,-1.0785648077499999,21.304495815000003,3.0873393712499997,2.058308959,-3.0165266392500003,-1.0670280379500001
0 days 00:00:14.886096724,-3.9792640804999997,21.42174435,-3.6825541855000004,1.8328998660166669,-3.612628857166667,-1.4360921776666666
0 days 00:00:14.906096724,-2.4670001865,10.030114294499999,1.27357971625,-0.595593165675,-4.005211442749999,-1.757305294
0 days 00:00:14.926096724,-1.833500385,6.152545333000001,5.9814584257500005,-1.277623709475,-0.978834449975,-1.0661118031749999
0 days 00:00:14.946096724,-1.3838491236666668,5.876772403666667,4.585046966833333,0.6041452960499999,-1.08894282595,-0.37461283805
0 days 00:00:14.966096724,-0.6490531411499999,8.382057668,-3.12622278925,1.133001447,-1.652618289,0.005345066077500002
0 days 00:00:14.986096724,0.8697910309,12.90209961,-1.72761798645,-0.25513788058333337,-2.0253985726666666,-0.014609849079999999
0 days 00:00:15.006096724,0.19621144733333332,11.07717355,1.8025930670333332,-0.6466343005222223,-2.6747478115555556,-0.005379002542222219
0 days 00:00:15.026096724,-0.6364908218,7.479963779,2.711068153,-0.7527890205333333,-2.7468299073333333,0.17618359253666668
0 days 00:00:15.046096724,-1.4189438816333333,6.619743903500001,3.1102706196666667,-0.8261946142,-1.8494695425000003,0.3669770211
0 days 00:00:15.066096724,-2.3461626767499997,6.72502815725,2.20079857115,-0.871704042,-1.095662355,0.4439459741
0 days 00:00:15.086096724,-3.139383316,8.9347999075,0.80398839715,-1.0153590343333334,-0.7974585393166667,0.7716749261166665
0 days 00:00:15.106096724,-3.494717419,11.6057882325,0.7926225066,-1.0803143385,-0.9730312376249999,0.74235342445
0 days 00:00:15.126096724,-3.62392979825,12.01555896,-0.019740775200000005,-1.080008924,-1.48921194625,0.47494734824999996
0 days 00:00:15.146096724,-1.82014040274,10.928419749666666,-2.0705891943166668,-1.4685189124999998,-2.2529456615,-0.10797035695
0 days 00:00:15.166096724,-0.155533468355,9.8422772885,-3.62991196625,-1.969733447,-2.2332451942500002,-0.6611083895000001
0 days 00:00:15.186096724,-0.8506484329999999,10.776076795,0.2679961175,-0.19527308160000004,0.809726715,-0.42999788125
0 days 00:00:15.206096724,0.9397810845250001,9.85244727225,-5.401198893749999,3.093419313,2.68070364,0.5215258002
0 days 00:00:15.226096724,1.217348516,8.564510106750001,-6.61914575125,3.12457340925,1.721035093,0.621860340225
0 days 00:00:15.246096724,0.4211367766333334,8.637690543833335,1.7399808170000002,3.5198029280000003,-1.0745874943,1.38101255915
0 days 00:00:15.266096724,0.189032983025,10.006783962250001,3.1280173513,4.4588546155,-0.35850126299999996,2.5612032415
0 days 00:00:15.286096724,0.2548356131,13.66780281,1.0803594290999998,4.635750849833333,-0.45170905699999997,2.8530947764999994
0 days 00:00:15.306096724,0.4067798555,14.59382534,1.464407444,4.458091259,-1.972253323,3.109148979
0 days 00:00:15.326096724,-0.944566733875,17.0057899925,2.45503610375,3.7336055934999997,-1.720271602575,2.86938458675
0 days 00:00:15.346096724,-2.1730816958333334,17.457634606666666,2.4769702551666666,0.8124501333799999,-0.13110685350000004,2.1586434845
0 days 00:00:15.366096724,-4.187439442,13.30409431,1.892722726,-1.44072454056,2.5704425723249997,2.39031386375
0 days 00:00:15.386096724,-4.832305193,10.971092222000001,-1.643869102,-3.1408631009999994,3.0085344709999995,2.871217211333333
0 days 00:00:15.406096724,-3.69511628175,10.165309190999999,-3.014358282,-3.06516683125,2.2301909325000002,2.83380162725
0 days 00:00:15.426096724,-1.721037686,10.4051892775,-1.664208114,-1.8576398639749998,1.25922142005,2.6094616055
0 days 00:00:15.446096724,-0.11286147187666669,9.283353964666667,0.0031904380000000176,-0.48258318005,-1.0208313764,2.1378740075000002
0 days 00:00:15.466096724,0.28295128422500004,7.578069210250001,0.43429731574999997,-0.16401718932499998,-1.62268593925,1.3377938569999999
0 days 00:00:15.486096724,-0.6101697608,4.1252263785,-0.5527420193,-0.11219549429999999,-1.7352377575,0.7324777618166666
0 days 00:00:15.506096724,-1.6989040972499998,2.1439691187500003,-0.829113021525,-0.182648569325,-1.978209168,0.1472184154975
0 days 00:00:15.526096724,-2.315055877,1.6079768537499999,-0.11665010079999999,-0.3814850673,-2.00081115975,-0.1333212386825
0 days 00:00:15.546096724,-2.8442685203333333,1.6917256120000002,0.7601200018,-0.49907654525000006,-1.7147738335,-0.297338441
0 days 00:00:15.566096724,-2.490928471,2.3587248922499997,-1.273579850925,-0.62537284195,-1.5615994632499999,-0.5039634332
0 days 00:00:15.586096724,-1.956132591,3.646661639,-3.0424740315,-0.93370680025,-2.398229638666667,-1.0912589830000001
0 days 00:00:15.606096724,-2.08893415325,6.9032931325,-3.0741788145,-1.069776937725,-3.4930012225000002,-1.98164531575
0 days 00:00:15.626096724,-1.292124211725,9.236893534250001,-2.6189442872499997,-0.6750055849500001,-3.28332185725,-2.3533565997499997
0 days 00:00:15.646096724,-0.1728814365175,10.526026963,-2.2034905851750004,-0.5842921734125001,-1.0283145364375,-2.376645773625
0 days 00:00:15.666096724,0.05982056633,11.78225899,-0.1698904037,-0.8598939976666667,0.2944622932666666,-2.076074799
0 days 00:00:15.686096724,-0.34935211019500007,9.8440723435,1.521835208,-0.9651324189277778,1.308565710711111,-1.5902676519333332
0 days 00:00:15.706096724,0.7597211654775,7.95194768925,0.95772723855,-0.8478803039,2.031354427,-0.9628756046
0 days 00:00:15.726096724,0.8470592051250001,5.185844898500001,-4.7796631306499995,-1.253799930175,2.00279650075,-0.930194333175
0 days 00:00:15.746096724,-1.08634144805,6.617351055,-0.35134609533333333,-2.5891503095,2.2613450885,-0.8300125003000001
0 days 00:00:15.766096724,-0.11006984115000001,14.95693612,3.4815570119999997,-1.2493711859249998,1.5715259910000001,-0.973565772425
0 days 00:00:15.786096724,-0.9044869171000002,20.307886125,-1.8317056891999999,-0.5283980369833333,-2.525900482833333,-1.2018255193333334
0 days 00:00:15.806096724,-0.07657031720000002,17.430516245,2.6823541521500003,-0.550847321775,-1.4374412294999999,-0.906065150985
0 days 00:00:15.826096724,0.5814558864,15.92901993,3.290131092,-0.5419897902749999,3.35754194875,0.22663083672
0 days 00:00:15.846096724,0.2887339492,7.984051386833333,-0.48494542663333334,0.34269514305,0.012751817500000096,0.6336194873
0 days 00:00:15.866096724,-1.8305093052499999,8.19302487475,0.40378881990000004,0.5754346251,-1.165911794,0.6278162599
0 days 00:00:15.886096724,-1.98006078605,18.326629165,0.08015954499999989,0.8389209608166667,-1.5264237918333334,0.6434951325333333
0 days 00:00:15.906096724,0.12622140347500002,18.480368140000003,-2.62133729425,0.7269290686,-2.011959553,0.2820668221
0 days 00:00:15.926096724,-0.9517452122500001,10.865209341749999,-0.0681954770499999,0.36606070402499996,-1.519297097055,0.21517712626500002
0 days 00:00:15.946096724,-1.3780664703083334,7.1170519988333325,1.2446665963,-0.55741411445,0.12209660558999999,0.10674861818
0 days 00:00:15.966096724,-0.9196415344666667,6.545965035666667,1.72602276,0.2535088956,-0.1891390085,0.1434005052
0 days 00:00:15.986096724,-1.63070869435,8.8678004735,0.52043893925,0.48930270471666665,0.012853611886666672,-0.14258602506666665
0 days 00:00:16.006096724,-1.061216875825,11.962318419999999,-1.925025806125,0.2541197464,0.1909715943,-0.3353647664
0 days 00:00:16.026096724,-0.6472585201500001,9.29192829125,-0.733400140025,-0.26679518820000003,-0.346131254,-0.579252511225
0 days 00:00:16.046096724,-0.08015956481666668,7.064808765833334,0.1339980687,-0.4276053309,-0.9142354727,-0.7460185885
0 days 00:00:16.066096724,0.9996016323,5.78883612175,0.513858661025,-0.5577195585000001,-0.66546081005,-0.824820145975
0 days 00:00:16.086096724,1.4811571835,5.809773445,0.74297142025,-0.6767363548,0.08289944130000002,-0.9068796833666667
0 days 00:00:16.106096724,1.73659098175,6.885945439,1.022333443425,-0.5711585879,0.2971093655,-0.9928079844
0 days 00:00:16.126096724,2.483151615,8.135596871,-1.4374881985,-0.6974548846749999,0.760755717875,-0.9498947262999999
0 days 00:00:16.146096724,2.054637034666667,8.458627701,-1.0193424424666666,-1.1866048574999999,2.200869441,-0.5688678175
0 days 00:00:16.166096724,2.28215456025,8.014161228750002,0.002991020649999898,-0.8762855082500001,3.022940695,0.33857177944999994
0 days 00:00:16.186096724,0.91884391025,7.8831541535000005,-2.450250447,-0.3110319673333333,2.915072142833333,0.9618574579999999
0 days 00:00:16.206096724,-1.969891287125,10.899904965249998,-2.7750760915,2.12977999475,0.732350528025,3.325853169
0 days 00:00:16.226096724,-1.5332010985000002,13.09591842,-3.4121650459999997,3.09906965475,-0.460210248825,4.43625259375
0 days 00:00:16.246096724,0.09292126689999998,16.161921501666665,-3.221536954,3.167333841,-0.8409317136,4.712058067
0 days 00:00:16.266096724,-1.0468599349,18.0347046825,-0.42831528175,2.3838997485,-0.8478039354,3.912588835
0 days 00:00:16.286096724,-3.7112680675000003,19.168902395,2.818745017,1.1184934376,0.34730207909999994,2.847698847333333
0 days 00:00:16.306096724,-8.19362270875,20.51307058,-0.3176472187500001,-0.71959871055,1.9719478485,2.07755109675
0 days 00:00:16.326096724,-6.14596486125,18.275780680000004,-3.047259629,-2.182925284,1.906585336,1.46485374835
0 days 00:00:16.346096724,1.1066804326666666,12.398410638666668,-3.3288151023333334,-2.0644174815,1.0500002208,-0.14889827379999998
0 days 00:00:16.366096724,2.640479863,8.46281528475,-2.7170500755000004,-0.836273864,0.04864010774,-1.50104743275
0 days 00:00:16.386096724,1.30648118275,5.27617383,-2.5244278909999998,-0.04703658447333333,-0.9703332076466668,-1.3027200103333334
0 days 00:00:16.406096724,-0.6771688163749999,4.693521737999999,0.22193430365,0.2614501305,-1.484783202,-1.1549926102499999
0 days 00:00:16.426096724,-1.5337992907499998,4.5361936095,1.3381860700500001,0.536339283,-1.64788413,-1.133917689
0 days 00:00:16.446096724,-1.3172488414333332,3.060818950333333,-0.5698906183333333,0.33078327775,-1.7300454375,-1.1934770344999999
0 days 00:00:16.466096724,-0.16570296885000002,2.097309053,-0.8165507650749999,-0.0992655307,-1.86672639825,-1.300683856
0 days 00:00:16.486096724,0.9391828777,2.413161635,0.24646072835,-0.5252419014499999,-1.7716859973333332,-1.6911282341666667
0 days 00:00:16.506096724,1.6187444922499998,4.2652065155,-3.23988202225,-0.9825760276,-1.4536290765,-2.18399423325
0 days 00:00:16.526096724,0.97866444275,7.34297418575,-1.4685949608750002,-1.2356267575,-0.7929788529499999,-2.3211333749999996
0 days 00:00:16.546096724,0.3816552063333334,8.082954486,-0.3421736508333333,-0.8539889456499999,-1.1552216408999998,-2.1635303495000002
0 days 00:00:16.566096724,-0.725025221375,7.331010222250001,0.43848474319999997,-0.56489722435,-2.57853657025,-1.6238313617500002
0 days 00:00:16.586096724,0.717846781,6.4977097515,0.44147577879999994,-0.9507092337499999,-1.1655045350000002,-1.20498166455
0 days 00:00:16.606096724,-0.655035227375,5.88514721375,-2.3353948146750003,-1.839772016,2.84777522125,-0.43921179322500004
0 days 00:00:16.626096724,-2.862414181,5.42632365225,-3.2679975627499998,-2.513708591,4.406396866,0.169667691
0 days 00:00:16.646096724,-3.8672002951666666,9.670592705666666,-2.036292086105,-2.3234242199999997,3.680078626,0.5984947530000001
0 days 00:00:16.666096724,-2.84147697675,17.643478395,-0.2261217385475,-0.6785180644000001,1.72408950325,0.553596205875
0 days 00:00:16.686096724,-1.7024933100000001,17.471194269999998,-0.24646072835,0.6773472378833333,-1.3115012251666667,-0.18616105116666667
0 days 00:00:16.706096724,-0.9206385313500001,12.1734848,1.2675977681500001,0.84192438425,-1.6759838762500001,-0.393244214325
0 days 00:00:16.726096724,-0.7465606928,10.96391296,1.651047587,0.82588917015,-0.7147881537499999,-0.611170217375
0 days 00:00:16.746096724,-0.7405786017666666,11.817353565,3.0081768833333338,1.27854001545,0.320016779005,-0.41584619879999996
0 days 00:00:16.766096724,0.9804591089,12.33978653,0.44805607225,1.787543088,-0.7526617608724999,-0.549931019575
0 days 00:00:16.786096724,1.09830561275,14.183456419999999,-3.008974433,1.0714568542833334,-1.2797362404166668,-0.7069232762000001
0 days 00:00:16.806096724,-0.8117650896249999,14.663217305,-0.5150550641825,-0.474183790375,-1.46340295675,-0.4720457535875
0 days 00:00:16.826096724,0.596411079,12.1645121575,1.1437691932725,-0.8588758857,-1.018235185835,0.0045814872675
0 days 00:00:16.846096724,-0.4327021043333333,7.575676600333334,1.6183457178333331,-1.0735948684999999,0.42233664913,0.12202024461
0 days 00:00:16.866096724,-2.2049861552500003,5.40478813625,1.39920303225,-0.93599756065,1.2668571619,0.398894701125
0 days 00:00:16.886096724,-1.3507484498000002,7.6091759205,0.9320043919,-0.4258745585666666,0.7445677878166667,0.4678715171776666
0 days 00:00:16.906096724,0.3846462369,11.001600262,-1.08035942905,-0.21960588915,-0.163177253675,-0.11911862985050001
0 days 00:00:16.926096724,0.06759724395000001,10.2137634745,-0.592821799175,-0.44990191607499996,-0.309326659875,-0.562911890475
0 days 00:00:16.946096724,-0.3469592914625,8.386444807333334,0.5184449007166667,-0.7021890581,0.0558177605,-0.72738724945
0 days 00:00:16.966096724,0.23988047499374998,7.013363004,0.43429733820000005,-0.43310313675,0.11079559567,-0.2852738537
0 days 00:00:16.986096724,1.5254243908499998,8.1308112145,-0.36849465955,-0.4537707219666666,0.3903680436766667,-0.082619459837
0 days 00:00:17.006096724,1.4344971480000002,8.32762122125,0.28594230114999997,-0.5922334194,2.3067017195000004,0.14324779551849998
0 days 00:00:17.026096724,0.90568335365,6.652047157249999,-2.1696919202749996,-0.139429889575,3.0576072337499998,0.6583595276750001
0 days 00:00:17.046096724,0.374476745085,5.414558728166667,-2.5240291555,0.8356630355,2.4904193875,1.5367830400000002
0 days 00:00:17.066096724,-0.1274178056175,8.0907316205,-2.1379869877499997,2.5213443635,1.3271800580000002,2.7661483882499995
0 days 00:00:17.086096724,-0.3768695593,12.299108504000001,-2.0267207625,2.9589271543333333,1.01823519705,3.1819436546666666
0 days 00:00:17.106096724,0.85064845525,17.08894181,-2.71944302325,3.3008078335,0.21494805065,4.040106773
0 days 00:00:17.126096724,-0.10887342697499997,16.988443375,-0.4881358370000001,2.4032947714999997,-0.17203479723999998,3.6777113674999997
0 days 00:00:17.146096724,-2.7533412377166666,16.419548986666666,2.8977081327666667,1.494786143,0.027717988940000004,3.1732897759999994
0 days 00:00:17.166096724,-6.571887255,15.792031767500001,-1.1138589383,-0.43081238875000005,1.638568381985,2.48789954225
0 days 00:00:17.186096724,-5.3192447425000005,11.871989730000001,-1.9286150935000002,-2.314159393,0.9834159414000001,1.8983131451666668
0 days 00:00:17.206096724,-1.37108735735,11.201998952499999,-1.3471591470000002,-2.561966896,1.107116103,1.04564774
0 days 00:00:17.226096724,-0.5509474054,8.909076453,-3.1226335169999997,-1.978743746825,0.7926734461,0.5586358008
0 days 00:00:17.246096724,0.08334998786666668,6.351348718000001,-2.267598291,-0.0589484535,-0.5660425872,-1.1647664309
0 days 00:00:17.266096724,0.570089980975,4.896911680500001,-1.51824599475,0.008552107962499998,-0.9741002619250001,-1.7098104955000002
0 days 00:00:17.286096724,0.84107717885,3.3523445130000002,-0.655633378545,-0.24852016197499996,-1.1511492332166666,-2.1876595421666667
0 days 00:00:17.306096724,2.1206390265,3.0406793954999998,0.9445667617275,-0.289397180075,-1.3960551322499999,-2.6184718612499998
0 days 00:00:17.326096724,2.9192435740000002,3.2775688172499997,1.283749372,-0.13439025263249998,-1.3248893763749998,-3.2502586842500003
0 days 00:00:17.346096724,1.5712868919666665,5.972086429833333,-0.3948157279066668,0.024129158819999996,-0.7505237459999999,-3.742921233
0 days 00:00:17.366096724,-0.49710889915,9.635298968,-2.6255246248,-0.2722929804825,-1.2583050873750001,-3.5149158835000005
0 days 00:00:17.386096724,-1.4105689525,10.880164624999999,0.3840480149,-1.0657554170166665,-2.504825532,-2.6762495441666663
0 days 00:00:17.406096724,0.394815743075,9.248259544249999,1.49850520475,-1.4776819049999999,-2.1616213393,-2.214537591
0 days 00:00:17.426096724,-0.0574277416,10.691131592249999,-1.776072651,-2.43337988825,-0.19937098775,-1.2325724065
0 days 00:00:17.446096724,-3.885545189083333,14.947165331666667,2.3665015701666667,-2.604116559,1.5692352352999999,-0.35995206255000006
0 days 00:00:17.466096724,-1.3567304910000002,14.28395509425,1.51884406825,-1.1044435054,1.6623921097499998,0.735786631675
0 days 00:00:17.486096724,0.52881378665,10.9519495985,-2.5734808445,-0.4652753472166667,1.1537453751633333,0.8375465174166666
0 days 00:00:17.506096724,-0.602393101925,12.9338049925,0.18424734475000004,0.827416345525,-0.302607140515,0.5578722432
0 days 00:00:17.526096724,-1.1108678725,12.388240815,0.8817551433999999,1.4300344885,-1.170798719,0.06795870882499999
0 days 00:00:17.546096724,-2.016351918166667,14.412369886666667,1.5150555173666664,1.783725142,-1.5996258259999998,-0.19501857460000002
0 days 00:00:17.566096724,-1.4991033377499998,16.358532665,1.057029392325,1.9504912195000002,-2.33083087175,-0.136833710575
0 days 00:00:17.586096724,-0.26919254659999997,11.615957738,0.9379864856500001,1.0753256380333334,-1.2790235926333333,-0.22077671439166666
0 days 00:00:17.606096724,-1.7042879313000001,6.729813814250001,1.9100706875000002,0.7664826065250001,-0.418060578375,0.005345067012499996
0 days 00:00:17.626096724,-1.6689938304999998,5.136193991,1.71385923025,0.898276656925,-0.42416922747499997,0.234419360775
0 days 00:00:17.646096724,-1.0249256888,7.457231839666666,1.0819546631833332,1.0299180149999998,-0.3320813626,0.33887723835
0 days 00:00:17.666096724,-1.24486595375,10.07856869725,-0.06819543992500002,1.012202978,-0.2587775886,0.2399171442
0 days 00:00:17.686096724,-1.360319674,11.10389328,-1.5948162675,0.2984074552833333,-0.3935750773333333,-0.34966917085
0 days 00:00:17.706096724,0.2721835971,8.49870777125,-1.14735846215,-0.5086976439,-1.126358271,-0.655305177
0 days 00:00:17.726096724,1.0205388662,7.8993059395,-0.921236723625,-1.207526966825,-0.6720276328999999,-0.7063123882
0 days 00:00:17.746096724,0.6432704701166666,7.289734125333333,0.9619147082166667,-2.0793837305,1.2583051026999998,-0.55848312375
0 days 00:00:17.766096724,0.1268195957,6.752545357,2.928814888,-2.02990370975,2.5197409097500003,-0.08261946215750002
0 days 00:00:17.786096724,1.4727823658499999,6.150750636999999,2.25403893,-1.9662719566666667,3.3451210264999998,0.197971098125
0 days 00:00:17.806096724,1.75633180125,4.721637487000001,-5.2348977925,-1.80877059675,5.59040534525,1.1271982491
0 days 00:00:17.826096724,1.20837545375,4.62891542875,-3.4935210349999997,-0.76510810825,3.2901941537750004,2.07632941
0 days 00:00:17.846096724,1.7371891736666665,6.543173551,-1.7734802961999998,2.2711952925,-0.8195514679499999,3.695273876
0 days 00:00:17.866096724,0.784845829,12.26680517,0.013758733849999982,3.27515155075,-1.54220452925,4.04881167375
0 days 00:00:17.886096724,-0.3732803465,20.31865406,1.7587246,2.724456866666667,-0.6802742779666667,3.719810128
0 days 00:00:17.906096724,-2.7948168215,24.253651145,2.945564568,0.5338958205000001,1.00907228875,2.7201809285000005
0 days 00:00:17.926096724,-6.029314756,15.956537964999999,-0.7375876012500001,-1.26387918,1.539608359,2.075565815
0 days 00:00:17.946096724,-5.329613765166667,6.45663325,-1.7698911826666663,-1.988059342,0.85849411025,1.9008584619999997
0 days 00:00:17.966096724,-4.4093740585,6.249454736500001,-2.37846568225,-1.637423009,0.615828041025,0.44516769756749996
0 days 00:00:17.986096724,-2.8462625745000003,10.08215809,-3.543770194,-0.47840893275,-0.024510957300000007,-1.2824597346516666
0 days 00:00:18.006096724,-2.1966111657500003,9.68315458375,-2.18404886125,-0.299476459625,-0.4108829237,-1.7647883895
0 days 00:00:18.026096724,-1.5367903112499999,9.51864814775,-1.64207455525,-0.31413722040000003,-1.22379121175,-2.54562628275
0 days 00:00:18.046096724,-0.7054838885833333,10.230114618666667,-0.8307082453333333,-0.5610792935,-1.4658463599999998,-3.2013895515
0 days 00:00:18.066096724,0.21475583315000002,9.869197367249999,1.5170495812499998,-0.34162612255,0.14439319065000006,-3.82004284875
0 days 00:00:18.086096724,0.37328036114999996,7.231110334499999,-0.2608177659999999,0.06281726062666665,0.7158571681333333,-3.7338601351666667
0 days 00:00:18.106096724,2.482553512,5.15294373075,-5.120042145499999,0.2528980076,-0.6521745324,-3.348302603
0 days 00:00:18.126096724,4.418945134,4.768297315,-2.9001009765,0.2528980076,-0.6521745324,-3.348302603
0 days 00:00:18.146096724,6.362116614666667,4.174278974333334,0.6416752934666667,-0.7281508297000001,-2.2068254052,-3.401142359
0 days 00:00:18.166096724,2.5752753315,4.009772539,3.3553355935,-1.8988731505,-0.274049207475,-2.86663574
0 days 00:00:18.186096724,-1.1581261755,6.161518335,3.048456073,-0.8653917660333333,-0.41648252556666665,-0.9584977527999999
0 days 00:00:18.206096724,-3.5240296124999997,9.65563786325,1.66839557875,-0.389884445825,0.32200210907500004,1.14705131945
0 days 00:00:18.226096724,-0.55513487755,11.0739829525,-1.7084754112499998,-0.288480889075,1.5612940489999998,3.21039980625
0 days 00:00:18.246096724,0.9882357416,12.668400759999999,-2.1994028888333332,-0.48380489649999997,0.47028949875,3.159239888
0 days 00:00:18.266096724,0.43369913125000004,18.892530915000002,4.45782864075,-0.14767655311750003,-1.135215804125,2.10565084225
0 days 00:00:18.286096724,-2.586641312,23.97847557,7.652246952,1.3812670817850001,-1.3591487060833334,0.8130101065
0 days 00:00:18.306096724,-3.670589924,15.9044935725,0.7914261225,1.41873341765,-0.23709189144999998,0.7166971117250001
0 days 00:00:18.326096724,-1.57328087095,10.042078495999998,1.3058829307499997,0.9633337556999999,0.15554144582425,0.6998983025250001
0 days 00:00:18.346096724,0.16151553389999998,8.420741876333333,2.1559332606666666,1.1768309475,0.1321758697985,0.462882787
0 days 00:00:18.366096724,0.459421947575,8.443074941999999,1.06002050625,0.504727017225,2.5814381916,0.573143869625
0 days 00:00:18.386096724,0.1938186288,7.122236729000001,-3.1082764865,0.07432188838333333,3.4024404688333334,0.8869247535833334
0 days 00:00:18.406096724,-0.4163511395,5.395814896,-4.039084435,-0.697760291425,3.518810272,2.3247986437500003
0 days 00:00:18.426096724,-0.412761896825,1.9070796222250002,-1.8245272337500003,-0.005192346825000027,2.62862747875,3.090822995
0 days 00:00:18.446096724,-1.8053847055999999,2.168694903383333,-0.007976077456666711,1.3701697590000002,1.178587198,3.393201113
0 days 00:00:18.466096724,-2.199003935,6.850651264,0.7896314859,2.539364964,0.35941755392499997,3.43214374775
0 days 00:00:18.486096724,-2.7720849515,17.150555847,-0.24167507904999996,1.6490295229500003,0.59796024615,2.979238390666667
0 days 00:00:18.506096724,-2.9700910452500002,22.6408877375,1.4386846420000001,-0.2211330533,1.049694777,2.377332926
0 days 00:00:18.526096724,-1.8239290717500003,13.288540359999999,-3.09511595975,-0.5091557949750001,1.04373884225,1.8417572492499998
0 days 00:00:18.546096724,-1.3395819070333335,11.086744621666668,-4.974678119,-1.1762201190000001,0.62178398645,-0.37858343865
0 days 00:00:18.566096724,-0.334995180375,13.2454695675,-4.6325045225,-0.3859138191,-0.331623204025,-1.7261511835749999
0 days 00:00:18.586096724,0.91166543955,11.717652320500001,-2.096112609,-0.09906190636666667,-0.7031817138333333,-2.1590507035
0 days 00:00:18.606096724,0.60059848425,6.239883184249999,-0.369092892025,0.36285367607499996,-1.9511785212500001,-3.2184938195
0 days 00:00:18.626096724,-0.14715859292500003,4.4865425825,1.432702577825,0.4230238572,-2.92230081575,-3.57661330675
0 days 00:00:18.646096724,0.3154538025333333,3.807778517666667,1.1956136823333334,0.20799945110999998,-2.4682755469999997,-3.5517206189999997
0 days 00:00:18.666096724,0.34337005752500016,3.9343986515000005,-1.255633682,-0.41340275202,-1.1726312935999998,-3.316079438
0 days 00:00:18.686096724,2.9407790895,4.91366148,-1.5314064620000003,-1.1509710945666667,-1.0127883553666666,-2.7535238663333335
0 days 00:00:18.706096724,4.316053867,4.15394020075,-1.1449656187250001,-1.39857494825,-2.9004622700000002,-2.7589708565000004
0 days 00:00:18.726096724,7.16291427625,3.2668011787499998,0.798604547675,-1.5250239075,-3.4965136349999995,-2.894124627
0 days 00:00:18.746096724,1.2514461677000002,4.446263273833334,1.4999009869000002,-1.630092621,-0.5895608662999999,-2.6635230775000003
0 days 00:00:18.766096724,-3.7357942459999998,8.64586627425,0.5359923095500001,-1.430034399,0.5237401724,-2.353203773
0 days 00:00:18.786096724,-4.734199524,13.410574435000001,2.7625137570000002,-0.3112356016833333,0.5712858109033333,1.6369648778333332
0 days 00:00:18.806096724,2.72363042825,15.896119115000001,-4.2640100717500005,0.30558510125000005,2.1894156446675,4.193434
0 days 00:00:18.826096724,5.623133182249999,20.7876472475,-3.79681134225,0.48792823404999996,-0.3172678909975,2.6050329059
0 days 00:00:18.846096724,-0.5228317976333335,26.368506433333334,4.339782714666666,1.1038326322499998,-1.5528945920000001,0.06520982084999999
0 days 00:00:18.866096724,-5.46640348425,16.185651062250002,1.5349957344999998,2.1705553235,-3.02996566875,-0.2388481274
0 days 00:00:18.886096724,-1.605584025,8.3246302605,3.1202406884999996,2.425845941,-3.1736206216666667,-0.20672681923333333
0 days 00:00:18.906096724,0.36011980484999995,8.212765217249999,2.25403895975,2.45216399425,-2.803640187,-0.3484983593
0 days 00:00:18.926096724,1.37228377195,11.10508942975,-0.15672989192500003,2.3638939257500002,-1.9751548765,-0.861319363075
0 days 00:00:18.946096724,-0.5802595018333333,9.491529703666666,-2.3202403483166667,1.3032799957999999,-2.2413392064999997,-0.8868229685500001
0 days 00:00:18.966096724,-1.98364999875,6.4689958095,-2.690130949275,0.6847794056,-2.260581493,-0.6452259421
0 days 00:00:18.986096724,-1.61515527955,4.6707897185,1.6486548184499998,-1.2390373943999997,0.6410262585666667,0.44221520425
0 days 00:00:19.006096724,-0.2685943450775,3.6209388970000003,4.8819563385,-1.388648346075,4.0120835902500005,1.019227907
0 days 00:00:19.026096724,0.6293123495074999,2.8707889315,3.96550530175,-0.5571087003,6.490667343,1.216689944
0 days 00:00:19.046096724,-0.8913264076166668,1.0815558235,-6.812765125766667,-0.296269427995,4.077140629,1.6986622215
0 days 00:00:19.066096724,-4.11565482625,3.2225339415,0.139381915325,1.4127775223275,-0.894687772,2.6827653055000003
0 days 00:00:19.086096724,-3.3750764130000004,8.873782635,0.34576289355000006,2.754287500833333,-1.8044691284999999,3.1107780535000003
0 days 00:00:19.106096724,1.45363968625,21.814765455,-1.4452649059999998,2.32938013945,-1.467373587225,3.0109525917499997
0 days 00:00:19.126096724,0.16151548927500003,19.4428806325,2.0237297415,0.06078104685000002,-0.015195272925000003,2.31930089
0 days 00:00:19.146096724,-2.6452653908833335,12.4793675715,2.5144577028333335,-1.8994839785,1.8465678095,1.4595086574999998
0 days 00:00:19.166096724,-4.293321908,6.50309383825,-2.66380989525,-2.423911333,2.48828125,1.307097912
0 days 00:00:19.186096724,-1.2849457937,9.566505193,-3.2004003524999995,-1.3701696691999998,-0.013209968800000027,0.2758563558666667
0 days 00:00:19.206096724,0.73998042565,11.2983102775,-2.2277178765,-0.1896735082535,-2.1216097175,-1.76234483725
0 days 00:00:19.226096724,1.37348020075,9.395418166749998,0.5330012145,0.007330377586,-2.599000454,-2.898095131
0 days 00:00:19.246096724,1.8532411255,5.828118523,-0.15752750633333332,0.051312642638,-2.4707188605,-3.438099623
0 days 00:00:19.266096724,2.7601209285,3.458226979,-3.8590247635,-0.2693913616275,-1.135673969875,-4.0120072365
0 days 00:00:19.286096724,2.913261533,4.80359149,-4.585844755499999,-0.4272999117833334,-0.5102502703333333,-3.5856236416666665
0 days 00:00:19.306096724,2.2354945539999997,5.8959151510000005,-2.8199414615,-0.5363392979,0.06116282937499995,-1.22264584885
0 days 00:00:19.326096724,3.7345978022499997,5.7326049805,1.3956139085,-0.089644402275,-2.7265186310000002,-0.52198393646575
0 days 00:00:19.346096724,3.5672996046666667,8.4035933015,2.5527430176833334,0.275805456545,-3.4416885972,0.3016144931185
0 days 00:00:19.366096724,-5.636293768749999,15.555142162500001,-0.32602208850000003,-0.4074468100775,3.6394558844000002,1.116049915725
0 days 00:00:19.386096724,-4.7700920105,16.86102486,-0.05862414814999998,1.6712241970000001,-0.7593812546,1.7796017926666667
0 days 00:00:19.406096724,-2.6063821020000004,18.066409110000002,2.8181467955000006,3.1827582715,-6.1948559285,1.93338704125
0 days 00:00:19.426096724,-4.13599398775,19.076778885,6.6382882595,4.02407175275,-5.91385829475,1.159879505425
0 days 00:00:19.446096724,-5.774279992,25.737598733333332,1.6103696673833336,3.9040367600000003,-3.5143814685,0.6626355499
0 days 00:00:19.466096724,-2.502094851888889,17.031579547333333,-0.39667682516666664,2.3365577853333335,-0.9014073612,0.105323265
0 days 00:00:19.486096724,-1.6570297081666667,9.889136950000001,-0.331007128,1.53510320225,-2.58265990025,-0.199752781525
0 days 00:00:19.506096724,-2.632104933,7.6127651932500005,-0.43429730089999996,1.3603958786249999,-3.5650832055,-0.107359487575
0 days 00:00:19.526096724,-3.022135019,7.403393269,-0.4737788737,0.797789402275,-3.9028912782500003,0.21120649204999997
0 days 00:00:19.546096724,-2.4143580991666664,7.461219787666667,3.294119293216666,-0.22601996365000002,-1.6362776608,0.43844819069999996
0 days 00:00:19.566096724,-1.2382856758749998,7.763513207499999,0.92542415825,-1.3043490054750002,0.39942920955000005,0.32162030785
0 days 00:00:19.586096724,-0.7836494148,7.773084401999999,-2.5986053945,-2.3284129901666666,0.1892917231,-0.16366084911666667
0 days 00:00:19.606096724,-0.5443671568999999,7.84726178675,-0.9200402871000001,-2.63939404525,-0.40782861035000006,-0.48304132372499997
0 days 00:00:19.626096724,-0.9942178201249999,8.596813202,0.24825534224999998,-3.056614578,-2.0220388172500003,-1.19882214075
0 days 00:00:19.646096724,-0.45264227185,10.860224407666665,-3.1166514509000005,-3.203680277,-2.7553819414999996,-1.3782636525
0 days 00:00:19.666096724,0.42771704492499996,12.2817606925,-4.18863594525,-3.384190798,-3.242241144,-1.491273642
0 days 00:00:19.686096724,1.1174482105999999,11.276176929999998,-4.686343193,0.07187845309999989,3.4241260291666666,-0.6006328067150001
