time,acc_x,acc_y,acc_z,rot_x,rot_y,rot_z
0 days 00:00:00.027090109,1.1502746645,3.1824541689999997,9.861419916,0.28412848710000005,0.07009673375499999,0.7496456057
0 days 00:00:00.047090109,1.142871857,3.168097258,9.949356079,0.0731128752,0.11934770645,0.4088976085
0 days 00:00:00.067090109,1.142871857,3.168097258,9.949356079,0.0,0.0,0.0
0 days 00:00:00.087090109,1.142871857,3.168097258,9.949356079,0.0,0.0,0.0
0 days 00:00:00.107090109,1.142871857,3.168097258,9.949356079,0.0,0.0,0.0
0 days 00:00:00.127090109,1.142871857,3.168097258,9.949356079,0.011205551215,-0.0066622439775,0.33817091575
0 days 00:00:00.147090109,1.113958617,2.5862424773333337,10.1320587815,0.04482220486,-0.02664897591,1.3526836629999999
0 days 00:00:00.167090109,1.24875435225,2.2143329979999997,10.033853295,0.058223049160000005,0.1803196426725,1.4545645120000001
0 days 00:00:00.187090109,1.4371891020000003,2.102393866,10.00289631,0.06268999726,0.2493091822,1.488524795
0 days 00:00:00.207090109,1.92308163675,1.90678054075,10.2642371625,0.0643316973025,0.277905292825,1.50047484075
0 days 00:00:00.227090109,2.085045815,1.841576099,10.35135078,0.10594686119750002,0.353461638075,1.5284982622499999
0 days 00:00:00.247090109,2.2683459921666667,1.8078273333333332,10.265458421333333,0.42413105814999996,0.29367324710000003,1.4125484229999998
0 days 00:00:00.267090109,3.2075787185,1.625698656,9.65758180625,0.6322450638,0.264580816,1.320078731
0 days 00:00:00.287090109,3.256183028,1.5297614335,8.687142848999999,0.7261018653833333,0.11065560827499998,1.1804707451666667
0 days 00:00:00.307090109,3.088311434,1.3580016492500002,7.7274713515,0.6835194975250001,-0.008609380577500006,1.14892214575
0 days 00:00:00.327090109,3.03888464,1.319342613,7.552645683,0.44352600725,-0.289817169325,1.1626856925000002
0 days 00:00:00.347090109,2.9444180333333336,1.1159526905000001,8.513762632999999,0.27572909,-0.3371210098,1.236619353
0 days 00:00:00.367090109,3.16742414275,1.11191478375,9.25827932475,0.27572909,-0.3371210098,1.236619353
0 days 00:00:00.387090109,3.893122435,1.221835017,10.91515923,0.27572909,-0.3371210098,1.236619353
0 days 00:00:00.407090109,3.71253913675,1.6592729092500003,9.752920867499999,0.2008981546575,-0.13962078837499997,1.3193915485
0 days 00:00:00.427090109,3.652344704,1.80508554,9.36550808,-0.0141835161475,0.38610471785,1.5769283774999998
0 days 00:00:00.447090109,3.6523447039999994,1.80508554,9.36550808,0.014049889520000003,0.1857792437,1.6045891049999998
0 days 00:00:00.467090109,3.4110434654999997,1.6086497605,9.500926733250001,0.01404988952,0.1857792437,1.604589105
0 days 00:00:00.487090109,2.5574786664999998,0.75687970195,9.474081992999999,0.13603194833666668,-0.36539893846666666,1.9642992616666666
0 days 00:00:00.507090109,2.67323148275,0.42689451572500003,8.821364879999999,0.1684268713,-0.59387509525,2.1494039892499996
0 days 00:00:00.527090109,2.755036116,0.404387027,8.748159409,0.1924224049,-0.9485966563,2.488892078
0 days 00:00:00.547090109,5.009523590166666,1.2338988828333333,8.254888852333334,0.19242240489999998,-0.9485966563,2.488892078
0 days 00:00:00.567090109,5.460421085,1.399801254,8.156234741,0.1924224049,-0.9485966563,2.488892078
0 days 00:00:00.587090109,5.2410292625,0.49965128289999994,6.690631151000001,0.029257876183333326,-0.94134263195,2.4655392563333334
0 days 00:00:00.607090109,5.662988663,-0.220364011825,8.85979950275,-0.7865647674,-0.9050725102,2.348775148
0 days 00:00:00.627090109,6.20765507225,-0.512737043225,12.3157832625,-0.6965767518,-0.43703556057500004,2.4581199285000004
0 days 00:00:00.647090109,6.317949295000001,-0.6302096844,13.0639143,-0.37243662774999997,0.9782617687999999,2.8451026674999995
0 days 00:00:00.667090109,5.97652339925,-0.52529936285,10.5666300065,-0.3182605505,0.9894482493,2.904051065
0 days 00:00:00.687090109,4.7201418875,-0.2041376829,3.5875890255,-1.8981731534166668,-0.05290342370000001,3.5076619383333334
0 days 00:00:00.707090109,4.14302301425,-0.5472086146749999,3.76435875925,-2.5549800395,-0.940197229475,3.85974919775
0 days 00:00:00.727090109,5.479189992,-2.8865666391750002,5.1167521475,-3.577453136,-2.976667643,4.553844452
0 days 00:00:00.747090109,5.96291399,-3.627519131,5.604887962,-3.2899267669999994,-2.0795363785,4.903144359500001
0 days 00:00:00.767090109,5.850077509749999,-4.64962828175,6.05653321725,-3.002400398,-1.182405114,5.252444267
0 days 00:00:00.787090109,5.511568069,-7.7159557340000005,7.411468983,-3.088697790833333,-1.0953187047000001,5.553638775833334
0 days 00:00:00.807090109,3.9549620147499995,-11.332782265999999,6.7521716355,-3.50710839,-0.6676179170750001,7.2314170595
0 days 00:00:00.827090109,3.2961131334999996,-13.684478282499999,6.234499335500001,-3.4969908592500003,-0.6473448574749999,7.81748473625
0 days 00:00:00.847090109,3.249453068,-14.06650734,6.135197163,-3.7823601960000004,-0.23667193762499997,8.013858795
0 days 00:00:00.867090109,2.81852069525,-13.361447097500001,6.027295828250001,-3.98039484,0.04360047355,7.998281479
0 days 00:00:00.887090109,0.9339486065,-10.804790500000001,4.8617668155,-3.98039484,0.04360047355,7.998281479
0 days 00:00:00.907090109,-0.94456674175,-10.1264255025,3.7848470807499996,-3.86203980425,0.32933246616249995,7.06524288675
0 days 00:00:00.927090109,-3.159124106,-9.853643893000001,2.581257403,-3.506974697,1.186528444,4.26612711
0 days 00:00:00.947090109,-2.444667160333333,-9.046863556,0.4877370198666667,-3.5775295495,1.094287872,3.6867218019999997
0 days 00:00:00.967090109,-1.8293129507499999,-6.695715904,-2.961117983,-3.7268860935,0.1828776392225,2.35091316725
0 days 00:00:00.987090109,-3.2362926005,-6.1758751865,-1.8759730160499999,-3.5803803206666664,-0.8077414248116668,1.1636465392833333
0 days 00:00:01.007090109,-6.690930247499999,-7.09352254875,0.3326023668,-3.3985462784999996,-0.499763742125,0.29901831222499997
0 days 00:00:01.027090109,-8.342576385000001,-8.41795015375,0.644267484525,-3.271180868,-0.282143175625,0.19501857830000002
0 days 00:00:01.047090109,-7.8628154593333335,-8.504889408833334,1.1393823725,-3.01828289,-0.2312886715,0.3077231348
0 days 00:00:01.067090109,-4.8366922536666666,-7.292525768666667,2.340978066,-2.744615475,-0.29257877666666665,0.4404844046
0 days 00:00:01.087090109,-3.3535408975000003,-7.146164894,2.1619152425,-1.9935572145000002,-0.36720609665,0.338877224375
0 days 00:00:01.107090109,-3.7447673679999998,-8.30129969125,1.23350006375,-1.789833784,-0.3192532063,-0.02825249545
0 days 00:00:01.127090109,-3.9451663495,-7.32801938025,2.6111676995,-1.3973531685,0.053374320275,0.08872811263750001
0 days 00:00:01.147090109,-4.247260292333333,-7.964909156166667,-2.0797616239666663,-0.026572614899999996,0.629419818605,0.6345358044
0 days 00:00:01.167090109,-1.60438761125,-7.744968772,-0.07776674635000003,-0.141567915675,-1.3083960339475,1.0025818499749999
0 days 00:00:01.187090109,-1.679761529,-8.647661209,1.59840548,-0.2443459183,-1.7737222909999997,1.060308576
0 days 00:00:01.207090109,-1.679761529,-8.647661209,1.59840548,-0.2443459183,-1.773722291,1.060308576
0 days 00:00:01.227090109,-1.679761529,-8.647661209,1.59840548,-0.2443459183,-1.773722291,1.060308576
0 days 00:00:01.247090109,-2.820340335333334,-8.014360825166667,1.1449655886666668,-0.2443459183,-1.7737222909999997,1.060308576
0 days 00:00:01.267090109,-8.2683987615,-5.394020557499999,-1.21615213175,-1.175303820325,-0.78274686635,0.2952004131825
0 days 00:00:01.287090109,-8.5184488295,-6.241677761000001,-1.2083753942,-1.1797834736333332,-0.688215524,0.376852662585
0 days 00:00:01.307090109,-9.46660494775,-5.786443352500001,2.25942280915,-0.6817250848,-1.566639066,0.9973894954
0 days 00:00:01.327090109,-6.03110969075,-6.73818862425,3.7369906905,-0.31352634730000006,-1.1662172081025,1.17927448455
0 days 00:00:01.347090109,-5.613960901666666,-5.2331031165,1.33758781365,0.9508110286,0.513050049545,1.68583411
0 days 00:00:01.367090109,-5.844469428,-4.084548234750001,-0.810568660575,0.9098830819500001,0.88292866945,1.54182273125
0 days 00:00:01.387090109,-5.538187980499999,-3.680161357,-0.5407779366500001,0.6668607096,0.1734092378333333,1.5470659731666665
0 days 00:00:01.407090109,-4.002594172749999,-2.8217362167499997,-0.33020951597500003,0.72998340435,-0.010766490364999999,1.4810416697500002
0 days 00:00:01.427090109,-4.148556292,-2.3186451195,-0.3619144261,1.1560615899999998,-0.43333220485,1.29411703325
0 days 00:00:01.447090109,-5.2745785715,-1.745165348166667,2.214557399433333,1.54915309,-1.255708933,1.3999493119999997
0 days 00:00:01.467090109,-6.491727829,-1.536192179,5.807380676,2.463159442,-1.2964841425,1.864053905
0 days 00:00:01.487090109,-5.566901922,-0.734596572955,3.0089745371000003,3.2323909203333336,-1.2879829603333333,2.224413235666667
0 days 00:00:01.507090109,-4.81256473025,0.9104690437725,-0.056829534475,3.299891472,-1.851912975,2.243553638
0 days 00:00:01.527090109,-5.8815580605,1.98843571525,-0.4492524713,3.235139847,-2.12817656975,2.23622328
0 days 00:00:01.547090109,-7.361120144333334,0.6149554351666667,2.4913272459166667,3.2604907755000005,-2.8894667625,2.458883524
0 days 00:00:01.567090109,-8.6548395145,-0.83988071985,3.9068811535,3.95198959125,-2.1003822085,3.2739298347499997
0 days 00:00:01.587090109,-9.5916295035,-1.5457633734999998,2.8654050229999997,3.9986190796666663,-0.9225839872833334,3.9466445846666667
0 days 00:00:01.607090109,-9.4983096125,-0.29192435090749996,-0.688534737,3.4678792955,-0.549091070875,4.1560186145
0 days 00:00:01.627090109,-9.96730303775,0.6155536295725,-1.06360967465,2.817308426,-0.8867465854,4.252687931
0 days 00:00:01.647090109,-13.012169836666667,3.41096864175,2.2333011529666664,3.0063710214999997,-1.3549744187000001,4.414566993499999
0 days 00:00:01.667090109,-16.002599717499997,5.064409137,5.45563566725,3.395644605,-1.4699697194999999,4.429380536
0 days 00:00:01.687090109,-16.150356294999998,4.8095736505,5.5202417375,3.547393521,-0.7759764293333333,4.0128217535
0 days 00:00:01.707090109,-14.715261219999999,4.262215376,5.16131842175,3.2749987247499996,-0.3667479306,3.7665923235000003
0 days 00:00:01.727090109,-13.581063505,4.4063830375,4.250849247250001,2.2884521482499998,0.52984884385,3.239874065
0 days 00:00:01.747090109,-13.384253661666667,5.355137189333333,3.619941830666667,1.6245948669999999,0.58421579005,3.2725553515
0 days 00:00:01.767090109,-14.134403705,6.591628193749999,3.77049034825,1.1183407010000002,0.7361684292249999,3.35380035675
0 days 00:00:01.787090109,-16.250854965000002,7.810173035000001,3.4408791065,1.0238093934999999,0.9238566358333333,3.2175774975
0 days 00:00:01.807090109,-17.14696693,7.767102242,2.775674343,0.9443969727499999,1.6567416487500002,2.323729694
0 days 00:00:01.827090109,-16.89392662,8.493922233500001,2.0955144165,1.10933044575,1.83862665275,1.52670377505
0 days 00:00:01.847090109,-16.068601925,8.495716730666667,2.37407883,1.0005965232,2.1831543445,0.4451677054
0 days 00:00:01.867090109,-15.16810226,6.920042992,4.460221291,0.956461548825,2.78561979525,-0.49113526195
0 days 00:00:01.887090109,-14.09851074,5.0703911784999995,4.8107697965,0.6227766474166666,3.325166106333333,-0.6139699841333334
0 days 00:00:01.907090109,-8.6159561875,4.5146580932500004,4.281956076749999,-1.0253365634999998,5.130118727999999,-0.12599086015
0 days 00:00:01.927090109,-5.15832746025,7.90169823125,2.418545455,-0.96470816395,4.9276171922500005,-0.48075057940000004
0 days 00:00:01.947090109,-5.808576822333333,8.359724998333334,0.12362915778333329,-0.6808087825500001,3.9259514805,-1.6161955
0 days 00:00:01.967090109,-5.977270961,7.55055213,0.49830531329999994,-0.6640099883,3.447949886,-1.890779257
0 days 00:00:01.987090109,-6.5048885345,3.513860166,0.10289138554999999,0.45305803414999996,2.488484899,-1.6411391793999999
0 days 00:00:02.007090109,-6.303891182,3.87397977675,-0.85423770575,0.5400044657024999,2.331747234,-0.8972076328
0 days 00:00:02.027090109,-6.85483849025,4.854438781999999,-3.1058837175,-0.010231990367499999,2.504469216,-1.3043490054999998
0 days 00:00:02.047090109,-10.248459573833332,3.1804600955000004,-5.134199936999999,-0.42607820034999994,2.3056327105,-2.0978623625
0 days 00:00:02.067090109,-10.5619194475,3.150151074,-5.0985070465,-0.33658649770000004,2.466901004,-1.956752568
0 days 00:00:02.087090109,-7.518249035,3.1465618610000003,-4.9615178105,0.14060070118333332,1.6906955339499998,-1.5970550773333334
0 days 00:00:02.107090109,-4.74197626125,1.0360921918750001,-4.2699920535,-0.24953826515,0.6720276028000001,-1.1788163037750001
0 days 00:00:02.127090109,-4.3537408115,1.410568982125,-1.3513466120250002,-0.47525279224999994,0.2024253178475,-1.1088722795750001
0 days 00:00:02.147090109,-4.560719966833333,1.0979067883333333,0.24845474958333333,-0.40653049945,-0.012904517355,-1.5835142135
0 days 00:00:02.167090109,-4.9274200202500005,-1.1521441046,0.01734796162500002,-0.500909134725,0.5698604602,-0.816115364375
0 days 00:00:02.187090109,-2.167897344,-0.005982041349999985,-1.40697967995,-0.45214176925,0.7607557078,-0.10094540939
0 days 00:00:02.207090109,-1.7539390025000001,1.317847043175,-2.98743897675,-0.1258381456,0.5371792316,0.08964440972
0 days 00:00:02.227090109,-4.84726056425,3.2889347675,-3.75015127625,-0.1258381456,0.5371792316,0.08964440972
0 days 00:00:02.247090109,-6.85703214,3.830510298666667,-3.540181119833333,0.01099556685,-0.31222826219999994,-0.19715660439000002
0 days 00:00:02.267090109,-12.0077819825,2.862414032,-2.1625134944999997,0.305432383,-0.762130156025,-0.33505932245
0 days 00:00:02.287090109,-10.4207425105,-0.8027920125,-2.00518539555,-0.0762562901,-0.5235874652833333,0.41859509548333335
0 days 00:00:02.307090109,-10.51346468775,2.3353949785,-0.86081796885,-0.18661919237500002,-0.09796743085000004,0.9636391847500001
0 days 00:00:02.327090109,-10.59541893,6.381657838500001,-7.036095336275,-0.4928151517,1.1281909052499999,2.0048581954999998
0 days 00:00:02.347090109,-9.3280201755,7.8269228935,-8.534002264500002,-1.5827506184999998,0.6511055009500001,1.4109449385000001
0 days 00:00:02.367090109,-7.06660330325,9.725627899000001,-4.33220535475,-1.6377285125,0.312839131825,0.987921073975
0 days 00:00:02.387090109,-9.55334425,8.7684988975,-6.388836383499999,-1.4441861508333333,0.40645416083333336,0.6213003719833333
0 days 00:00:02.407090109,-11.3276221725,8.85045266125,-5.9742801189999994,-1.436143041,0.2702313066,0.2063195854
0 days 00:00:02.427090109,-11.9318099025,8.609375477,-5.28634357425,-1.3032799663749999,0.39438956979999995,0.107817638625
0 days 00:00:02.447090109,-11.475977261666666,6.982256412333334,-5.568895896166667,-0.9382883012500001,1.0225112737,-0.34620760385
0 days 00:00:02.467090109,-10.187043506666667,6.690332253666667,-5.8767724040000004,-0.82222399115,1.404607177,-0.6815723776999999
0 days 00:00:02.487090109,-9.013762474,7.081558704500001,-5.1852467065,-0.5803215355,1.254945338,-0.8083267810000001
0 days 00:00:02.507090109,-7.311867832999999,8.15653407575,-6.38105976575,0.08063415435000003,1.027703650525,-1.1690424385
0 days 00:00:02.527090109,-6.970292568,8.408378601,-7.152146816,1.0250310898,0.3065777714,-1.32924178225
0 days 00:00:02.547090109,-8.102097193333334,3.324029406016667,-4.537190437333333,1.4336996080000002,-0.0205403287,-1.295796871
0 days 00:00:02.567090109,-7.453642368,0.6245267391,-1.464407444,0.013897165675000017,0.2923751618,-0.77854716775
0 days 00:00:02.587090109,-7.6426753995,1.13060873755,-0.21056836849999994,-0.6381500660833334,0.35137451940000003,-0.7751365105
0 days 00:00:02.607090109,-6.882356286,0.9439685494250001,1.4057833254999998,-1.532048821,0.1248454899,-1.620166063
0 days 00:00:02.627090109,-5.75653326475,0.661017268875,1.171286732,-1.50578165025,-0.08223767202500001,-1.6165008840000001
0 days 00:00:02.647090109,-7.092326243666666,0.48015973219833336,1.4803596340166667,-1.4236204030000001,-0.38889179377500005,-1.5938988925000002
0 days 00:00:02.667090109,-6.832106947750001,0.10827523096749997,0.11545369032500008,-1.420260668,-0.07429642975,-1.582292438
0 days 00:00:02.687090109,-3.8895331625,2.17387941485,-2.39760828,-0.7174607118333333,-0.073990998165,-0.8548543354333334
0 days 00:00:02.707090109,-5.106881559,4.42612355925,-2.40717959375,-0.440586231675,-0.45455975829999995,-0.6357575208249999
0 days 00:00:02.727090109,-6.71246576325,3.211167991,-2.1804596184999996,-0.510988391975,-1.03075794865,-0.42714720968
0 days 00:00:02.747090109,-7.272984504999999,3.552942911666667,0.7828518148333335,-0.6823359728000001,-1.431638002,0.02000582218
0 days 00:00:02.767090109,-9.410373209749999,3.5922250152500004,2.72781789275,-0.12339468859250001,-1.0376302152249999,0.072234762835
0 days 00:00:02.787090109,-10.277971157444446,3.0880704988888894,2.4497187402222225,0.76459906227,-0.22538365923333334,0.24643303204
0 days 00:00:02.807090109,-8.790033975833335,2.3190439541666668,-2.764108935833333,1.507614255,0.9305761456,0.2930623889
0 days 00:00:02.827090109,-7.237092018,1.7467605767499998,-4.34955334625,0.9697478265,0.80443256345,0.22098034213050002
0 days 00:00:02.847090109,-6.748158772666667,0.917248706,-2.564308275566667,-1.154229015,0.228692498065,0.053908816761000004
0 days 00:00:02.867090109,-6.56052148375,2.8612177372499996,-1.6313067822999998,-1.128114521475,0.1660788599325,-0.047189306475000005
0 days 00:00:02.887090109,-8.502895117,5.711667776,-4.718646049499999,-0.9075414141333332,0.1575267526,-0.2005163654666667
0 days 00:00:02.907090109,-10.1096754085,4.00020134425,-6.5371915099999995,-0.720362275875,-0.3530034703,-0.70585425195
0 days 00:00:02.927090109,-10.1210417775,3.3314072487499997,-4.479962170249999,-0.7849612236,-1.082834125,-0.6733257174
0 days 00:00:02.947090109,-10.086943783333334,2.7609184779166664,-5.921039621333333,-1.3881902098,-1.377576411,-0.7918334901
0 days 00:00:02.967090109,-10.7617194675,1.789233118375,-4.17667198175,-2.68368169625,-1.98981571175,-1.03129243845
0 days 00:00:02.987090109,-11.958131314999997,6.9116680624999995,2.7984060348999997,-2.5077016551666667,-1.1310925132833332,-1.0450369119666667
0 days 00:00:03.007090109,-10.787442925,10.709676024,-2.6237300482999997,-1.61818078125,-0.41821328547500003,-1.3287836015
0 days 00:00:03.027090109,-11.4496567225,7.484749196999999,-1.63011042765,-1.41751167175,-0.86689345535,-1.278845459
0 days 00:00:03.047090109,-8.583054939166667,7.312864859833333,3.4520453908,-1.218369782,-1.21905699365,-0.67363116145
0 days 00:00:03.067090109,-8.0919281245,6.20518743975,0.9972087142500001,-1.032972336,-0.9288962483,-0.6250674129
0 days 00:00:03.087090109,-8.772088051,4.096512318,-4.55354166,-0.5508982142166666,-1.63383419305,-0.8409062822666667
0 days 00:00:03.107090109,-9.4971134665,4.5074796675,-1.6534404903,-0.8781181275750001,-1.8958951535000002,-0.6360629648
0 days 00:00:03.127090109,-9.7908320425,4.7682974335,-0.824925586575,-0.7929024696,-1.776776552,-0.5004509687
0 days 00:00:03.147090109,-8.658827225166666,4.4187458353333335,-0.6336991986166667,-0.7107411623000001,-1.3687188922500002,-0.43386670945
0 days 00:00:03.167090109,-6.3649083375,4.9866424797499995,-1.4763716162499998,-0.336281064925,-0.8800270557250001,-0.354454293825
0 days 00:00:03.187090109,-5.3467621805,5.09910512,-1.183250820105,0.05426515393333333,-1.3953933219666668,-0.5355756779666666
0 days 00:00:03.207090109,-7.71685290325,1.0408778936,1.6348961416975003,-0.260228395475,-0.9511928112250001,-0.49602218714999996
0 days 00:00:03.227090109,-10.540383816,1.57746838045,3.96670168675,-0.430812370075,-0.54588403555,-0.229990597775
0 days 00:00:03.247090109,-11.289337001666667,2.5547369323333338,3.7770706665166665,0.29229880125,-0.36262460055,0.476627253
0 days 00:00:03.267090109,-10.475777152500001,1.5631113648000001,0.36370903255,0.7244856358,-0.3974438906,0.8153517842
0 days 00:00:03.287090109,-8.7900338185,2.4538396596,-0.050249278499999994,0.44735664123333335,-0.4246273836,1.3245075643666666
0 days 00:00:03.307090109,-7.1383881567500005,4.99202632875,-0.214755836875,1.065348148,-1.022358537,1.40727973
0 days 00:00:03.327090109,-8.835497856,3.2775688169999997,0.666999291625,1.1827869115,-0.8789580391999999,1.1939352007
0 days 00:00:03.347090109,-9.446864128,2.610569477,0.9451649189000001,1.4903743267777776,-0.37606363662222225,0.5905535022777778
0 days 00:00:03.367090109,-9.22492980925,-2.8055846092500003,2.57647180575,1.1996366378333334,0.09644027303333334,0.8287907838833333
0 days 00:00:03.387090109,-11.9198460555,-3.570091367,3.601197958,-0.013337207416666644,0.7435496772166666,0.31871869659999996
0 days 00:00:03.407090109,-14.182260035,-0.53539407265,5.09431934375,-0.519998650925,1.095967754725,0.20280710605000002
0 days 00:00:03.427090109,-13.607383965,-0.462412983175,3.94396984575,-1.49081552,2.1159592272500003,0.2915352136
0 days 00:00:03.447090109,-12.230912761666666,-1.8648063542500004,2.0865413344999997,-1.905898094,2.97269702,0.5838339925
0 days 00:00:03.467090109,-4.692923427,6.2745789885,2.88095843775,-1.5160136225,2.7894375919999996,0.37400196490000004
0 days 00:00:03.487090109,-5.984449625,0.4307080505000001,0.8243273494999999,-1.4288127221666667,2.0281983416666667,0.43539387481666664
0 days 00:00:03.507090109,-5.158327460500001,2.488535464,1.567298814625,-1.188895553,1.80197474375,0.37995789199999996
0 days 00:00:03.527090109,-7.448258877,1.1994023174500001,0.19202402095,-1.12872540925,1.75020399675,0.36636614795
0 days 00:00:03.547090109,-8.087740341833333,1.3100704051,-1.0679965121166666,-1.1386519670000002,1.9806527495,0.72494378685
0 days 00:00:03.567090109,-7.2041909695,2.520838618,-2.82293254125,-1.2713623642499998,1.50463634725,0.8407026529
0 days 00:00:03.587090109,-9.5521481055,4.0366917849999995,-1.4584253767,-1.6421063541666665,0.49635309474999995,0.13240493833333333
0 days 00:00:03.607090109,-14.469996927500002,5.5094740390000005,1.1874382624,-1.5700751837500002,0.11384992305,-0.438906356675
0 days 00:00:03.627090109,-13.490136142499999,6.78783965075,1.109073311025,-1.10887226455,0.17844887825,-0.36865691092499997
0 days 00:00:03.647090109,-9.935797293,6.7912294866666665,-0.012761726933333365,-0.6750055551999999,0.2622900605,0.2448040545
0 days 00:00:03.667090109,-7.903493404,5.369493961,0.2560320199,-0.550847306875,-0.18303035200000004,0.45967575164999996
0 days 00:00:03.687090109,-8.770891428,5.92343235,0.119641130815,-0.7226530413000001,-1.5941279730833333,0.6786198715166667
0 days 00:00:03.707090109,-10.124630453,7.365706205,1.0438688349325,-0.879645273075,-2.41879546625,0.692873366175
0 days 00:00:03.727090109,-12.5425777475,5.5351971385,2.2031914295000004,-0.7877101302,-2.39924782525,0.492204286175
0 days 00:00:03.747090109,-15.531812031666666,2.1523440081666667,4.1786659165,-0.9544762076,-2.4478114845,0.46288277209999995
0 days 00:00:03.767090109,-16.37588048,1.9639091789999998,4.795814753,-1.133154154,-2.461555958,0.4060723484
0 days 00:00:03.787090109,-15.312869075,6.421139598,5.8301124575,-0.81825336815,-1.5687771041833332,0.6353502671333333
0 days 00:00:03.807090109,-9.180064202,8.2259259225,5.511268973,-0.808479502725,-0.7117338441500001,-0.09422589079999999
0 days 00:00:03.827090109,-7.59422075725,5.0733821395,3.7369908095000004,-1.2716677187499998,-0.250836346275,-1.33596125225
0 days 00:00:03.847090109,-2.4247268831666666,4.596612214833333,3.3431720929999997,-2.2840234635,-1.0721440611000002,-2.6623014215
0 days 00:00:03.867090109,-2.52203506225,6.84885656825,1.8598214092499998,-2.8386886715,-1.98141619575,-3.24369192125
0 days 00:00:03.887090109,-4.3010987045,5.471189022000001,3.8045880795,-2.5948517918333334,-2.081903438,-3.1498732566666665
0 days 00:00:03.907090109,-5.13260459925,4.4291148182499995,2.6823541522500003,-0.8849903418249999,-1.7514257132500002,-2.01646471025
0 days 00:00:03.927090109,-5.753940900333333,3.252643704,0.20179462433333337,-0.34900740780000006,-1.7444007796666667,-0.9767218428000001
0 days 00:00:03.947090109,-5.679364681,2.5591238140000003,-0.6568298339999998,-1.1731658279000001,-1.8525238035,0.23655739425
0 days 00:00:03.967090109,-4.16829717125,4.1192441585,3.8703906537500004,-1.8125885130000001,-1.6333760317500001,1.5809180887249998
0 days 00:00:03.987090109,-3.4085758925,4.711467743,7.6331040859999995,-1.0265582750333333,-0.83543394005,2.1772747438333333
0 days 00:00:04.007090109,-3.617947817,4.438685894,7.853243828,-0.33169958,-0.5770381689,2.481790781
0 days 00:00:04.027090109,-5.3300123809999995,3.5808591245,6.82851767525,0.144622229,-0.762130200925,2.6659665107499997
0 days 00:00:04.047090109,-8.768099467,3.4787653686666666,5.274179935166667,1.573587656,-1.317406297,3.2184937
0 days 00:00:04.067090109,-8.3216385845,5.57228577175,6.3314085005,0.8868229240250001,-1.85985419125,2.73881226775
0 days 00:00:04.087090109,-5.02014184,7.345965624000001,11.583654404999999,0.3422878980333333,-1.3473385968333333,1.5414663353333333
0 days 00:00:04.107090109,-5.494519114500001,5.17866647225,8.47119045325,0.19288055782000002,-0.81206833565,1.125518321875
0 days 00:00:04.127090109,-5.785246849,4.1581276655,6.785446643749999,-0.0247400216775,0.28367033525725,0.45142908389999997
0 days 00:00:04.147090109,-5.470790068333334,3.456432342333333,8.0829550425,0.31703883037499997,-0.08620829288550001,0.014813467850000003
0 days 00:00:04.167090109,-5.6638110875,2.85762849475,8.08833897125,0.5351175666,-0.1738673896,-0.2756527364
0 days 00:00:04.187090109,-5.0739803315,1.6031911970000001,7.148557662999999,0.5576177289333334,0.15325070173333333,-0.49016806981666666
0 days 00:00:04.207090109,-5.331208706,1.251446247,6.723831654,0.31734426317500003,0.18547382205000001,-0.517860598875
0 days 00:00:04.227090109,-4.4769712685,2.136192381,5.831907033749999,0.33872453125,-0.149738229825,-0.48502665017499996
0 days 00:00:04.247090109,-4.241278171333334,5.389434337499999,8.194619735333333,0.21258094160000005,-0.1845575236,-0.6757691801
0 days 00:00:04.267090109,-6.377470493500001,3.352942765,9.28594648875,-0.398741994075,0.53015428225,-1.101541950975
0 days 00:00:04.287090109,-9.2147603035,1.6474583745,6.8255267145000005,-1.1978040142333333,1.37365671035,-1.1598794655
0 days 00:00:04.307090109,-9.56291580175,1.9178473055,6.46660339875,-1.1436915698749999,1.40613436725,-0.8857538920700001
0 days 00:00:04.327090109,-9.7716891765,4.43629324425,10.222138168499999,-0.541073463875,1.1591923235000001,0.011301003389999995
0 days 00:00:04.347090109,-9.444071849166667,5.487141211666667,10.525627774166667,-0.33169958,1.267773509,0.3260490894
0 days 00:00:04.367090109,-7.574480175750001,6.8464637992499995,5.14217591275,0.48609564452500004,2.1309254465,1.14521878935
0 days 00:00:04.387090109,-7.373483181,6.483352899500001,2.919243574,0.82507469255,2.029318213666667,1.5919645426666669
0 days 00:00:04.407090109,-5.5788660045,5.71645331425,3.60359084575,0.9303470552499999,1.035950303025,1.8258748052500002
0 days 00:00:04.427090109,-4.655236482499999,5.4999027255,5.3300125595,1.21073401,0.5970439911,1.850156665
0 days 00:00:04.447090109,-3.679363569,4.752943515666666,3.9864426453333337,1.9538510444999997,0.48983721435,1.788153887
0 days 00:00:04.467090109,-4.1204404835,4.768895626,3.1058838665,3.30126601475,-0.28947354105,1.6528474095
0 days 00:00:04.487090109,-6.034698486500001,4.839483737999999,1.625922978,3.3804239035,-0.4827613432833333,1.5294527413333334
0 days 00:00:04.507090109,-4.0995033979999995,4.33579480625,-3.8201414345,2.617402911,-0.48586659135,1.0048725753
0 days 00:00:04.527090109,-3.412165165,4.29750967,-5.659025669,2.162461281,-0.9563851953,0.9155336022
0 days 00:00:04.547090109,-8.552346785833334,4.171088774666667,0.2703889011666667,1.1899645702000001,-0.26427538695,1.3608539996
0 days 00:00:04.567090109,-7.9304124115,5.77926504625,1.746162295,0.2174678594,0.4278344214,1.806174397
0 days 00:00:04.587090109,-7.8711900715,5.335994482,3.0125636455,0.37334019199999996,0.39321875075,1.9977823293333332
0 days 00:00:04.607090109,-8.366504073249999,6.3912293912500004,1.9154544475,1.152701855,0.2201403975,2.955821991
0 days 00:00:04.627090109,-8.672187567000002,6.37627434725,3.0592237715,1.2673917117500002,0.7251728326250001,3.3568546772500003
0 days 00:00:04.647090109,-4.02034086,3.662215034166666,4.0897325675000005,1.7605122925000003,2.4794237615,4.6995353699999995
0 days 00:00:04.667090109,-0.8602197749725,2.5136602519999998,3.04187578,2.19315719625,3.04798626875,5.00267696375
0 days 00:00:04.687090109,0.745364252555,1.7156538965,1.9752750995000001,2.378809293166667,3.3944991425000004,5.0083275636666675
0 days 00:00:04.707090109,1.23828572075,0.91226363195,0.4348955229,2.33090734475,3.4448955055,4.884780168500001
0 days 00:00:04.727090109,1.177268744,0.8063812256,0.2105683982,2.0376922485,3.4393978715,4.51444339725
0 days 00:00:04.747090109,1.8101702928333332,1.1864412228333334,-1.3419746606333334,1.7531819339999999,3.395415545,4.427395344
0 days 00:00:04.767090109,5.40478825625,7.770093202250001,-3.761517167,1.2817470427500002,2.595488012,4.1735807655
0 days 00:00:04.787090109,20.183458805,27.6717968,-10.456634996,0.7234675285,1.4346412818333334,3.060585101166667
0 days 00:00:04.807090109,23.2002100925,37.311880114999994,-8.71346354375,-1.282205224,-3.036379814,-2.081368923
0 days 00:00:04.827090109,0.15613162500000044,25.843680380000002,13.377673863750001,-0.7296780198499999,-2.4094798116750002,-2.3350305555
0 days 00:00:04.847090109,-4.847858746666667,9.760722279166668,5.138187914833334,1.8527528943,1.33160886165,-1.7117958514
0 days 00:00:04.867090109,-1.0564311666,3.62871545525,0.682552665475,2.777602196,3.191997528,-0.3275762498
0 days 00:00:04.887090109,2.4562323242999997,5.042873620999999,-0.98703929805,2.396727998833333,3.0183083615000004,0.4621700992166667
0 days 00:00:04.907090109,1.7712869197499999,10.179067611499999,-2.5758736134999998,1.437975645,2.316017389,0.5453495383
0 days 00:00:04.927090109,-0.946361318,10.555936814999999,-1.3878371566499998,0.8538362085250001,1.764406509475,0.5897899568
0 days 00:00:04.947090109,-1.4189437927166668,10.353344598333333,0.3756731648666667,-0.8985821009,0.1095738709,0.7231112123
0 days 00:00:04.967090109,-0.8470591903,10.71506023,1.392622828,-0.2800815049625,0.14164427297499999,0.961806580325
0 days 00:00:04.987090109,-0.5970092416,10.94836044,1.0695917604,0.36091927809166663,0.5124392038,0.8756237625666666
0 days 00:00:05.007090109,-0.14057833515249998,10.9196460275,1.00498554095,0.6487383842,1.081459761,0.6626355648
0 days 00:00:05.027090109,-0.07178468257,10.83230782,1.091127157,0.6487383842,1.081459761,0.6626355648
0 days 00:00:05.047090109,0.10289137558833335,9.924231688666667,-0.5068796078000001,0.6487383842,1.081459761,0.6626355648
0 days 00:00:05.067090109,-0.47258246877499993,10.3740828025,-1.8047865029999999,-0.028405219300000034,1.6495639679999998,0.43905904889999997
0 days 00:00:05.087090109,-1.6486548184999998,11.539387224999999,-2.5579274890000003,-0.45407615100000004,1.7048472163333332,0.309148472435
0 days 00:00:05.107090109,-1.008574739075,12.83749318,-1.1072786897,-1.5639665125,1.0165553243,-0.1291979020425
0 days 00:00:05.127090109,-0.09631110724999999,13.46202016,-0.9726824016500001,-1.9309435485,0.820925898875,-0.8663589805
0 days 00:00:05.147090109,2.1419749856166668,13.978072166666665,0.9008977611666666,-2.040899277,0.3948477208999999,-1.625053048
0 days 00:00:05.167090109,4.688735962,14.234303472499999,2.4909284415,-2.040899277,0.3948477209,-1.625053048
0 days 00:00:05.187090109,6.093322992499999,13.5972147,0.11126625550000006,-2.0164645511666666,1.1345031409833333,-2.8732534846666673
0 days 00:00:05.207090109,5.378467083,12.4666059025,-3.2051858605,-2.235612273,0.38125598425000007,-2.6957463622500004
0 days 00:00:05.227090109,2.9922246340000003,12.266805175,-1.4333007634,-2.7863069175,-2.227136582,-1.5083779095
0 days 00:00:05.247090109,1.8113666627333334,11.958130998333333,-0.44506503145,-2.422078848,-1.941710114,-1.790597439
0 days 00:00:05.267090109,0.25184457755,10.1712906355,0.08554340897500001,-2.40100401675,1.866879076,-1.1354449093499999
0 days 00:00:05.287090109,2.356930256,9.458827972,-1.732403636,-2.393979073,3.136408806,-0.9170607328
0 days 00:00:05.307090109,1.55832576725,6.4366929527500005,-0.53001022715,-2.159254283,2.7570617795,-1.0432043076
0 days 00:00:05.327090109,1.013958588175,4.95553565,0.419940356125,-1.455079913,1.6190207,-1.421635032
0 days 00:00:05.347090109,0.47338005899999996,4.887738943166667,0.7665008306333334,-1.5054762365,1.476078391,-1.2567015289999999
0 days 00:00:05.367090109,-1.487139254725,6.7136622665,1.159920796825,-1.0651954562750001,0.453032605425,-0.7999274134000001
0 days 00:00:05.387090109,-3.2446674105,9.609575748,1.9202402235000002,-0.3175478726666667,-0.12245292961666666,-0.7698423267
0 days 00:00:05.407090109,-2.19362017475,8.167900204750001,1.01694963875,-0.342084266225,0.14424044265000002,-0.99815306105
0 days 00:00:05.427090109,-0.44446682046525,5.592026472000001,0.82971125845,-0.332921294475,0.03291033585,-0.77503467355
0 days 00:00:05.447090109,-0.016749758505833334,4.850251436000001,0.9710871875000001,0.051618073100000016,-0.6014727205,-0.293062374
0 days 00:00:05.467090109,-0.40139598595000003,4.350749969500001,1.845464438,0.2272416949,-0.892244339,-0.1711948514
0 days 00:00:05.487090109,-1.3758729700000003,4.323830605,2.428714991,0.7633773385833335,-1.0079014501666668,0.11489348608333333
0 days 00:00:05.507090109,-1.4279169437500001,4.11924421825,3.0640094277500003,1.1326960322500002,-1.2141700985,0.5117519647000001
0 days 00:00:05.527090109,-0.903290584525,4.411766887,4.34357148425,1.228449106,-1.454239964,0.7316632867
0 days 00:00:05.547090109,-0.45184468482333334,7.403393428,5.325625737666667,1.343902528,-1.5605304240000002,0.74082624915
0 days 00:00:05.567090109,-2.20438787375,13.3669054525,7.45842838275,1.16155940275,-1.36444285525,0.40271259102499996
0 days 00:00:05.587090109,-7.2909306285,20.33061695,11.105090139,0.3207040131166667,0.5164097945666666,-1.0473785349166667
0 days 00:00:05.607090109,-14.64945865,19.683358665,7.470990657,-0.496480345725,1.54403708165,-1.83473232375
0 days 00:00:05.627090109,-15.81416512,18.17109489,5.424529076,-0.5839866996,0.2396880686,-1.27624929
0 days 00:00:05.647090109,-5.7455660606166665,6.270391582999999,3.810171227,-0.5073231906000001,-0.3082576245,-0.56062117245
0 days 00:00:05.667090109,0.34157545872499995,1.1551351250000002,1.01216393725,-0.4306596816,-0.8562033176,0.1550069451
0 days 00:00:05.687090109,2.920440078,3.370290577,-0.8709874155,0.4060214509333333,-0.3856338361666667,0.15846850911833332
0 days 00:00:05.707090109,2.81635230775,7.5810604095,-2.036292106,0.8704823256,-0.5128973126,0.05849030241
0 days 00:00:05.727090109,3.287140131,14.8905353545,-2.84147685775,0.9575305582000001,-0.5735256522500001,0.4236347275574999
0 days 00:00:05.747090109,5.380660692833334,19.484356563166667,4.065007010766666,1.4492766860000001,-0.8992693426000001,1.613752067
0 days 00:00:05.767090109,6.08016240625,8.29352331175,17.2935280785,2.1059564055,1.3859757779999997,1.543044418
0 days 00:00:05.787090109,5.514259696,8.221738577,-5.127818823,0.6154462745,1.4132610761666669,0.8291980325833334
0 days 00:00:05.807090109,1.2335000932,6.23868680025,-3.1136604547499998,0.06856956335,0.912708307,0.640949875075
0 days 00:00:05.827090109,0.5455635786,5.709274769,-2.249253273,-0.5925388336,-0.119500421,0.4714348912
0 days 00:00:05.847090109,-0.9144570228333332,6.610172510333334,-1.7276179191666667,-0.62857985495,-0.3329976611,1.2371539176
0 days 00:00:05.867090109,-0.7393822074,8.75294542425,-1.242473177775,-0.6646208763,-0.5464949012,2.002872944
0 days 00:00:05.887090109,-0.2225325108,10.36810017,-0.3756731451,-0.54519681259,-0.6038143833666667,2.0946044525
0 days 00:00:05.907090109,0.6047859192,11.487941745,-0.1495514139675,0.05192350596,-0.8904117942,2.553261995
0 days 00:00:05.927090109,0.754935547725,10.886744975,0.9451649186025,0.3787361624699999,-1.3074796944,2.32250782825
0 days 00:00:05.947090109,-1.1748758850166667,9.4261260825,2.6580271325,1.784030616,-2.5272239444999998,1.1727076471
0 days 00:00:05.967090109,-2.7505496142499997,7.831708550749999,4.066601932,2.81822472825,-1.4786745907499999,0.49938195939999996
0 days 00:00:05.987090109,-0.9966106525399999,8.1930246355,1.6977076532,3.1827073101666663,-0.09404772524999998,0.2604829271333333
0 days 00:00:06.007090109,1.38903352048,8.9222371575,1.31904348735,3.1346526150000003,0.546800345225,0.003359764799999998
0 days 00:00:06.027090109,1.873580098,9.052047729,1.521835208,2.893666506,1.841986418,-0.6678279042
0 days 00:00:06.047090109,1.4396816293666665,8.405587037166667,0.4709872628133333,2.568380952,2.5884631875,-0.75121095775
0 days 00:00:06.067090109,3.060420275,8.427521706,1.409372568,2.36862814425,2.811276019,-0.815809920425
0 days 00:00:06.087090109,2.3724837305,8.1224365235,-0.21535402550000007,1.9895865643666666,2.1206424587333332,-0.45993027083333343
0 days 00:00:06.107090109,1.72402876625,9.215358019,-0.6179464534,-0.24174973742499997,-0.363693624715,1.25990864675
0 days 00:00:06.127090109,0.1363908947,9.952347758750001,-0.440279372,-0.623845651725,-0.01992946492,1.144913316
0 days 00:00:06.147090109,-0.6113661924666666,10.713066099999999,-0.18664016823333332,-0.627968967,0.1468366235,1.054199934
0 days 00:00:06.167090109,-0.650249570625,11.6638143025,0.21535402999749997,0.10231985895000001,0.767169799625,0.7903063297499999
0 days 00:00:06.187090109,-1.12941229345,12.305090424999998,-0.6472584961050001,0.44664396344999996,0.9662099083000001,0.6928733885500001
0 days 00:00:06.207090109,-1.517049551,12.02393341,-1.323230863,0.908203199525,0.9270636737,0.708297714575
0 days 00:00:06.227090109,-2.430509627,11.2791676525,-0.743569642375,0.77946347,0.9256892204,0.8965967894
0 days 00:00:06.247090109,-0.6165506393166666,12.780863288333334,1.3324033815833334,0.6108647883,1.2989276052,0.49464775996500004
0 days 00:00:06.267090109,-0.608973376525,13.319647312499999,0.5862415133500001,0.13988803606,1.8989495335000002,-0.07223475536749999
0 days 00:00:06.287090109,-2.5028925539999998,13.331611160000001,-0.19501502810000002,-1.2879066161866668,1.6504802505,-0.48324494563333337
0 days 00:00:06.307090109,-3.0813573004999997,11.019546745,0.53838511555,-2.141691923,1.276325583,-1.002581835
0 days 00:00:06.327090109,-0.652642346975,9.73220777425,2.1469601094,-2.2464552520000005,1.105741589925,-1.33519768725
0 days 00:00:06.347090109,0.8295118659166666,10.139186859166667,1.8480566739999997,-2.760803461,0.3942368403,-3.0135486124999997
0 days 00:00:06.367090109,3.54257398825,13.117453574999999,-2.6997021432499997,-2.960861683,0.1944840699,-3.694051981
0 days 00:00:06.387090109,1.6438691620000003,12.70828152,-4.115654945,-3.0158394973333333,-0.5430333390833332,-3.7000588178333333
0 days 00:00:06.407090109,5.92044132925,21.754945515,3.385843873,-3.08074378975,-3.68298012,-3.7624688742499997
0 days 00:00:06.427090109,7.0103720425,25.12403965,4.12761902775,-2.450789452,-2.040059328,-3.859596491
0 days 00:00:06.447090109,7.164110978666667,18.153148968333333,0.9826525055,-1.8368703725,0.24304783350000023,-2.8867942689999997
0 days 00:00:06.467090109,4.386043757125,9.00837897925,-2.12243369225,-1.024572968475,2.060675949,-2.0830489095000004
0 days 00:00:06.487090109,-0.18424737475000005,6.050251961,-0.89132644245,-1.46291931505,1.353192707,-2.2951717769999997
0 days 00:00:06.507090109,-2.24566403025,5.843272805250001,-0.0550349224225,-1.7206533257499999,1.18958276525,-2.1497859354999997
0 days 00:00:06.527090109,-2.65364027,5.752345562,0.04546362907,-2.0399828855,0.8143590951999999,-1.4388919470500001
0 days 00:00:06.547090109,0.7282156943333332,4.7569313446666674,0.8989036763116666,-1.586415887,0.1669951528,-0.8950695991999998
0 days 00:00:06.567090109,2.01296204325,3.60538560125,-0.5491527728999999,-1.34497156775,0.020387609949999996,-0.009468398974999986
0 days 00:00:06.587090109,2.7278178929999997,2.7038896085000004,-1.0911270678999998,-1.1226676998666667,-0.47960520258333333,0.2787070597333333
0 days 00:00:06.607090109,2.880958557,2.27078867,0.6963114142,-0.34483318027500004,-0.6482038833175,0.07803797535250001
0 days 00:00:06.627090109,3.4301113485,-0.004785656799999982,2.0673987718,0.4184423685,0.01977674663,-0.05940660089
0 days 00:00:06.647090109,3.3726835053333333,-1.33120702715,1.1661022109666666,0.92423838375,0.039324419575,0.015118904415
0 days 00:00:06.667090109,0.7028916775,-0.15433703362500006,0.332602351925,1.9761475327499998,-0.7955749958699999,0.392938764755
0 days 00:00:06.687090109,-1.8747766014999998,2.7505497334999998,1.06360965965,2.3816600245,-2.642677347,1.1017455605166668
0 days 00:00:06.707090109,-5.425127148750001,18.510277393,17.775681138499998,1.10948318205,-4.03392207625,1.23898652185
0 days 00:00:06.727090109,-13.61276781225,26.767309665,10.291530132750001,0.9676098226500001,-1.0356448887499998,0.44302968685
0 days 00:00:06.747090109,-16.320645175,19.502301534166666,3.907479346,1.794109821,4.275671482,-0.6171261668
0 days 00:00:06.767090109,-6.895516574249999,9.71545791625,0.3505485355,1.57832190375,1.1084904558775,-0.1049160323975
0 days 00:00:06.787090109,8.1260257965,13.740784645,10.0343017575,0.9629265167166666,-0.146480284705,-0.5084940120216667
0 days 00:00:06.807090109,11.2528464825,21.595822337499996,8.94138002375,-1.039539143525,1.195538729225,-0.72937254605
0 days 00:00:06.827090109,0.08255237450000008,17.0697982325,-5.863013986250001,-2.0749549272500003,-0.36170831307500007,-0.5429060682875
0 days 00:00:06.847090109,-1.4612169960166668,8.646065712,-1.0715858239073335,-1.9975278380000001,-3.0027822255000003,0.293367817975
0 days 00:00:06.867090109,0.815952524675,5.615356445250001,-0.14536398213299997,-1.53296518325,-2.50645452775,0.733343154175
0 days 00:00:06.887090109,1.3292129639999999,5.645864963499999,-0.64366930725,-1.25044018,-2.1935899256666667,0.70519245665
0 days 00:00:06.907090109,1.65224403175,7.103094101,-0.716650396575,-1.1519382295249998,-1.9160537122499999,0.6911934763250001
0 days 00:00:06.927090109,1.995015949,9.147163153000001,-0.6496513337,-0.87277305125,-0.863381027575,0.7367029190000001
0 days 00:00:06.947090109,1.6705890098500003,10.506485302,-1.1118649048333333,-0.23640467224999995,0.1214857339,0.82390385865
0 days 00:00:06.967090109,0.415154751375,10.307681563500001,-1.5002998112750001,0.1356119812,0.2299142331,0.8391754627
0 days 00:00:06.987090109,-0.9200403169000001,8.242077588999999,8.05065161095,1.406108930533333,-0.9962949929999999,0.90850861875
0 days 00:00:07.007090109,-1.7042879165,6.9822564125,9.640682221,3.04057937875,0.958065040425,1.0658062997500002
0 days 00:00:07.027090109,-1.4087742865,7.747361779249999,-1.3088738917500002,3.488648653,2.600069523,1.216079116
0 days 00:00:07.047090109,-0.9786644677499999,9.276973088333333,1.8640087841666666,3.1465644835,2.7524802685,0.9637919367
0 days 00:00:07.067090109,-1.2705888350666668,9.438887278000001,2.943171819,3.1267113681666667,1.7936262881666665,0.30527966965000003
0 days 00:00:07.087090109,-1.983649969,8.489734411,2.8235307935,3.120908141,1.6626976130000002,0.10705404960800001
0 days 00:00:07.107090109,-1.3501501975,7.40638411025,-1.16291177225,2.499200523,1.595197022,-0.043829549338000005
0 days 00:00:07.127090109,-1.138983607,7.305287361,-2.536391973,0.557108670425,0.587117374,-0.1320995129675
0 days 00:00:07.147090109,-1.6103696423333334,7.682555754666667,0.22333014512666663,-0.3179551214,-1.3534472585000001,0.077732540665
0 days 00:00:07.167090109,-1.5044872762,6.38883638375,3.4588252602500003,-0.1452331002675,-1.4201842842499999,0.35353798420000004
0 days 00:00:07.187090109,-0.9499505758,5.491528034000001,1.574477315,0.24414229271833332,-0.4348084628333333,0.42307476206666667
0 days 00:00:07.207090109,-1.4309079352,5.70329272775,0.592821806675,0.2345720776625,-0.1676060184875,0.403170749575
0 days 00:00:07.227090109,-1.2017951605000001,7.60259604475,-0.229710981275,-0.009773836005000001,0.1056032478875,0.3219257295
0 days 00:00:07.247090109,-1.2554342748333334,8.5088772775,0.5918248122066666,-0.130725063385,0.053374308179999996,0.31596980989999995
0 days 00:00:07.267090109,-1.15932253025,8.7212400435,3.19621291775,0.007177662100000003,0.60956670484,0.31459537150000005
0 days 00:00:07.287090109,-1.9549360875000001,8.7768731115,0.41635116954999996,-0.1426369299666667,1.0903172693,0.16101378080833334
0 days 00:00:07.307090109,-3.3535408975000003,9.557531595,2.234298184275,-0.3915643245,1.3758965727499999,0.0774271101725
0 days 00:00:07.327090109,-3.4767712355000002,10.0241322485,1.5128621308999999,-0.52503828705,2.0757948752499997,-0.05528326564499998
0 days 00:00:07.347090109,-1.3020943205,12.53878927,0.9160522959849998,-0.7165443897,2.031354427,-0.2774853408
0 days 00:00:07.367090109,1.4081760945,15.0275244725,0.06161518115750002,-1.684154153175,1.147585824025,-1.22310405195
0 days 00:00:07.387090109,0.6532405614000001,12.903295995,-0.09451650080000001,-2.8836890458333335,0.6313542078,-2.566904703666667
0 days 00:00:07.407090109,0.481555581075,12.1770741925,1.224526986225,-3.371362686,0.2537379563,-3.187034369
0 days 00:00:07.427090109,0.728016302,13.844871994999998,2.07038974775,-3.1926847694999996,0.370718561125,-3.160309017
0 days 00:00:07.447090109,2.9551360704166663,18.240885413333334,2.48733916375,-1.9969170095,1.5267801282999998,-2.8739660975
0 days 00:00:07.467090109,4.4339004755,16.27897024025,0.24406791475,-1.337182999,2.331899881,-2.667799234
0 days 00:00:07.487090109,2.6033910217,6.153143286500001,-0.5587240756,0.32915432248333326,1.4698679051666665,-1.5391247271833333
0 days 00:00:07.507090109,-0.3433700502,2.256431699,-0.699302420025,0.268169641475,0.95669057945,-0.39034257825
0 days 00:00:07.527090109,-0.6921239644499999,3.11665141625,0.011365901649999996,-0.3530798554,0.5677224398,0.8232930303
0 days 00:00:07.547090109,-0.66600230335,5.164110143833333,1.2051850284666668,-0.170736712385,0.1566104442,1.49341169015
0 days 00:00:07.567090109,-1.064207896525,4.99800825075,2.9234309795,0.2846629931325,-0.385990187525,2.2098032830000003
0 days 00:00:07.587090109,-2.6237300635,4.0199420450000005,3.116651416,1.1169662627166668,-0.6751837283666667,2.601011355833333
0 days 00:00:07.607090109,-2.35633212325,5.67816829675,2.00877454875,1.44332078125,-0.594447769225,3.2554510829999996
0 days 00:00:07.627090109,-0.4241278171,8.91804993125,-0.5365905162500001,1.1736239789999998,-0.42172577229999997,3.333183646
0 days 00:00:07.647090109,0.7034898895666667,11.609177904166666,-2.200998038166667,0.85887587085,-1.3302343787000002,2.6302310225000003
0 days 00:00:07.667090109,-1.5260226576,10.730015036,1.5678970070000002,1.0265582796750001,-2.5347070695,1.6830851730000003
0 days 00:00:07.687090109,-4.468596458,8.988637924,7.697710276,1.7207042775,-1.6484949685833332,1.635132273
0 days 00:00:07.707090109,-4.340580463,8.501698494,8.111668587,2.651611209,0.610024839675,1.5299108772249999
0 days 00:00:07.727090109,0.6646064517499999,9.8709912285,1.4051850588,2.5466952325,0.21219913665,0.44486226142499996
0 days 00:00:07.747090109,2.1080767711666666,12.723435243333334,-0.9830512702666666,1.7953315975,-0.8305470346999999,-0.7249437571
0 days 00:00:07.767090109,2.514856577,16.55833244,3.728017569,0.611933805175,-0.05398518587499998,-0.9037744402999999
0 days 00:00:07.787090109,-0.9738787409999997,15.51625824,2.37487644,0.13296489418333332,0.0855465184,-0.6648754080166667
0 days 00:00:07.807090109,-0.8769694565749999,11.105687857749999,1.70548439025,-0.786946564925,-0.6570614204,0.499076537775
0 days 00:00:07.827090109,0.7471588849749999,8.733802557,-0.48933225850000006,-0.870024159625,-0.533361293375,0.20326524975
0 days 00:00:07.847090109,-0.18624136474833333,10.417153357833334,-0.7341977555833333,-1.285564959,-0.58803369105,-0.38621926305000004
0 days 00:00:07.867090109,0.005982058132500009,13.1078825025,0.713061153975,-1.502727389,-0.4860192835,-0.4937314689
0 days 00:00:07.887090109,0.5000999272,12.768101215,-0.041874408500000015,-1.1047489443333334,0.5525526628333334,-0.32167121021666667
0 days 00:00:07.907090109,1.0283155288999999,10.012766122999999,-1.25623187425,-0.47632181642500004,-0.023441936775000005,-0.16523892429999998
0 days 00:00:07.927090109,0.829711243375,7.474579811250001,-1.047458112275,-0.2724456787,-0.6094139814,-0.2023489624
0 days 00:00:07.947090109,0.06221338610000001,6.4175504048333325,-0.18145572146666664,-0.23854269085000002,-0.553825289,-0.15103631838
0 days 00:00:07.967090109,-0.961914688275,7.770691633,0.46660040322499996,-0.021380267095,-0.2948186137,0.240222563935
0 days 00:00:07.987090109,-1.546959817,7.9046895505,0.8961120544000001,0.42811438133999996,-0.1598174969,0.8060869872833333
0 days 00:00:08.007090109,-1.98125711075,7.04088067975,1.74018025425,0.7041743547249999,-0.088804466615,0.9695951343
0 days 00:00:08.027090109,-2.038684845,6.845865726,1.909472466,1.4359903635000002,0.292986014855,1.18019077175
0 days 00:00:08.047090109,-3.2155548728333336,9.234700599666667,2.4295125406666664,1.8215987685000001,1.3911681771,1.04503691175
0 days 00:00:08.067090109,-3.220739275,10.0468645065,3.7950165867499996,1.797164202,1.862144947,0.9350812435
0 days 00:00:08.087090109,-1.512263954,8.1607217785,2.566302195,0.9566142845650001,4.628853241666667,-0.10257438816333332
0 days 00:00:08.107090109,-1.1533404885,8.3922274115,-0.582652322975,-0.08918625861,4.620199203,-1.33244884
0 days 00:00:08.127090109,-0.3080759029125,10.77846932125,-1.8323038813249999,-0.8515455034575001,3.3169192519,-2.0428846180000004
0 days 00:00:08.147090109,-1.3156536085916668,11.779068148333332,1.7854445381666666,-3.2552983765000003,-0.8348230422,-4.199542761
0 days 00:00:08.167090109,-1.310668572875,11.71884894,2.148156553775,-3.37518054275,-0.624532870975,-3.8886125089999997
0 days 00:00:08.187090109,0.19621142744999998,12.86142206,-0.44267219294999993,-3.0983061395,0.6552797207833333,-3.3305874669999995
0 days 00:00:08.207090109,4.4703910646,17.322241067500002,-1.3824533225,-2.60549098275,1.193553403,-3.10074961225
0 days 00:00:08.227090109,7.615756392250001,17.530417442500003,-1.083948702,-0.768315151575,1.66804263,-2.6342017055
0 days 00:00:08.247090109,6.616154511833333,12.319846550000001,-1.2358928624,1.17499837285,-0.26977315545,-2.176969349
0 days 00:00:08.267090109,2.3676980284999996,2.9132616820000004,1.7982062549499997,1.5376994014999998,-0.948596641425,-1.49661868775
0 days 00:00:08.287090109,-0.7082754970000001,-1.627119422,5.469992638,1.189659198,-0.92920169235,-0.07905607916666667
0 days 00:00:08.307090109,-3.4414771052499997,0.41694933174999993,3.52821707725,1.1711805162500002,-1.041753515575,1.1236857696
0 days 00:00:08.327090109,-3.61316210075,3.097508937,2.4717857835,1.3562724885000002,-1.409341365,4.09584838125
0 days 00:00:08.347090109,-0.015553315499999979,7.6343008285,1.6386847498333335,1.4718786474999999,-1.0150281787,4.655858755000001
0 days 00:00:08.367090109,3.3188450935000002,12.046665910000002,-2.1445673107500003,1.1746929289999999,-0.41912959520000004,3.974286377
0 days 00:00:08.387090109,1.684547170945,13.35673571,-1.8305093645000001,0.8421789110333333,-0.8398118118333334,2.3761113286666666
0 days 00:00:08.407090109,-4.4183468895275,12.1328067825,6.6221363247500005,1.0502292662500001,-0.6671407372,1.7008002695
0 days 00:00:08.427090109,-4.18624317675,9.712466956250001,4.745565474,2.048076838,0.6559923887500001,1.6613995132500001
0 days 00:00:08.447090109,-2.409173608,10.907283462499999,-1.464008629166667,2.984074354,0.9171370864,1.765857339
0 days 00:00:08.467090109,-2.002792597,13.54337597,1.076770186,2.071442455,-0.5677224246499999,0.899040252
0 days 00:00:08.487090109,-2.4346970320000003,13.442877295,0.34217363575000004,-0.14884738133333333,-0.9400954444999999,-0.07742710411666665
0 days 00:00:08.507090109,-1.9854445757499999,13.279567005,0.6197410672749999,-1.304196358,-1.636888504,-0.6806560755
0 days 00:00:08.527090109,-0.14297114319999996,11.92523003,1.8903299718000002,-1.26494827875,-1.67598384625,-0.7034107893749999
0 days 00:00:08.547090109,2.2911276517333334,13.88196055,-1.173280695833333,-1.1756092905,-1.523878515,-0.9653190669999999
0 days 00:00:08.567090109,2.04466694625,13.222738029999999,-0.09332004174999997,-1.3158027532499998,-0.51320277155,-1.20157098725
0 days 00:00:08.587090109,0.86620178825,9.8404831905,2.0518454911000004,-0.7429133852500001,0.7332668205499999,-0.9508619407
0 days 00:00:08.607090109,0.3391826041,7.701897860000001,-0.98404833645,-0.33765551447500003,0.71967508645,-0.67836534975
0 days 00:00:08.627090109,-0.2111666016,6.98883664625,-1.80658108,-0.108123064,0.3490328491,-0.4112647176
0 days 00:00:08.647090109,-0.4650052040833333,6.868996064,-2.0977078280000003,-0.108123064,0.34903284910000004,-0.4112647176
0 days 00:00:08.667090109,-1.00737834,6.709474564,-2.608176708,-0.4604393095,-0.5599339232,0.29428410532499993
0 days 00:00:08.687090109,-1.9872392415000002,7.606782913499999,-1.7347964345499998,-0.34238969785,-1.1668281058833332,0.8122974534833333
0 days 00:00:08.707090109,-3.0873394605,11.28754258325,18.778871459725,0.1655443609,-1.019915104,1.095127821
0 days 00:00:08.727090109,-1.287936776825,10.7527468225,3.8153555385000004,0.568104244675,0.6340012549999997,0.9187406227249999
0 days 00:00:08.747090109,-0.72303122285,10.096515180333332,-2.5850460133333333,1.3836087283999998,5.3828639984999995,-0.13393209875
0 days 00:00:08.767090109,-0.7752745524,9.525228739,0.9421738964924999,0.37613999842499996,4.36042904875,-1.76387201235
0 days 00:00:08.787090109,-0.50249274075,10.584650995,-1.0648061075150002,-0.13174316291666668,3.362530524750001,-2.4195844330000003
0 days 00:00:08.807090109,-0.7968099117,10.82752228,-2.108076811,-1.645669699,-0.2777144015,-3.854098558
0 days 00:00:08.827090109,-0.8955138624,9.63589692175,-2.0560328365,-1.9370521905,-0.058566667149999974,-3.63953232725
0 days 00:00:08.847090109,0.5599205296166668,12.919647054833334,-1.6733806616000002,-2.6829180715,1.07107499245,-2.768897295
0 days 00:00:08.867090109,5.8899331095,16.6773757925,-0.267397934575,-1.373071283,1.23723027075,-2.19376802425
0 days 00:00:08.887090109,5.109872818,12.86261797,-0.3278167099,0.8441132903333334,-1.1980839966666668,-1.62393306675
0 days 00:00:08.907090109,2.0739789905,5.1140601645,5.3832525836750005,1.8270965515,-0.9562324612850001,-0.55390161830975
0 days 00:00:08.927090109,-1.2598210869999997,0.06699903310000005,2.242074772775,1.82358410925,0.093691385345,0.44974919969574995
0 days 00:00:08.947090109,-3.507080316166667,0.4941178858,1.00737834965,1.08825558415,-0.7328086796000001,2.662606835
0 days 00:00:08.967090109,-3.4289148149999997,3.2662029265,2.033301051425,0.6988292933,-1.705916286,3.522093534
0 days 00:00:08.987090109,-0.10408776999999987,9.268598318,-0.8446663691499999,0.7089085876833333,-1.8019238513333333,4.474533597333333
0 days 00:00:09.007090109,2.560320139,14.3736853575,-1.80059900875,0.5887209177000001,-2.4079526665,3.77025735425
0 days 00:00:09.027090109,2.230110645,15.820147035,1.1186445057499999,0.5974257588,-2.793255568,2.581361771
0 days 00:00:09.047090109,-2.4179472926666663,12.374881424999998,6.262016932333332,1.2257001698999999,-0.8375719790000001,1.800982058
0 days 00:00:09.067090109,-2.80857551125,7.55892693975,3.92662203325,2.6923864484999998,1.67980176225,0.952796324975
0 days 00:00:09.087090109,-2.170290232,8.688338995,-0.5694917439999999,2.2307764167166666,0.30107996863333336,0.8925243318166668
0 days 00:00:09.107090109,1.57627189175,11.17268681525,-6.178267896,-0.530230637525,-1.2372302561000001,0.9395100026250001
0 days 00:00:09.127090109,0.9152546674750001,13.74257827,1.0785648225,-1.46912983025,-2.4872123000000004,0.381332322975
0 days 00:00:09.147090109,-0.6951149801833333,16.78804302,3.191626652983333,-1.577558279,-1.972558737,-0.43142324684999994
0 days 00:00:09.167090109,-2.0781664699749998,16.0887408275,1.241276793175,-1.431256175,-1.29663682,-0.4864010811
0 days 00:00:09.187090109,-0.62213388085,9.3379902855,2.9096724242499996,-0.511090201655,0.03555743393333336,-0.7635300854666666
0 days 00:00:09.207090109,-0.6233302950999999,8.207979679000001,-1.4123635666249998,0.0337502807525,0.291611582075,-0.9300416111500001
0 days 00:00:09.227090109,1.1724830867,9.02931618725,-2.92941319975,-0.1343902498,-0.2306778133,-0.8938478827
0 days 00:00:09.247090109,1.373878955833333,9.147761027166666,-2.576272448166667,-0.54336423425,-0.45944668354999996,-0.9237802624499999
0 days 00:00:09.267090109,1.10907325145,8.921041011749999,-1.820339872161,-1.0911571979249999,-0.47059495005,-0.786946564925
0 days 00:00:09.287090109,-0.45463633560000005,8.7314095495,0.613759014178,-0.8381064931666667,-0.08091412826666668,-0.33989535275
0 days 00:00:09.307090109,-2.15473687625,8.674580336,0.903290569925,-0.458148598675,-0.095829410945,0.018478654300000008
0 days 00:00:09.327090109,-2.392822742,8.520841599,0.7944171429,0.5697841346750001,-0.424169234925,0.9573778211999999
0 days 00:00:09.347090109,-2.4514467915,8.455836455333333,3.1952158214833335,0.7727439404000002,-0.7040980458,1.253341794
0 days 00:00:09.367090109,-1.0396814196,9.41336417175,6.5365930500000005,1.27258405085,3.8714317533000004,0.6151408254749999
0 days 00:00:09.387090109,-1.3076775372,8.873782634500001,-0.860219768975,0.8089885761333333,4.864341736166667,-0.3332776426833333
0 days 00:00:09.407090109,-2.282752812,8.30369257925,-2.2055843437375002,-0.54137892265,3.58356186725,-1.8738276955000002
0 days 00:00:09.427090109,-1.88135677575,9.728020426,0.28773689275000003,-1.6943861839999999,1.192178934625,-2.998887956
0 days 00:00:09.447090109,-0.19980068506666668,11.806984743333333,0.4697908361666667,-2.4703371525,-0.29054254274999997,-3.6515970230000003
0 days 00:00:09.467090109,-0.44626141342500003,11.88096237,-1.4141581655,-3.1922265887499996,-0.4931969344,-3.77743512425
0 days 00:00:09.487090109,0.38045877204999995,13.750355245000002,-1.8855442405,-2.8306456013333334,1.2002728981333333,-2.9926774103333336
0 days 00:00:09.507090109,5.239683449,15.390037294999999,0.30089741925000013,-1.546098739225,1.130328901175,-2.4375032782500003
0 days 00:00:09.527090109,4.3513479825,12.251252169999999,1.0061818956750002,0.572227567325,-0.488920889775,-2.028834701
0 days 00:00:09.547090109,2.7102704841666667,7.895916064166667,2.2229322193166667,1.5485422015,-0.013515382999999992,-0.85627969365
0 days 00:00:09.567090109,0.73459652075,2.15712958575,2.3694926502499998,1.3831506075,0.647440314275,0.35796675455000004
0 days 00:00:09.587090109,-1.6199408770000001,2.196611166,1.115055323,0.8394300043666666,-0.8554906845833332,2.06843903675
0 days 00:00:09.607090109,-1.99681046575,3.9086757299999997,0.2644068948875,1.06489001215,-2.467206538,3.6731299159999997
0 days 00:00:09.627090109,-1.239482104675,5.660221815,-0.01734796399,1.2901464105,-2.9536074997500004,4.418842912000001
0 days 00:00:09.647090109,0.9902297456833334,9.584849914333335,2.4199413426716663,1.0366375446,-1.5357904286000001,4.4237298965
0 days 00:00:09.667090109,1.72941258525,12.21835089,-0.08015957477500002,0.738688230525,-0.46433360125,3.22093725225
0 days 00:00:09.687090109,-0.26799613250000015,11.825329304,-0.22253251100000004,0.83800464875,-0.8478548825000001,2.6142467263333335
0 days 00:00:09.707090109,-3.2327034775000003,5.432903707,8.5184487675,1.8098396065,-1.8454988825249998,1.337946564
0 days 00:00:09.727090109,-2.184048921,2.56749874375,8.93479967,2.8469353914999997,0.637361042175,1.4732531309999999
0 days 00:00:09.747090109,-0.42751765253333335,5.383452097166667,-0.9451649983333333,2.2550073865,1.6336814759999998,1.4735586045
0 days 00:00:09.767090109,1.7874385417499998,16.509279725,-4.3956152869250005,0.4888445512,0.1147662177,1.0661117583
0 days 00:00:09.787090109,0.74416786445,17.8073864,0.7357929796499999,-1.4918335925666666,-2.1368813364,0.043625920983333344
0 days 00:00:09.807090109,-2.980260580775,10.134202004,0.60538414865,-1.82770741,-2.513479471,-0.1400407553
0 days 00:00:09.827090109,-1.231107249875,7.71565651925,2.68953268955,-1.78082352875,-2.162079513,-0.14737113195
0 days 00:00:09.847090109,0.6217350959833333,13.753147284166667,0.014755745733333306,-1.25013473605,-1.0794744495000002,-0.41218099745
0 days 00:00:09.867090109,-0.044267222250000016,17.864814285,-0.37567314475000013,-0.7354811727749999,-1.0748929087499999,-0.7292198092000001
0 days 00:00:09.887090109,-0.9678967594,16.219748495,1.7108681501499998,-0.5357283949666667,-0.8582395169833333,-0.6498073935666667
0 days 00:00:09.907090109,0.06819545477499997,10.85085248875,-1.467996671925,0.27931791539999995,0.09399681534999998,-0.104763312245
0 days 00:00:09.927090109,0.518644325475,9.5048894885,-1.640878141,0.33948810394999995,-0.5558106005500001,-0.060628330335
0 days 00:00:09.947090109,0.5950152278,8.976275602833333,2.9471598666666665,0.5488620102,0.15172353375000003,-0.20937391370000002
0 days 00:00:09.967090109,-0.7064808905,9.471988439499999,9.686145902,1.0885610434,3.273700684,-0.2994764671
0 days 00:00:09.987090109,-1.3351950347,8.840283394,6.929614304,1.2308924991666668,5.977846344499999,-0.7152717759333335
0 days 00:00:10.007090109,-1.039681464425,8.0219380855,0.37567305500000026,0.945007819665,6.309087633999999,-1.5225805045
0 days 00:00:10.027090109,-2.443670094225,4.51346170925,-8.060222864250001,-0.846505854255,3.0999097227499997,-2.3061673645000003
0 days 00:00:10.047090109,-2.568695068583333,3.861616929666667,-7.215157588500001,-4.2088583705,-1.9071961640000001,-3.3195919995
0 days 00:00:10.067090109,-1.048056304375,7.210771202249999,3.81655225175,-4.23084950425,-1.0339650065250001,-3.32646423575
0 days 00:00:10.087090109,-1.8628123997500001,13.191631315,-0.7956135568499999,-3.699600696333333,-0.07185297210000001,-2.705062011666667
0 days 00:00:10.107090109,3.2662029263749996,15.9547436225,-1.057627633175,-2.41887176075,0.783663168575,-1.7380630375
0 days 00:00:10.127090109,5.5076794622500005,13.75214982,-1.60558399575,-0.9364557230749999,0.489379033435,-1.5068507195
0 days 00:00:10.147090109,4.662016232833333,8.252446413166666,-2.3613170780000003,-0.19181153925000002,0.003894262014999997,-1.5462514755
0 days 00:00:10.167090109,4.900500774,5.886343479,-1.091127157,0.06078104299999999,-0.5713876374275,-1.405141711
0 days 00:00:10.187090109,1.5349957345,4.461417675,2.1439691785,0.7354811801666666,-1.2817724645000002,-1.0600031165
0 days 00:00:10.207090109,-3.0921250285,2.8319056627499997,2.1290139855000003,3.81011629075,-3.9413759109999997,0.626441829
0 days 00:00:10.227090109,-3.5359936354999997,2.21635204525,-1.17607229925,3.746586442,-3.9006007907499995,1.5781691375
0 days 00:00:10.247090109,-2.4981068966333333,3.65184625,-1.1900305153333335,2.7944010495,-4.218097686499999,3.4136650564999997
0 days 00:00:10.267090109,0.82672023765,5.266004561999999,6.86441004175,2.408029079,-4.248335361,3.937481642
0 days 00:00:10.287090109,-1.5720844864999999,6.995417118,8.1475613095,2.9839725890000004,1.402978281,2.9056292375
0 days 00:00:10.307090109,-4.6851468085,14.132010699750001,-10.08933675275,1.07985618675,-0.07490721374999998,2.34190279275
0 days 00:00:10.327090109,4.76410973075,22.578674795,3.1280171869999993,-1.411097646,-5.242823124,1.995542526
0 days 00:00:10.347090109,4.651647289666666,23.609581945000002,3.5597225426666665,-2.4813327194999997,-3.0223297477,0.5264127253499999
0 days 00:00:10.367090109,2.13379967225,20.139789580000002,1.0863415597500001,-3.551567793,-0.8018363714,-0.9427170753
0 days 00:00:10.387090109,-2.4047867655,8.7529449485,-1.5864414276499998,-0.8788307706833334,-1.7537673112333332,-0.1631518056
0 days 00:00:10.407090109,-3.80817726275,9.235697031,-0.589232563975,0.684168562325,-3.00385117525,0.5351175367750001
0 days 00:00:10.427090109,-3.3918260932499997,11.66501021225,6.759125694450001,1.09833486375,-2.4032183807425,1.1038326324
0 days 00:00:10.447090109,-1.8683957058,10.643673576833333,-0.18863419666666661,1.604130864,0.029550584030000004,1.5441133979999997
0 days 00:00:10.467090109,-0.5832505226,9.19023346825,-2.38624244925,0.59391327195,-0.35895941356750005,1.0900881887249998
0 days 00:00:10.487090109,-3.511467278,10.825129984999998,1.0995019971,0.3347538957666667,-0.5499564806833334,1.0937024950499998
0 days 00:00:10.507090109,-5.28036141425,11.93779254,0.443270385225,0.424703747025,-0.5559633076,1.72691470375
0 days 00:00:10.527090109,-4.61575484275,12.1585304725,6.543771460975,0.3738492429,-0.2599993348,1.873980403
0 days 00:00:10.547090109,-4.803192695,10.857831796666666,5.424129883333333,0.22204934804499998,0.7283798756,1.3858994543999998
0 days 00:00:10.567090109,-4.453042984,9.63230776875,2.5202403067500003,-1.6583451297025,1.52571114875,0.09651663154999998
0 days 00:00:10.587090109,-1.47158592185,7.525427341500001,-2.0673987118999997,-3.5922922295,-1.9714388055,-1.5759802310333335
0 days 00:00:10.607090109,1.657029721575,10.1132645595,-2.46819647395,-4.19251775725,-3.3969426157499996,-2.762636006
0 days 00:00:10.627090109,1.1784651725750002,11.312068700000001,-3.452244818,-4.812087297750001,-3.94519376775,-3.7351326345
0 days 00:00:10.647090109,0.17676977254624998,13.79611813625,-2.180459648375,-5.5304641725,-3.4546693267499995,-3.7647596898750004
0 days 00:00:10.667090109,0.07896314561,14.12243938,-1.993221283,-4.301302433,-1.2864557903333333,-3.380271196666667
0 days 00:00:10.687090109,1.4715859294,28.232914925,3.2434709670000004,-1.4459509053333335,1.8589548402777776,-2.9781524739444443
0 days 00:00:10.707090109,5.09252470725,25.7066912625,-4.70428916825,2.315788269,3.674580812,-3.145495415
0 days 00:00:10.727090109,4.793422103000001,17.163716555,-5.936593056,2.868010044,3.133507311,-3.32050818225
0 days 00:00:10.747090109,3.0847472662616666,8.492925087833333,0.3696910343333333,5.0692613125,0.15447241050000002,-3.8214173314999997
0 days 00:00:10.767090109,-0.15433705784750004,5.09850692775,0.966700315375,3.98054754725,-3.5122432409999997,-3.0399686095000003
0 days 00:00:10.787090109,0.14715862294999993,6.762116670499999,2.81276291625,-0.013540844166666713,-3.4122651418333336,-0.8235984307716667
0 days 00:00:10.807090109,4.65164735925,10.20419192125,2.61475685225,-0.6763800103575,-3.1750461459999997,0.1452331040025
0 days 00:00:10.827090109,6.7471618655,10.91785121,2.650051147,-0.09224057943,-3.569053888,0.3486510813
0 days 00:00:10.847090109,6.455038070833333,6.658826430833333,2.472982208,0.8411608302850001,-2.9710172415000002,0.26343543825
0 days 00:00:10.867090109,3.9272201355,1.43988099695,1.8556339742499999,1.8510730565,-2.5305836202500003,0.28038692475
0 days 00:00:10.887090109,-0.2392822505,0.48454660190000004,4.6085762975,1.4252493381666664,-2.52447497355,0.9528981447666666
0 days 00:00:10.907090109,-5.496911733999999,7.727022588500001,2.236092701475,1.1936297417500001,-0.23739731312499998,1.59924393925
0 days 00:00:10.927090109,-8.448458432999999,12.80100321425,-8.760721640675,1.0464113654,-0.0776561872,2.0912954810000004
0 days 00:00:10.947090109,-8.775278170833333,13.674582955,-7.528218589999999,0.7861829995999999,-1.269758821,2.312581301
0 days 00:00:10.967090109,-4.0594236850000005,14.251053575,14.105689285,2.43872496515,-0.8409317136999999,2.16551560175
0 days 00:00:10.987090109,4.683950424,18.48814392,3.2793633954999994,2.7813691896666666,-0.1980983218333333,1.5414663355
0 days 00:00:11.007090109,-0.09511473800000003,13.69651675,-5.5118671655,1.022587597,1.250516623,-1.3672680557499999
0 days 00:00:11.027090109,-1.65344047575,8.076972961,-10.14855909025,-1.130710721,-1.902003884,-1.468060732
0 days 00:00:11.047090109,0.3010968565666667,4.042275071166666,-6.863811829666666,-2.6789475085,-5.848801433999999,-0.23625192050000002
0 days 00:00:11.067090109,2.1810579299999997,4.8723850845,0.7393821777499999,-4.29086709,-9.587599039,1.2562434225
0 days 00:00:11.087090109,1.8963119385000002,9.3272228255,6.1423757075,-3.8274751504999998,-7.1532011031666665,1.5900301138333335
0 days 00:00:11.107090109,-1.5146567527500001,13.489537952500001,1.5870396494749999,-3.4816238285,-5.29444143175,1.5636611282500001
0 days 00:00:11.127090109,-0.049052849525,16.792829034999997,0.976271629575,-2.5714352725,-1.067868024125,1.174540281175
0 days 00:00:11.147090109,0.6837490796750001,15.431312798499999,1.26699957275,-1.5839723961075,-0.7638100386,0.29260420797500003
0 days 00:00:11.167090109,0.5024927258,8.963513374,1.40697968,0.5719730407133334,-0.17834705116666666,-1.2567015888
0 days 00:00:11.187090109,0.9655039013,5.491527796,-1.3890335558500002,1.716767542118889,0.3393269081555556,-1.8839578829666666
0 days 00:00:11.207090109,2.17268288125,6.891329288250001,-0.6987042203,2.29990583675,0.21861323714999997,-2.165210187
0 days 00:00:11.227090109,1.56311139425,8.0099740025,0.21236301957499998,3.0016368032500003,-0.986317545075,-2.13176545475
0 days 00:00:11.247090109,-0.17986051248333332,8.5850486755,-0.5399802972833333,3.5897468325,-1.554116368,-1.5459460619999998
0 days 00:00:11.267090109,0.6101697683,8.429914474,-2.620140791,3.2885904905,-1.61703538925,-0.698523871675
0 days 00:00:11.287090109,1.18205440065,9.353543756999999,2.377269387,2.53661596745,-2.3566908045,-0.2714784791
0 days 00:00:11.307090109,0.14775681505000005,11.04526901,19.67857313375,-0.39843654635,-4.7935322222500005,0.962722897425
0 days 00:00:11.327090109,0.7483553293499999,10.965708017499999,6.0993048034749995,0.47143489120000004,-0.77511107925,1.25425812575
0 days 00:00:11.347090109,0.5579265161666667,11.294123014999998,0.4287140519166666,0.34177883714999996,2.8587707875000006,0.8764382303000001
0 days 00:00:11.367090109,-3.64725995025,13.4811627875,0.8566305045,-0.073303774,3.797364473,0.7579304576
0 days 00:00:11.387090109,-7.726424216999999,13.43809223,-1.203589797,-0.8024727031333333,1.1703404981666667,0.7874556084833332
0 days 00:00:11.407090109,-4.65045082575,11.381460905,-3.0664022865,-2.13023814525,-3.74452483675,0.010690122775000033
0 days 00:00:11.427090109,-2.5878376364999998,11.32941699,-0.47497530285000006,-2.711628675,-4.644786835,-1.098487616
0 days 00:00:11.447090109,-2.0522442265,14.466607251666666,-1.4492528687666664,-3.3127197024999995,-3.8372235299999997,-2.078314662
0 days 00:00:11.467090109,-2.0745773020000002,18.6747846625,-7.425000003724591e-09,-3.9174758794999995,-1.2144755423,-3.4489426014999998
0 days 00:00:11.487090109,-0.7190431879000001,18.91287041,1.0241280793499998,-2.089666585166667,1.2318342922666665,-3.9604907435
0 days 00:00:11.507090109,2.5603202618000003,14.03450298,-2.75772807,-0.7379246055000002,1.7604359685,-3.9051056505000004
0 days 00:00:11.527090109,5.779863238000001,10.322637079749999,-5.05304336575,2.219882727,2.241492033,-3.510181665
0 days 00:00:11.547090109,5.663811365833333,7.906683763,-3.659822305166667,2.6374087335,-1.3250421284999998,-3.3626579045000002
0 days 00:00:11.567090109,3.04785782125,4.2514475585,4.9908297022375,3.05493474,-4.89157629,-3.215134144
0 days 00:00:11.587090109,2.6560331584999997,3.7208391430000005,0.632901601475,0.4391099673966667,-2.600731452333333,-0.8447750943833333
0 days 00:00:11.607090109,3.40379023575,4.076771438250001,0.917647495875,0.08063415438,-2.2056036,0.0847574845
0 days 00:00:11.627090109,2.81156659125,4.0510487555,0.71545398235,0.391411600535,-2.43406701125,0.143553217875
0 days 00:00:11.647090109,2.125225305333333,4.5048875805,1.86680047705,1.4523310065,-3.1955099105,0.3950767964
0 days 00:00:11.667090109,2.2384855373750003,6.56530714,4.71565526725,1.4984513222500002,-4.1411286590000005,1.0286962987
0 days 00:00:11.687090109,-0.38165523124999995,8.7756767275,2.4514468905,1.3427826065166668,-3.9376088975,1.3403900465000003
0 days 00:00:11.707090109,-0.880558729275,9.832108498,-3.8614175920000005,0.610253900325,-1.4922662674999998,1.95491999375
0 days 00:00:11.727090109,-1.420738458675,13.060025928,6.110072612750001,0.4815141559,-1.576565623,1.9147556427499999
0 days 00:00:11.747090109,-0.11724831786666667,16.356936771666668,9.697312614333333,0.9199623465999999,-1.6356668470000002,1.912464857
0 days 00:00:11.767090109,-1.0354939457999999,11.651251795250001,-1.5457634481,0.9199623466,-1.635666847,1.912464857
0 days 00:00:11.787090109,-4.443471432,8.329415321,-0.7920243144,0.5881609792333333,-0.028583382500000032,0.9253074129500001
0 days 00:00:11.807090109,-4.436293125,11.06620621775,-1.3016954810999999,-0.03665188324999999,-1.0394627825,0.5430587740005
0 days 00:00:11.827090109,-0.14835503725,10.0672028065,-2.1355941595,-0.6401862875,-3.3326491715,-0.12186752679849999
0 days 00:00:11.847090109,1.9976081253333333,8.491329828666666,-1.5250256058333331,-1.7027855515,-3.749258995,-0.77869986015
0 days 00:00:11.867090109,1.3668334182,8.470326635888888,2.059954497777778,-2.4894776346666667,-3.1166067126666666,-1.1217004063333333
0 days 00:00:11.887090109,-0.10727821300000001,9.044071833166667,1.6849459208333335,-1.8843651117500002,-0.5368737773775,-0.6916516572
0 days 00:00:11.907090109,-0.4474578202,9.176474571,1.59840548,-1.392008111075,-0.0478765266,-0.380874183
0 days 00:00:11.927090109,0.7908278927000001,7.44107997375,0.5665007531,-0.542753363025,-0.29680392332750005,-0.09239330048
0 days 00:00:11.947090109,0.7601199944666667,6.313462336666667,-0.2987040182333333,0.1014035568,-0.9130137563000001,-0.06123919412
0 days 00:00:11.967090109,0.21296122295000003,6.38225615,-1.0450652692,0.37308567577499996,-1.367497131575,-0.0012217289749999992
0 days 00:00:11.987090109,-0.1172483116,6.929614544,-0.9786644578,0.4417570481833333,-1.6869794333333334,0.10481421304
0 days 00:00:12.007090109,-1.6731812989000001,8.2504526375,-0.792024284575,0.493731454025,-1.90078210875,0.329714262825
0 days 00:00:12.027090109,-2.55433815725,9.9361960855,1.6175480633750001,0.740826249125,-2.41375577475,1.0088431835
0 days 00:00:12.047090109,-2.0167506935,10.996216773333332,5.540181875166667,1.5451824068999997,-1.32504200915,1.204167187
0 days 00:00:12.067090109,-1.6845470964999998,10.914860485,1.6181462854750002,2.1612396242500003,0.26351179925,0.9051488935499999
0 days 00:00:12.087090109,-2.3521446585,9.5030951515,4.0307099519500005,1.958839695,1.5711696595166664,0.3783798317
0 days 00:00:12.107090109,-1.740180284,8.4376909735,1.680359825425,1.820529729,3.7544512749999996,0.024587303425000012
0 days 00:00:12.127090109,-1.4883356989999998,8.24925589575,0.8673981874750001,1.153465404925,5.03619837725,-0.660497531375
0 days 00:00:12.147090109,-1.6546368596666667,9.194819609,0.44147576876666667,0.138666302,3.347767949,-2.1100796464999996
0 days 00:00:12.167090109,-0.45643091199999997,10.724032637499999,-1.5014961962500002,-1.035110324925,0.707763209975,-3.241248548
0 days 00:00:12.187090109,2.1667008400000003,10.889735694999999,-1.1676975118500001,-2.9213589428333333,-1.732488959783333,-4.127358754166667
0 days 00:00:12.207090109,1.9022939505000003,12.035299779999999,0.03290131128249999,-3.3107343315,-1.4357613918999999,-4.2682648895
0 days 00:00:12.227090109,3.549752563,15.483954672500001,-0.8392825405975,-3.265224934,0.7503710091,-4.1990845205
0 days 00:00:12.247090109,6.034698883666667,14.570694603333331,-1.5186447698333334,-2.596786261,0.9794453382,-4.046521187
0 days 00:00:12.267090109,5.7212388515,10.94417226275,0.37088754775,-0.055436000350000014,-0.5613083247000001,-3.3455537555
0 days 00:00:12.287090109,2.158325930845,4.9459643365,5.246263742,1.0041598776666667,-0.7252746228333334,-2.705774674483333
0 days 00:00:12.307090109,-0.04067798331,2.187039852,5.111069202,1.8927644790000002,0.8261182121749999,-0.08811725667500003
0 days 00:00:12.327090109,-1.8424733773275,2.1314067247499997,3.3128629920000003,1.2971713545,-0.149280097225,1.97691115775
0 days 00:00:12.347090109,-2.673181613166667,4.171088735333334,4.187439521166667,1.07451117,-1.305189013,2.888626814
0 days 00:00:12.367090109,-2.2408783435,6.65144884625,1.44586300825,1.1638500989999998,-0.7302124945749999,3.7701045867499996
0 days 00:00:12.387090109,-0.10887342690000001,9.604790209999999,-3.9984066485,0.7039198180833334,-0.3593666702666667,4.198320706833333
0 days 00:00:12.407090109,1.7270198165500001,12.6568357925,-1.519442386925,0.4857901931,-0.693713329725,3.92908209575
0 days 00:00:12.427090109,2.148754835,13.38784313,-0.3852444589,0.401338145125,-1.53884474925,2.762483239
0 days 00:00:12.447090109,-2.7888347705,10.724631308166666,1.6578272830166665,1.693317175,-0.33299766482000004,1.7246239784999997
0 days 00:00:12.467090109,-5.208576679,8.264211297,4.168895244750001,2.156963587,0.07658717036,1.521511436
0 days 00:00:12.487090109,-4.031906128,8.6201436505,2.8558339474999994,3.416872183166667,0.042378738493333325,1.639510155
0 days 00:00:12.507090109,-0.12921240917499988,14.241482255,-3.38524594925,3.45627284,-1.101160169,1.30098927
0 days 00:00:12.527090109,-0.6065805552250001,14.8761785,-6.111867189250001,2.245386153,-1.10803237575,0.6586649417500001
0 days 00:00:12.547090109,-2.2456640599999997,12.833904586666668,0.9794621466666665,-1.4789036515000002,-1.1515564319999998,-1.4530946015000001
0 days 00:00:12.567090109,-2.969492912,10.42074299,2.143969059,-1.28785565525,-1.5661809142499998,-1.592066348
0 days 00:00:12.587090109,-0.14955139150000019,10.76650572,-0.47617173200000007,-1.0776672562333334,-1.8955897488333333,-1.564373771666667
0 days 00:00:12.607090109,2.41555452375,13.911870955000001,-4.234099507,-1.75348731875,-2.1226786975,-1.6206242737499998
0 days 00:00:12.627090109,2.8223344087499997,13.771890639999999,4.13180649275,-2.119089842,-2.174449444,-1.535866737
0 days 00:00:12.647090109,1.0400802642,10.557531993833333,3.675774380716667,-1.606879771,-0.8873573989499999,-1.04076084475
0 days 00:00:12.667090109,-0.6167500242,7.1312097315,0.15254245699999996,-1.0946697,0.3997346461,-0.5456549525
0 days 00:00:12.687090109,-0.7585247456,7.164110899,-1.2705888299499999,-0.4953095218333334,0.11812598008333335,0.29632032908333333
0 days 00:00:12.707090109,-0.50189453365,7.68335342375,-2.74935328975,-0.2571740746,-0.4542543292,0.709061265
0 days 00:00:12.727090109,-1.0923235562,8.490332841999999,-2.644069016,-0.2893971875,-0.7641154974,0.704632505775
0 days 00:00:12.747090109,-2.5343979396666665,9.570492585333334,3.148555715666667,-0.19914191078,-1.28747391685,0.74907293915
0 days 00:00:12.767090109,-1.210170045175,9.467202424749999,6.099304676,1.55969041291,4.408076554825,0.84940747915
0 days 00:00:12.787090109,-1.65702965835,8.882157326,-2.4394827930500003,1.3117302856666666,5.317094326333334,0.44180793565
0 days 00:00:12.807090109,-2.92402917125,10.34835982125,0.092721879525,1.017853423625,4.725420952,-0.38392850757499997
0 days 00:00:12.827090109,-3.017349243,10.7677021,0.2823530734,0.9541707635,4.216417789,-0.8150463104
0 days 00:00:12.847090109,0.9706883830000002,11.468399999166666,-0.17108682300000003,-0.23671010125,2.165133856,-2.3058618307
0 days 00:00:12.867090109,0.7507480642175001,9.1920282845,-2.94137728225,-1.427590966,0.113849923,-3.796677351
0 days 00:00:12.887090109,-0.09092725812999998,9.942177773,-3.215953588,-2.203898251,-0.53824824345,-3.4293440185
0 days 00:00:12.907090109,2.9294131064675,14.93839145075,1.10907322175,-1.632688842425,0.203036170425,-2.6748241782499997
0 days 00:00:12.927090109,3.82492697275,13.01815176,1.240678504075,-0.3695732057,-0.1433241516,-2.168111801
0 days 00:00:12.947090109,2.3637099666666668,5.5525449113333325,1.9884356558499998,0.16065742074999997,-0.23495387285,-1.4210241734
0 days 00:00:12.967090109,0.6861419081475,0.7884350434025,2.0350955722500004,0.707839563475,-0.220293115825,0.20983205740000005
0 days 00:00:12.987090109,-0.8721838592050001,0.839880768305,1.9441683889999999,0.7266236642833332,-0.3695477321666667,0.9043344061666666
0 days 00:00:13.007090109,-1.99082842475,4.15394005175,3.13818696175,0.7965676933249999,-0.9540943875725001,3.2238388660000004
0 days 00:00:13.027090109,-0.766899645375,7.3525459765,-0.9960123299999999,0.692262522875,0.1964693889075,4.24581551525
0 days 00:00:13.047090109,0.28993034861666667,10.330612818333332,-3.449652632,0.3408625424,0.5982657075,4.432281971
0 days 00:00:13.067090109,-0.7561319544,13.3286201975,0.017347991749999903,0.3362810612,-1.3291653543750002,3.5434738992500003
0 days 00:00:13.087090109,-3.806980848,13.59601784,6.285944939,1.3925680368000002,-2.068871756666667,2.614959398666667
0 days 00:00:13.107090109,-3.97029107775,11.7367949525,2.811566591,2.1154247222500002,-1.5690825639875001,2.26096323125
0 days 00:00:13.127090109,-1.1569297797249998,12.9062869525,1.34835556125,3.58898335675,-0.0768926013375,1.3860521469
0 days 00:00:13.147090109,-0.9447661613833332,11.58923769,-1.4999009966666665,2.5552473665,0.137062788,0.4091266989685
0 days 00:00:13.167090109,1.528415471,14.71765399,-2.2247269154,-0.22128576037499997,-0.07689261435,-0.49266242981575004
0 days 00:00:13.187090109,0.014356910999999991,13.59960747,-0.06580260400000004,-1.4991639454166668,-1.7350341678833334,-1.0478876335333334
0 days 00:00:13.207090109,0.21954148997499995,10.469795465,1.03788681315,-1.67514389775,-2.192470074,-0.959515825075
0 days 00:00:13.227090109,1.096511006075,10.4793665425,0.9248259514500001,-1.652389199,-1.64085914175,-0.853988945475
0 days 00:00:13.247090109,1.0624132456666666,11.257432781666665,0.224526526418,-1.6945388915,-0.455170613735,-0.8950695991500001
0 days 00:00:13.267090109,0.809372276075,10.61037373225,0.46480580047500003,-1.59878584775,0.0771980393075,-0.8087849765999999
0 days 00:00:13.287090109,0.37686956675,9.4337034225,0.14955141207,-0.91548269995,-0.3192532024833334,-0.5227475513666667
0 days 00:00:13.307090109,-0.084346994725,8.206783533500001,-0.7615157746650001,-0.4221075773,-0.6619483232,-0.1577558219
0 days 00:00:13.327090109,-0.524028178325,7.0109704735000005,-1.436291784,-0.4471530318,-0.577954418925,-0.069485861775
0 days 00:00:13.347090109,-1.1952149173333335,6.941179832,-1.5792629519999999,-0.5375609994,-0.42493279279999996,0.34804020075000003
0 days 00:00:13.367090109,-4.12522614025,8.358129739999999,-1.281356543325,-0.389273576475,-0.976543724875,0.9094249007249999
0 days 00:00:13.387090109,-3.3296126725,10.171889307,7.676175236350001,0.040317073499999946,-0.33330313399999995,1.0052288568999999
0 days 00:00:13.407090109,-0.337387993975,9.736993552000001,1.962712943,1.8600832525,4.011625349499999,0.540309876225
0 days 00:00:13.427090109,-0.018544372172500004,8.925826311,-1.5068800747499997,1.693317175,5.13454771,-0.2481638193
0 days 00:00:13.447090109,0.24646073331166665,9.727621713666666,1.4751751618333333,1.19760039455,4.9479284285,-1.5731294751499998
0 days 00:00:13.467090109,1.1970095188499998,11.324032782500002,-1.6265211629,0.44486227635000003,3.1087672709999996,-3.42221719
0 days 00:00:13.487090109,2.0733807685,10.406385422500001,-1.4309079498,-1.028899918316667,0.44870564587666656,-4.082053105
0 days 00:00:13.507090109,1.4907285275,11.31027412125,-1.70727896725,-2.280969143,-0.2013563067,-3.812559843
0 days 00:00:13.527090109,4.8197431565,15.595819474999999,0.7136593757499999,-1.9740095735,-0.07612902299999999,-3.699855268
0 days 00:00:13.547090109,4.299503624583333,14.910874209,1.0043873215416665,-0.45142906154999995,-0.32872159780000004,-2.9720098975
0 days 00:00:13.567090109,2.090529441666667,8.851051012,1.2969098588333334,0.1502727419,-0.9569960237,-2.582278252
0 days 00:00:13.587090109,0.78125660845,4.1336010695,2.0973089935,0.5277871911666667,-0.13925171643999998,-0.4983129700333333
0 days 00:00:13.607090109,-2.706282470275,2.2534406185,2.751745939,0.8210022747250001,-0.18745912982500001,1.2878556847499998
0 days 00:00:13.627090109,-3.88893502975,2.99401938875,2.09371975075,0.9786053896,-0.2612210512,2.443306446
0 days 00:00:13.647090109,-3.7595232131666667,5.843671838166666,-2.170688966666667,0.8051197827,-0.28596107660000003,3.4839146134999996
0 days 00:00:13.667090109,-1.512263894,9.205188751,-4.864608288,0.21975860186750001,-1.34749131675,4.85942947825
0 days 00:00:13.687090109,-0.19142580050000002,11.877971650500001,1.3304095264999998,0.341167985075,-1.5912772618333335,4.606378753666667
0 days 00:00:13.707090109,-0.8159525097499999,14.814563037500001,4.76351165725,1.7383684810000002,-0.793436976025,2.62396973375
0 days 00:00:13.727090109,-3.68255388725,12.1459679575,4.415355920750001,2.2592834232500003,0.6833286229249999,1.8383975920999998
0 days 00:00:13.747090109,-4.287937998666666,10.6285196905,3.5050863028333334,3.9171705245,2.9549820424999997,0.33673921970000004
0 days 00:00:13.767090109,-2.84386970115,8.549555302249999,-3.76331180325,3.8954848047499997,2.33984121725,-0.017715077852499997
0 days 00:00:13.787090109,0.3158525527,10.820343975,-5.6542397735,0.7077886660666666,-0.0536288221333332,0.673325717455
0 days 00:00:13.807090109,-1.7252251209999998,10.167701484999998,0.62751776,-2.329685509,-4.39311039475,0.454330695775
0 days 00:00:13.827090109,-3.8063825965,10.98664522,2.4771695735000003,-2.398865938,-3.727878571,0.1189659163
0 days 00:00:13.847090109,-1.4161521793333334,9.865209260333332,1.1848460238666665,-1.7837251425,-2.0776274206500003,-0.27595815435000004
0 days 00:00:13.867090109,1.2023934122499997,11.5429763775,-1.4111671746,-0.3668243066075,-0.026496261350000015,-1.1235330700000001
0 days 00:00:13.887090109,1.874776542,13.822140215,-4.1048871280000006,-0.3019708246183333,-0.7272090912833334,-1.528740048666667
0 days 00:00:13.907090109,2.1003000739999997,12.948161365,-2.328216344,-0.884684935175,-1.6291000547499999,-1.6471968592500001
0 days 00:00:13.927090109,-0.06699903299999993,9.419346095000002,2.39880475375,-0.8022181615249999,-1.9180390534999998,-1.428507327725
0 days 00:00:13.947090109,-0.6799604395833333,7.476773182666666,2.0327028633333337,-0.4159989059,-1.887343049,-0.9250019789
0 days 00:00:13.967090109,-0.43190449475000003,6.6885374785,-1.63549426225,-0.725707344725,-0.798323899475,0.018325947249999974
0 days 00:00:13.987090109,-0.6149554253,6.187839508,-1.624726534,-1.0368411538333333,-0.3382918288,0.5608247568
0 days 00:00:14.007090109,-1.7006986138250002,7.835298061,0.34755745549999995,-1.0363321455499999,0.044058628325000015,1.047785788825
0 days 00:00:14.027090109,-1.9136598404999998,9.5994064805,7.614559561250001,-0.5332849622,1.165148258,1.3675735
0 days 00:00:14.047090109,-1.6526428656666667,9.300502935833334,-1.1932209331666666,-0.23793183641,2.064952016,1.07771816865
0 days 00:00:14.067090109,-2.4340988395,9.50788092675,-1.16949200625,-0.076358098505,2.514853835,0.284815698875
0 days 00:00:14.087090109,-3.6693934200000005,11.339586735,2.9228329360000003,0.07279471430166667,3.2432082891666667,-0.8676825463333332
0 days 00:00:14.107090109,1.42133665075,13.160524365,1.06241326025,-0.10934479906750001,2.46109777675,-2.43567067375
0 days 00:00:14.127090109,3.163909793,10.899306775,-1.037886828,-0.36025749890000003,1.872376919,-3.38800883325
0 days 00:00:14.147090109,2.327020089,9.732008139666666,-3.1477582255,-0.7611374855,1.433928728,-4.144870281
0 days 00:00:14.167090109,2.175075769,11.10987568,-3.036491871,-1.394756973125,0.600098297,-3.53690701725
0 days 00:00:14.187090109,1.5349957047,10.670792579999999,-0.973878801,-1.1460841247833333,-0.18252129853333332,-2.3956589101666665
0 days 00:00:14.207090109,0.2237289101,9.228518962999999,0.835693284825,-0.3616319597,-0.4970148504,-1.196836829
0 days 00:00:14.227090109,1.042672455,7.0348985195000004,1.0115657597749999,-0.138360880325,-0.5087740049,-0.690582647775
0 days 00:00:14.247090109,0.3684947092,4.380859573666666,1.974477430333333,0.7644972801500001,-0.6808851659499999,1.2591449914500001
0 days 00:00:14.267090109,-2.2450658084999997,3.2997025255,2.044666886,0.9975422025,-0.8177188635,1.690110087
0 days 00:00:14.287090109,-2.401795714875,4.89661255475,-0.334396973375,0.897360369575,-0.564973562975,2.2434008417499998
0 days 00:00:14.307090109,-2.335394859,5.807380676,-1.617548108,0.5968148708,0.1932623386,3.903273106
0 days 00:00:14.327090109,-2.335394859,5.807380676,-1.617548108,0.537255577775,-2.08236172775,3.94801908725
0 days 00:00:14.347090109,-1.6973088979000002,12.353744664333334,2.9746773841666667,0.7819069028,-3.5965428349999997,3.536143541
0 days 00:00:14.367090109,-4.402793884,10.47577763,8.898907661,2.2117887287,-1.2260819896250001,2.6674937007499997
0 days 00:00:14.387090109,-3.5676987170000003,9.332008364,3.9385861750000006,2.5992297333333334,0.017231479350000023,1.7837760253333332
0 days 00:00:14.407090109,-1.532004684,9.534201622249999,0.252442762125,1.550222180875,-1.36642810675,0.8932370546
0 days 00:00:14.427090109,2.63689056075,11.17448186925,-3.143570676125,-0.13408481332499994,-1.7054580449999999,0.204486988475
0 days 00:00:14.447090109,1.0887342890333331,11.049257280666666,-0.5068795780333333,-1.4813470839,-1.894673407,-0.75212724515
0 days 00:00:14.467090109,-1.19042930015,10.180264235500001,2.26420843575,-2.037844896,-1.782885194,-1.217606187
0 days 00:00:14.487090109,-0.8566305041,14.997015955,1.2358929141,-1.1083123186666668,-1.1250856718,-0.7311542431499999
0 days 00:00:14.507090109,-0.18903298238299998,14.903695825,1.41176537805,-0.7880155444,-1.13720119,-0.5761982203
0 days 00:00:14.527090109,0.9810573025889999,12.7866458875,0.59760746365,-0.7250964790500001,-0.7631992176250001,-0.658359527625
0 days 00:00:14.547090109,1.0855439056999998,10.961919466666666,-1.5505490501333332,-0.536339283,0.35880669949999994,-0.9048434496
0 days 00:00:14.567090109,-0.2608176768,10.771290777499999,-1.78684029025,-0.7855721115750001,0.06192641705,-0.7403681129249999
0 days 00:00:14.587090109,-0.102891378115,10.86221838,-0.97627159975,-1.01016674435,-0.06655880685,-0.25691954294999997
0 days 00:00:14.607090109,-0.2949153818075,9.1692960265,2.6715864691249998,-1.038470149,-0.0724638328,-0.1711948514
0 days 00:00:14.627090109,-0.4115654826,8.633303642,3.787838221,-0.7429643049499999,0.96509003465,-0.19776747374999998
0 days 00:00:14.647090109,-4.511667043266666,6.6727848053333325,1.813759585333333,0.2672533393,4.432663918,-0.3908007592
0 days 00:00:14.667090109,-5.5770713687499995,6.778268337,3.866203278475,0.698371149625,4.664792538,-0.489913567925
0 days 00:00:14.687090109,-1.83050936465,5.676971674,-0.9032905697999999,-0.25697046525,2.8966444335,-1.1968368191166665
0 days 00:00:14.707090109,1.275374471925,4.121637106250001,-2.494517564875,-1.6158900859999998,0.9182060955000001,-1.8985676765
0 days 00:00:14.727090109,2.25044962775,5.423930645,-1.378265813025,-2.851516724,-1.437135696,-2.469878912
0 days 00:00:14.747090109,0.66161544124,10.2660068665,-0.8705886516899999,-3.2158975605,-1.15491619685,-2.7841688395
0 days 00:00:14.767090109,2.0697916147499997,17.1517529475,0.5820541326700002,-3.26507216725,1.314962729825,-2.972009778
0 days 00:00:14.787090109,3.0783663985,16.832311155,1.2311072947000001,-0.6795870463666667,0.81776975595,-2.4706934691666667
0 days 00:00:14.807090109,0.8225327729749999,10.14018392625,0.08015955728125,1.426063776,-1.085430338925,-1.1418589499
0 days 00:00:14.827090109,-1.402792275175,5.500501036999999,5.56929474464375,2.1053454277499997,-1.360472232,-0.230601444825
0 days 00:00:14.847090109,-2.2664018475,4.450650135999999,6.937989314166667,3.2968372104999997,-0.9353103636999999,1.8532109857499999
0 days 00:00:14.867090109,-2.8558338285000002,4.9489554165,2.3838496209999995,1.92407137175,-0.24350597337500002,3.6222753525
0 days 00:00:14.887090109,-0.43669012165000004,7.527820348500001,-3.751945853,0.6044506952816667,-1.1095086113500001,4.043975670833333
0 days 00:00:14.907090109,0.693918585775,8.281558990499999,0.016749799000000065,0.19120067731749998,-3.255222142,3.59005224675
0 days 00:00:14.927090109,0.1040877905,8.249854087500001,2.39102798725,0.4789179862,-3.660683632,2.905120134
0 days 00:00:14.947090109,-2.002792615766667,7.540182988000001,7.679764231499999,0.9996802361,-2.302120328,2.468351841
0 days 00:00:14.967090109,-2.966501892,8.16670382,6.072983831499999,2.4060437085,1.1588868794999998,1.8057162464999998
0 days 00:00:14.987090109,-2.75294238345,13.374682425000001,0.4642075894999998,2.8646504484999995,-0.32872161274999995,1.4031054576666666
0 days 00:00:15.007090109,-0.10289136559999996,15.36112372,-1.2426726023333332,1.579492728,-1.0412953694,0.9912808041000001
0 days 00:00:15.027090109,0.28394830233333324,13.753944396666666,-4.853442032666666,-1.056185246,-1.591073632,0.2985601723
0 days 00:00:15.047090109,-1.4027258357777779,13.633107344444445,1.9611840517222223,-2.558301687,-2.700404167,-0.4613556266
0 days 00:00:15.067090109,-1.4003994205499999,11.68893886,2.0213369727500003,-0.922711238175,-2.63213998075,-0.016493346575000012
0 days 00:00:15.087090109,-0.0837487951,12.401999475000002,-1.8424734475,-0.22428918381666665,-2.8109705445,0.056454088533333335
0 days 00:00:15.107090109,-0.5491527766250001,9.602995634,1.4416755732499997,-0.284052126125,-2.3005930331499997,0.056352276364999995
0 days 00:00:15.127090109,0.476171717075,7.762316704,0.6095715480874999,-0.5552760959,-0.6485093236,0.1012508348
0 days 00:00:15.147090109,-0.5686941643166666,7.793822288833333,-2.749353136925,-0.82680550195,-0.63445943595,0.1238528304
0 days 00:00:15.167090109,-0.889531791275,8.65962529275,-2.9611179529999996,-1.34436070875,-1.2586105618249999,0.48365220797499997
0 days 00:00:15.187090109,-0.9116654099999999,11.56570816,-0.9332008397,-1.2400555215,-2.216599186333333,0.8368338346333334
0 days 00:00:15.207090109,-0.813559711,12.14596748,0.1004985496,-0.87643825285,-2.288986683,0.9445496498749999
0 days 00:00:15.227090109,-1.800599083,9.455837010500002,2.2827528401499997,0.278707049775,-1.6897284093749998,1.1441497205
0 days 00:00:15.247090109,-1.5840486088999999,7.826125383333333,3.9493536951666663,0.8069523573,-0.5819250345,1.206916094
0 days 00:00:15.267090109,0.368494682025,7.3836525675,7.67677319,0.8069523573,-0.5819250345,1.206916094
0 days 00:00:15.287090109,0.3110669553,8.72423172,-5.45085001,-0.36539893345,3.8778968450833333,0.48507754508333334
0 days 00:00:15.307090109,-1.3076775449249998,11.015957595,-2.72841599575,-1.3046544342,2.6461898085,-0.20509783177500007
0 days 00:00:15.327090109,0.019142597850000054,12.3487598875,-1.3435698745,-3.4797912237500004,-3.85631310975,-1.93659403925
0 days 00:00:15.347090109,-0.17028920849999998,13.633107181666666,-2.005982975333333,-3.9684830905,-4.324999094,-2.514166713
0 days 00:00:15.367090109,-1.0408778787,15.9212441425,-1.46081826075,-4.603324413,-4.09134328375,-2.894735515
0 days 00:00:15.387090109,-2.4335006475000003,20.11406803,0.8231310245,-4.515410780500001,-3.3782604785166668,-2.9615234135
0 days 00:00:15.407090109,-1.7192430495,27.739993570000003,1.98006078625,-2.833343505725,0.3490328864250001,-3.08349263675
0 days 00:00:15.427090109,2.6518457535,24.241088389999998,0.05024926374999994,-0.7483093739,2.374049664,-2.873660564
0 days 00:00:15.447090109,5.2004010675000005,16.358133154833332,-2.138385862,1.49203717705,1.8285473585,-2.973536968
0 days 00:00:15.467090109,4.8352963330000005,8.76191806825,-3.1232317089999997,4.014145135750001,0.17386737084999998,-3.2612543699999996
0 days 00:00:15.487090109,1.6307086945,4.214956999,-3.194418192,3.7206756271666666,-2.8150430595333327,-3.2310165165
0 days 00:00:15.507090109,0.897308483725,2.6650061605,-2.3126631079999997,1.536935806,-6.093147278,-2.006843567
0 days 00:00:15.527090109,3.822534188575,6.0412789584999995,1.352543026,0.8869756755,-6.2513612510000005,-1.2809834779000002
0 days 00:00:15.547090109,6.575476566666667,9.185248216,3.716452439333333,-0.71623896085,-5.617283582500001,0.8309288323
0 days 00:00:15.567090109,7.32682299625,8.0781692265,4.932803869000001,0.5568032488,-2.8899248835,0.014813471549999999
0 days 00:00:15.587090109,4.628915548,2.4670002309999997,4.7437708375000005,1.00609430675,-2.3140320775,-0.2519308204833333
0 days 00:00:15.607090109,-1.1054840682499998,1.29750805325,4.56191647075,1.422551393825,-1.97118431325,0.006414093075000016
0 days 00:00:15.627090109,-3.11066937475,3.117847979,4.7132623195,0.5644390583,-1.487837553,1.030376196
0 days 00:00:15.647090109,-2.6791637341666665,8.526026010166667,3.4408789075,0.49571676549999993,-1.08497223255,1.4625630379999999
0 days 00:00:15.667090109,-2.77328145475,14.79362583,1.9716857967499999,0.874147481925,-0.0897207726,1.466380894
0 days 00:00:15.687090109,-3.9744784835,13.704891680000001,-2.9288149475,1.2079851430000001,2.132045404233333,0.42531459214500006
0 days 00:00:15.707090109,-6.817749977249999,8.9389870165,-6.5228346585,1.440419197,0.6129264235,0.04871646687
0 days 00:00:15.727090109,-1.2897314280249998,8.230113268,14.493327139,1.81549018625,-0.11507169912500004,0.1905898163025
0 days 00:00:15.747090109,1.06919291625,10.949955144999999,15.95334784,2.5543311835,-0.5828413965,0.1748600453
0 days 00:00:15.767090109,2.12901404525,22.075583932500003,-8.62971484575,-0.029779642874999956,-0.08620829140000003,-0.94180078025
0 days 00:00:15.787090109,0.6556334196,12.1363964085,-1.0193424225,-1.0359248519166666,-1.1858667483333332,-1.0948224063833332
0 days 00:00:15.807090109,-0.51445686815,5.319843054,-5.33240544825,-2.69803690925,-5.072392225250001,-0.47723811865
0 days 00:00:15.827090109,-0.010169494875000004,4.98424959225,-3.5276188255000003,-3.6328127385,-6.107807874500001,0.43264497817500003
0 days 00:00:15.847090109,1.089930728315,7.935198009,3.83031073955,-3.5559965375,-4.88256573675,0.83688475195
0 days 00:00:15.867090109,-0.08374879509,10.46859932,-0.2847459018,-2.5873178245,-3.0394340755,0.67179855705
0 days 00:00:15.887090109,0.02213360742,12.954143765,0.8530412388,-2.316399336,-2.826853037,0.5392408967
0 days 00:00:15.907090109,-1.2364910598524999,12.46720457,0.03170488762500007,-2.0598361195,-2.50782892125,0.3966039679925
0 days 00:00:15.927090109,-1.0827522427,10.352547406500001,0.18424734475,-1.0719150155250001,-1.6659046114999998,-0.11713332309749999
0 days 00:00:15.947090109,-0.4007977992333333,8.410771449333334,0.15872389944833332,-0.4172206521,-2.011348724,-0.374612838
0 days 00:00:15.967090109,0.08673981577499996,7.7688968185,0.31704899104250006,0.7959568352249999,-2.3925283549999996,-1.07741273175
0 days 00:00:15.987090109,0.8937192559500001,8.4335033895,0.8183453268149999,1.6018910803333333,-2.3332744243333337,-1.4998257356666667
0 days 00:00:16.007090109,0.8805587292,8.913264275,0.08135596663,2.0832015275,-1.73218345625,-1.59725865725
0 days 00:00:16.027090109,1.5661023858,8.4071822165,0.6179464254325,2.21133041375,-1.2613593935,-1.3307689577500001
0 days 00:00:16.047090109,2.389233390833333,7.968099355333334,-0.4111667076833334,1.9960006474999998,-1.259679496,-0.6427824646
0 days 00:00:16.067090109,4.098905087,5.965306759,-1.100698471,0.9573778211749999,-2.006614506,0.49373144659999996
0 days 00:00:16.087090109,2.1407786478,7.7750785085555565,-0.019940199088888926,0.7513636748333333,-1.9256239729999998,0.8599448998666667
0 days 00:00:16.107090109,-0.5276173749999999,9.842876116666666,-0.06819544486666665,1.018311574975,-1.5869503317500002,0.883463203875
0 days 00:00:16.127090109,0.476769909275,10.162317994999999,0.24586251750000002,1.674380302,-1.017471671,0.8623883724
0 days 00:00:16.147090109,0.7712864932,9.858030479,0.3760719522666667,1.3084723351,-1.3891828654999998,1.0337359307
0 days 00:00:16.167090109,-0.0741775008,9.43190860775,0.026321049774999994,0.9425643682,-1.76089406,1.205083489
0 days 00:00:16.187090109,-0.4175475389,10.4901342415,0.31465618315000005,0.9660826623166666,-0.9824487368333333,1.2402082086666668
0 days 00:00:16.207090109,-0.89371924105,11.383255245,1.4446666386250002,0.791986197275,-0.623921997875,1.0625992715249999
0 days 00:00:16.227090109,-2.375474676725,12.8458681125,1.9190436597500002,0.4813614488,-0.4200458825,0.9411898851
0 days 00:00:16.247090109,-2.92562449,13.287742774999998,1.9533407883333336,-0.062002778049999985,-0.25114177542,0.65072369575
0 days 00:00:16.267090109,-3.0556345580000004,13.0929274525,1.3345968350000001,-0.942106231975,-0.16974405016,-0.0012217294000000031
0 days 00:00:16.287090109,-1.6881364585,12.028719424999998,-0.37088753300000005,-1.3506219985,-0.5353975171833333,-0.3380627495833333
0 days 00:00:16.307090109,-4.2526441214999995,11.36830044,-3.67537552125,-1.6200133565,-0.9430988581000002,-0.5560396761749999
0 days 00:00:16.327090109,-5.278566837,11.31805134,-4.543970108,-2.39520078925,-2.1602469685,-1.2195915582499999
0 days 00:00:16.347090109,-2.8458637934,12.074980576666666,0.10927232083333334,-2.666119337,-3.1759623285000003,-2.2866196035
0 days 00:00:16.367090109,0.47976094169999994,11.1158575975,-4.3351963755,-2.502712965,-3.603873014,-2.935358047
0 days 00:00:16.387090109,1.962114573,11.87318611,-4.225724697,-2.8453063566666668,-4.8205120956666665,-3.6729772486666667
0 days 00:00:16.407090109,1.8705891075,15.453447339999999,-2.5926232935,-3.1160212754999996,-4.04659734635,-3.72780233625
0 days 00:00:16.427090109,2.665604383,19.5523524275,0.6436693372499999,-3.722609997,-0.9948696494,-3.449706078
0 days 00:00:16.447090109,5.347559889333334,19.071195603333333,3.4253255326666667,-2.2012512387000003,0.9461531938000002,-3.253618479
0 days 00:00:16.467090109,5.70030188575,16.53560114,1.80837559675,1.5696169883999997,2.28745949275,-3.3878560065
0 days 00:00:16.487090109,3.2877384425000002,8.080562115,-4.0474596025,2.9221735396666664,0.7402917469666667,-3.7243916593333335
0 days 00:00:16.507090109,1.261017561,6.36251545,-3.921836376,2.329227448,-0.1439350098,-3.837605238
0 days 00:00:16.527090109,-3.49830681075,9.3326063125,-2.32462722075,1.836717710275,-0.63109967485,-3.78858333825
0 days 00:00:16.547090109,-3.8456649235666673,9.179266134,-1.2051850161,0.35918849710000006,-2.09259367,-3.641517639
0 days 00:00:16.567090109,0.5198407247000001,7.60379207125,-2.13439777525,0.140193467965,-2.41833722575,-2.3499968055
0 days 00:00:16.587090109,4.711467743,6.721438646,-0.7166503968,-0.3130681998966667,-2.4853796956666665,-1.2778782348166666
0 days 00:00:16.607090109,7.560721278500001,5.27378106075,1.1084751338499998,-0.4721984863,-2.172616959,-0.6818777919
0 days 00:00:16.627090109,7.89033281825,3.10349100825,3.3236307202499997,-0.372016658985,-2.0249404015,-0.556345082825
0 days 00:00:16.647090109,4.718646387166667,-0.20578275123333337,5.4963137705,0.04123337193,-1.294193387,0.10002911094999999
0 days 00:00:16.667090109,1.32263270025,-0.0646062195,5.1547380687499995,0.263435427075,-0.5460367353000001,1.191186301375
0 days 00:00:16.687090109,1.07198452945,1.9968104360999999,3.3655049205,0.3431023706833333,-0.39021531745000004,1.6113085548333332
0 days 00:00:16.707090109,1.077966630725,4.6683970095000005,1.039681419625,0.702189028325,-0.6277399212750001,2.4356706145
0 days 00:00:16.727090109,0.8745767028,6.068796277250001,-0.720239624375,1.2620466055,-1.653687358,2.655887365
0 days 00:00:16.747090109,-1.1549357275333334,10.316654684,-0.5144569671666668,1.652389288,-2.488434076,2.632063627
0 days 00:00:16.767090109,-4.754538536,14.25404453,15.57488251,1.4333942530000001,-0.3777435197499999,2.7053673265000002
0 days 00:00:16.787090109,-5.861218929500001,13.033704755,5.2307102695,1.1982112724333334,1.2118794173333334,3.2532113395
0 days 00:00:16.807090109,-4.7533420325,6.9427748915,3.49890482425,2.471558809,-1.460959435,3.930151224
0 days 00:00:16.827090109,-4.356133699499999,2.6991039515,9.946365834,3.07784217575,-1.5376229885,3.9431321025
0 days 00:00:16.847090109,-2.2428724271,8.189036528666668,-4.9104709621666665,4.0060513019999995,-0.8607848582800001,3.8550149205000004
0 days 00:00:16.867090109,2.5465614648,17.5908358125,-6.20399105525,3.115410328,0.04604393244,3.727955103
0 days 00:00:16.887090109,4.9591248633500005,22.399212835,0.6329015495000001,-0.548658371,-0.6176606416766667,-2.0988804893333333
0 days 00:00:16.907090109,-3.076571792075,10.993225811749998,1.7467604872500002,-1.8721478285,-0.8525381535000001,-3.753764033
0 days 00:00:16.927090109,-4.17308270925,7.7706916335,2.78883469075,-1.820376992,-0.7792344093,-3.394117355
0 days 00:00:16.947090109,0.1559322674333333,8.252844969666667,1.5365909338333334,-1.1563670038,-1.1063525081499999,-2.7707298990000004
0 days 00:00:16.967090109,0.848853863475,9.857232809500001,-1.7964115145000001,-0.6192641705249999,-1.420642406,-2.052505612
0 days 00:00:16.987090109,-0.83748792105,9.7866449355,-0.84227356335,-0.8494074741833334,-1.0400736728166666,-1.2731949416
0 days 00:00:17.007090109,-0.5048855841000001,10.455438374,0.124426782125,-0.662177421125,-0.6524799615000001,-0.07345649225
0 days 00:00:17.027090109,0.8069794180500001,10.73958635,-0.11844471844999999,-0.21762058044500002,-0.780303403725,0.485637500925
0 days 00:00:17.047090109,1.18564360815,9.483952521666666,-1.6522440164,-0.061391910540000004,-1.102381885,0.5566505194
0 days 00:00:17.067090109,-0.058624140824999976,8.3342010975,-1.610369622575,-0.201585382225,-1.43957921825,0.586430162225
0 days 00:00:17.087090109,-2.3389841315,8.311469555,6.45583552235,0.04683295635000003,-0.8823687038333334,0.7606793543
0 days 00:00:17.107090109,-1.507478281825,9.27218747125,2.7098716502999998,1.28449589,2.44994953275,1.09069904695
0 days 00:00:17.127090109,-1.522433385275,9.476175546250001,-1.6743776796499998,1.49493882025,3.98657989475,0.8286380842500001
0 days 00:00:17.147090109,-2.847857773166666,11.081959404000001,1.1270194251666668,1.2174534795,4.4235010145,0.06459895519999999
0 days 00:00:17.167090109,-2.983251631,13.4733862875,1.300499111575,0.6921098082499999,3.33432906875,-1.28495403005
0 days 00:00:17.187090109,-1.3447663185999998,15.507883545,1.53021001815,-0.6656389932,1.1929425620883334,-3.185710767833333
0 days 00:00:17.207090109,0.020937196924999985,13.999807117500001,0.3906282670999999,-1.725693047,-0.034895648727500006,-4.4121236800000005
0 days 00:00:17.227090109,1.150947697575,11.44487095,-1.7509479562999999,-2.13237631325,-0.12759437578250002,-4.37379169475
0 days 00:00:17.247090109,2.2759731215,10.675179641666666,-1.7623138629833335,-2.415053964,-0.15309799041500002,-3.8348562714999996
0 days 00:00:17.267090109,6.06759989275,9.8877413255,0.393021106725,-1.829998195,-0.7150936052000001,-3.37151551275
0 days 00:00:17.287090109,4.5583270785,9.168100357,-0.47018966079999996,-1.3847286500000002,-0.9374484024833333,-2.8685701293333334
0 days 00:00:17.307090109,3.8763726949999997,8.0267235045,0.489930436,-0.8165735231500001,-0.47746719792500003,-1.6516256929500002
0 days 00:00:17.327090109,2.8767710330000003,4.00379049825,3.0687949656,0.17348559955000004,-0.316351603675,-0.6838631394655
0 days 00:00:17.347090109,-1.7347963651666667,-0.7421738308333333,5.2490552665,1.5250239375,-0.8968258499499999,0.36331181461900003
0 days 00:00:17.367090109,-4.90229535125,-1.319641723925,6.88654363125,2.04135745775,-0.9902881532500001,2.1870486141749996
0 days 00:00:17.387090109,-4.9447681905,3.0771698651499997,1.2406785485000003,1.8090760311666667,0.5215003391,4.344623048833333
0 days 00:00:17.407090109,-3.5766716005,9.9613205215,-5.453242897999999,1.0294598791,0.610941156775,5.7586224075
0 days 00:00:17.427090109,-1.260419309225,17.0949235,-5.864808201999999,0.7312051654,0.1541669965,5.911185741
0 days 00:00:17.447090109,-1.17048905305,21.30010923,9.729216855833334,1.8719951807,0.50846856835,4.863247275
0 days 00:00:17.467090109,-2.3952154814999997,14.02433300325,2.52981179925,3.012785196,0.8627701402,3.815308809
0 days 00:00:17.487090109,-4.3238303665,7.5038917065,2.0889341235,4.190736015833333,-0.27415103215,2.197535197
0 days 00:00:17.507090109,-4.71086966975,7.433303355750001,-1.5948162375000003,4.162432671,-0.4829649627,1.558774233
0 days 00:00:17.527090109,-0.31046876324999995,10.84546864275,-4.810171604000001,4.162432671,-0.4829649627,1.558774233
0 days 00:00:17.547090109,0.4111667273333332,11.630713306666665,-4.376472512833334,1.0955860020000001,-1.26517735435,-0.1980729099999999
0 days 00:00:17.567090109,-3.03768831475,9.49711298925,2.117648065,-2.1481059494999997,-2.3456444142499997,-1.9819508195
0 days 00:00:17.587090109,-0.8602197766,8.458628177500001,2.280360043,-2.0621776186666665,-2.2932627396666665,-1.850971222
0 days 00:00:17.607090109,0.805783018475,11.770294427,-2.093719751,-1.4129301905,-1.4971532225000002,-1.1217004355
0 days 00:00:17.627090109,1.536192104175,13.380663872500001,-0.7525427016425,-1.71882072075,-1.241659030625,-0.9676097778
0 days 00:00:17.647090109,1.77348030665,12.784053805,2.0733807888016664,-1.9602650400000001,-0.8091667294999999,-0.7692314982
0 days 00:00:17.667090109,-0.12981062987499997,10.401001933500002,1.0917253493999999,-1.0842849908999999,-0.2076176595995,-0.46685342490000004
0 days 00:00:17.687090109,-0.4785645306,8.8678007125,-0.5898307561999999,-0.26572618354166666,0.020591233855666666,0.17811798053333336
0 days 00:00:17.707090109,-0.531206622725,8.598010063250001,-2.1134606304999997,-0.02748891525,-0.02420551702,0.5215258002
0 days 00:00:17.727090109,-1.8765710743250001,8.21635484675,-2.29232418525,-0.0694858678625,-0.14790564124,0.5203040689
0 days 00:00:17.747090109,-4.278765558833333,8.285547097666667,14.564313209666667,0.26694791765000003,0.90797412405,0.4653262347
0 days 00:00:17.767090109,-3.99302268,7.8771719935,12.524631377999999,0.729372561,2.334954262,0.4140135944
0 days 00:00:17.787090109,-3.0149564745,5.9868421555,0.11006987099999987,0.8655954003333334,5.530897140833333,0.10674861818666666
0 days 00:00:17.807090109,-2.9862425925,5.087140798749999,0.40677985545000006,0.8553633988,5.151651919000001,-0.36682430275
0 days 00:00:17.827090109,-2.62253356,4.972285271,-0.7680960894,0.24602580067500002,2.292041093125,-1.3358085750000002
0 days 00:00:17.847090109,1.335992654,8.292326927833335,-3.8404803472333335,-1.7934990225499998,-1.04465514425,-2.7838635445000004
0 days 00:00:17.867090109,2.29471683475,12.642478230000002,-3.780061635825,-3.0266822575,-1.858785212,-3.57126826025
0 days 00:00:17.887090109,3.6813575029999996,18.563518525,0.8985049053499999,-2.9216643574999996,0.32653266193333336,-4.056193073666667
0 days 00:00:17.907090109,2.28993120825,18.0257315675,2.2588245865,-0.5925388932500001,0.14332416660000002,-3.6754205227499996
0 days 00:00:17.927090109,0.999601647325,11.19841003525,3.099303484,1.1279617844999998,-1.2389101385,-2.2769984602499997
0 days 00:00:17.947090109,-0.6009972990166667,3.58046029,5.948158185,1.506392598,-1.10421443,-1.619555235
0 days 00:00:17.967090109,-2.1906291844999997,0.41994038200000006,3.1914272757499997,2.005774587,0.20105089240000001,1.1032218337500002
0 days 00:00:17.987090109,-2.0362920765,0.9188438655000001,-2.376072794,1.9644394016333333,0.22981243333333343,2.3980006378333334
0 days 00:00:18.007090109,-1.476371527,3.259024382,-4.101297855,0.9254601598,-1.801822066,4.333932877
0 days 00:00:18.027090109,1.09351998575,5.9976100325,-3.5862429142499996,0.6858484456475,-2.178878337,4.17480260175
0 days 00:00:18.047090109,1.5872390666666665,7.566504081000001,2.362114826833333,-0.03298669681,-3.3100471500000004,3.6974117760000005
0 days 00:00:18.067090109,-1.7048861384999996,8.8546401255,1.8221344947499998,1.4504984477975,0.704250753,2.9194754962499996
0 days 00:00:18.087090109,-9.896714687,15.00419378,-1.5708881021499999,2.6724316276666666,0.2866228471583333,3.3855652413333335
0 days 00:00:18.107090109,-0.8422736522500002,20.8989129025,-1.421336650825,2.3674064872500002,-0.33330310140749997,2.587317697775
0 days 00:00:18.127090109,0.967298537575,13.658231975,-1.1084750890750001,0.6985239163499999,-0.8387937137474999,-0.4243983105
0 days 00:00:18.147090109,0.7768697440833333,9.977671782666667,0.3006980418833333,-0.9434806553,0.006643155590000002,-1.4866921601500003
0 days 00:00:18.167090109,0.23748762900000003,10.020543338,2.614158719775,-1.633452415,-0.05047270283,-2.003789186
0 days 00:00:18.187090109,-2.2863420249999997,12.205788140000001,-2.2671994564499998,-0.8343394894666667,-1.608890567805,-1.3087269064
0 days 00:00:18.207090109,-3.397808075,13.16530991,-3.69212532,-0.9972367733,-1.636735812025,-0.3773617074
0 days 00:00:18.227090109,-1.3824532628,10.26700353725,0.46061837699999997,-1.18141251775,-0.40202536437499997,0.2576322201875
0 days 00:00:18.247090109,-0.27437700830000006,7.982456207166667,0.38843480766666655,-1.170111477,0.37010769545,-0.060933765024999996
0 days 00:00:18.267090109,-2.5561328532500003,7.712067365499999,5.48434931075,-0.9998329131500001,1.5779401062749998,-0.634230375325
0 days 00:00:18.287090109,-3.8799619675,7.645068169000001,0.9475577325,-0.5472330351833333,4.0788713695,-1.2464186946833333
0 days 00:00:18.307090109,-3.276372492,6.02752006075,-1.1449656259999998,-0.53313225505,3.9661160109999996,-1.7913609445
0 days 00:00:18.327090109,-2.7290142179999997,4.96989250225,-0.18424734464999998,-0.57375475765,2.9436810015,-2.020893365
0 days 00:00:18.347090109,-2.0785652402,6.4709899433333335,-0.10249257083333331,-0.5885682106,0.94584772745,-2.388023138
0 days 00:00:18.367090109,1.5822539926,15.910475969999998,-1.82751825425,-0.5626064539,0.1364519149,-2.568228245
0 days 00:00:18.387090109,4.261617184,18.84108543,-2.199003935,-1.2320124704833333,0.6606757020333334,-3.0815583465
0 days 00:00:18.407090109,4.00139766925,15.341582294999998,1.720439434,-1.0323615003,-0.067729629525,-3.16611218425
0 days 00:00:18.427090109,1.9836499985000002,12.581461427499999,3.5491541625000003,-0.1857028902,-1.158581376,-2.669020891
0 days 00:00:18.447090109,1.6717855084166668,6.335795441833333,1.7826528451333334,-0.026267185850000003,-1.01594448085,-0.9314160346000001
0 days 00:00:18.467090109,-0.669990323375,2.49571400875,0.78903327885,0.21655156835,-1.349782079675,2.0463970306999997
0 days 00:00:18.487090109,-1.9704894419999999,2.6907291415000003,0.617348253795,0.42577275875,-1.6169335845,2.7191118403333334
0 days 00:00:18.507090109,-2.420340121,4.856233597,-1.5068801043525,1.3206896479999999,-2.1599414350000004,4.051255106999999
0 days 00:00:18.527090109,-1.6791632772500003,6.116652727,-0.76689967505,1.28510674825,-2.090455681,4.117686748500001
0 days 00:00:18.547090109,-3.3698918424999995,7.3423763115,2.740579505933333,1.288313866,-1.869628072,3.996735573
0 days 00:00:18.567090109,-7.893323421749999,12.136396645,2.2319054007499997,2.5926628112500003,-0.21846053755000003,3.6270096900000004
0 days 00:00:18.587090109,-3.8476588725,16.567904470000002,0.0047856570000000724,3.283703526,-0.8100830465333333,2.7118832372
0 days 00:00:18.607090109,-1.029511928475,12.9379923325,-0.9535398335,2.315177440325,-1.1645373663999998,0.469144165525
0 days 00:00:18.627090109,-0.486939407875,8.5172523255,-3.7094733267500004,0.5723803043,-0.1469893306,-0.5456549525
0 days 00:00:18.647090109,1.3579268707666667,9.286146243166668,-2.7465616063333336,-0.57054769985,-0.7969494387999999,-1.04076084475
0 days 00:00:18.667090109,1.19342031365,12.22911858525,0.04606187375000026,-1.713475704,-1.446909547,-1.535866737
0 days 00:00:18.687090109,-1.8400806337000002,18.05863285,4.0630129575,-0.8220203667333332,-0.5914952668433333,-1.1349358708833333
0 days 00:00:18.707090109,-1.277169093475,13.1958191375,-1.4261223079999998,-0.478154413375,0.0417678803175,-0.322231162325
0 days 00:00:18.727090109,0.951745197175,11.448460105,-1.0151550174750001,-0.6007855236249999,-0.1703549157875,-0.271834831725
0 days 00:00:18.747090109,0.5918247997999999,9.967302956166668,0.45503509541,-0.695164144,-0.4273762703000001,-0.3886627257
0 days 00:00:18.767090109,-1.4249259083999999,6.91525745425,3.014956504,-0.742353409525,1.745164394425,-0.1756236255
0 days 00:00:18.787090109,-3.7196427584999996,6.1639113425000005,1.0504491624999999,-0.90570883955,3.452226002833333,-0.15928298730666665
0 days 00:00:18.807090109,-5.6536417005,5.25463855275,0.5826523155250001,-1.052520037,4.183431149,-0.4986183643
0 days 00:00:18.827090109,-5.74995279325,5.489135146000001,-1.083350420075,-0.9511164727000001,3.6055530609999997,-0.5198459178
0 days 00:00:18.847090109,-0.7246264220333333,7.741977691833333,1.5720845063333335,-0.6673697531,0.98188879316,-1.00869044665
0 days 00:00:18.867090109,3.4169508215000004,9.891330481,-3.725026786,-1.1496474891,-0.660879332595,-2.4152067005
0 days 00:00:18.887090109,3.4265220165,10.7509522425,-3.9397826195000003,-1.5280782181666666,-0.8831832111166666,-2.918966531666667
0 days 00:00:18.907090109,2.60339105125,13.636696100000002,-1.983051717,-2.6636758444999997,-0.479452513175,-3.7505570055
0 days 00:00:18.927090109,1.5619149805,13.923835279999999,1.5625131727500001,-2.3464843034999996,0.07643445582500002,-3.32066100875
0 days 00:00:18.947090109,0.8638089401333332,11.674183209666666,3.8707894088333332,-0.15271621950000003,-1.3546690642,-1.69346991195
0 days 00:00:18.967090109,-0.9122636169000001,5.905486286,3.1854451294999997,1.5380048152499999,-2.323042333,-0.35216354949999995
0 days 00:00:18.987090109,-3.3008987905,1.03609219205,2.194218397,2.627329409,-2.308025360333333,1.2430589372166667
0 days 00:00:19.007090109,-3.740579963,0.6352943927,-0.182452708425,2.826318562,-2.7494260075000003,2.8406739235
0 days 00:00:19.027090109,-1.81196495875,3.5186455844749998,-1.356730401225,2.3096797464999996,-2.9348234535,3.754833162
0 days 00:00:19.047090109,0.6887341141666669,6.635297139166667,11.276974421666665,2.2996004820000002,-1.979583621,3.5593563315
0 days 00:00:19.067090109,0.6125625965000001,11.093723534999999,12.524033545,2.386648655,-1.008308649,3.246593475
0 days 00:00:19.087090109,-1.3531411888500002,15.566507815,-6.8566334225,0.9275981585,-2.1034874518333333,1.933539748
0 days 00:00:19.107090109,-1.6480565666750002,18.1136670125,1.3010972739999997,-0.2638935745,-2.4485750795,0.8480330660825
0 days 00:00:19.127090109,-5.2689955235,18.4546446825,5.0111688375,-0.983034119075,-1.67338762635,0.028863360172500005
0 days 00:00:19.147090109,-3.294916749,12.495319683166668,2.1958136138,-0.33444847538000005,-0.23342670875000002,0.24572034925
0 days 00:00:19.167090109,-2.611765981,10.67677450175,0.03768696264999999,0.36819875055999995,-1.1543053687750002,0.33337943997499997
0 days 00:00:19.187090109,-1.7084754110000002,13.416556835,0.52881380915,0.4902189774399999,-1.5695916117666666,0.5286525736166667
0 days 00:00:19.207090109,-1.13539436475,12.0018005375,-2.034497424975,0.01954767294,-0.9331722856,0.3657552898
0 days 00:00:19.227090109,-1.9130617980000002,9.8010013105,6.22432976975,-0.11728603254500002,-0.4160752447,0.2910770699425
0 days 00:00:19.247090109,-2.343370994166667,7.208377997166667,0.45583269966666645,-0.4572322816,2.1706317065,-0.181579560065
0 days 00:00:19.267090109,-5.4006005525,5.856433392,0.5300101339999999,-0.439364492925,3.5033859612500002,-0.48472118382499996
0 days 00:00:19.287090109,-6.464210272,6.0275204185,2.6249263511,-0.3456476529666666,3.3585600855,-0.55624326075
0 days 00:00:19.307090109,-2.21216452125,4.6606202127500005,-1.60079829745,0.055130541350000006,1.471191465875,-1.038164675375
0 days 00:00:19.327090109,-0.37028929498249996,4.87477791325,-4.0564326645,-0.775340117525,-1.287473857375,-1.8727586867500001
0 days 00:00:19.347090109,1.987239208615,9.259027004,-3.9577285502,-1.866191864,-3.554393053,-2.439946651
0 days 00:00:19.367090109,2.3258236345,13.2000060075,0.81535432485,-3.42893677925,-3.39908063425,-3.11067610975
0 days 00:00:19.387090109,0.86620178805,16.21496296,2.6560331585,-3.832769354333333,-0.19677480066666667,-3.4131560326666666
0 days 00:00:19.407090109,1.831107482525,14.730814692500001,4.256233156,-3.809352875,0.4333322048,-3.42893672
0 days 00:00:19.427090109,2.208575249,14.20379543,4.759324074,-2.45048415675,0.64362239835,-2.8472407459999998
0 days 00:00:19.447090109,0.3481556574333333,4.096113651633334,2.4107687870000003,2.2617268564999997,0.3792706429499999,-0.86666443925
0 days 00:00:19.467090109,-3.37328183675,-1.4991034419000002,2.8163521882499998,3.06913739425,-3.201618566775,0.265420749775
0 days 00:00:19.487090109,-5.703292846499999,-2.6440691355,1.4273186922,1.150563816,-5.5757446285,1.5030837258666665
0 days 00:00:19.507090109,-4.01156711575,4.252644210750001,0.2033899184325,-1.2079850732500002,-5.76328003375,3.153894901
0 days 00:00:19.527090109,-2.16370984925,8.47537815575,0.6598208416025,-0.644462347,-5.627667904,3.96435976
0 days 00:00:19.547090109,-0.9726823768333333,12.234103838333333,-0.15194424991666663,1.5836669205,-3.428249359,3.1005969044999997
0 days 00:00:19.567090109,2.574677229,25.54816818,-5.19481802,3.22307527075,1.53609591725,1.077718183325
0 days 00:00:19.587090109,4.012763619499999,20.543579100000002,-4.212564349,1.294626079625,2.1204389459083335,0.11077015598333334
0 days 00:00:19.607090109,-3.93140769,21.64068794,-6.494120598,-0.9238311350999999,0.5473602812666667,-0.6087776621333333
0 days 00:00:19.627090109,-9.625727595,16.00917983,10.5206425155,-1.174234777775,-0.555047012825,0.005192324399999948
0 days 00:00:19.647090109,-9.523833241316668,13.306486606666667,12.708280559499999,-1.04580050705,-1.7896047235,1.6675080654999999
0 days 00:00:19.667090109,1.395613826825,9.442676067499999,-4.751547575,-1.138651967,-2.188499451,1.209970355
0 days 00:00:19.687090109,4.153940201,10.23410225,-4.871787071,-2.3027565681666666,-3.9806748229999998,-0.5609266162333334
