time,acc_x,acc_y,acc_z,rot_x,rot_y,rot_z
0 days 00:00:00.026569484,0.19202401233333333,0.8522436618333334,1.4823536873333334,-0.025350887299999996,0.30760858955000003,0.020387612269999994
0 days 00:00:00.046569484,0.0,0.0,0.0,0.01761326815,0.050790861250000006,0.017587815716666667
0 days 00:00:00.066569484,0.10498509179999999,4.2164525985,5.46640348425,-0.059616584325,-0.0466357097,0.083344861875
0 days 00:00:00.086569484,0.725922551025,5.838188290250001,7.972286701250001,-0.2384663373,-0.1865428388,0.3333794475
0 days 00:00:00.106569484,1.0059825281499999,5.709872960999999,8.751549085333334,-0.35044548659999997,-0.0379117988,0.2596557066
0 days 00:00:00.126569484,0.977468058475,5.53788876525,9.08943557775,-0.5238165557250001,0.34849836115,0.158901199725
0 days 00:00:00.146569484,0.55034920575,5.037489891,9.60419178,-0.544280529,0.4277580678,0.1498909444
0 days 00:00:00.166569484,0.33858440074999996,5.10508704225,9.03858852375,-0.5218312442249999,0.5171543136,0.165716160125
0 days 00:00:00.186569484,0.381056994175,5.3222355839999995,9.075677394500001,-0.4544833899,0.785343051,0.2131918073
0 days 00:00:00.206569484,0.30787650246666665,5.317250728166666,9.461619535833334,-0.31967317315,0.5069795996,0.16241367165
0 days 00:00:00.226569484,0.33589248362499996,5.41166734675,9.64965581875,-0.1352683697,0.0950085641725,0.11633155869999999
0 days 00:00:00.246569484,1.1742777525,5.8055858615,10.1904335,-0.048614655316666665,0.11664971897166669,0.067373295625
0 days 00:00:00.266569484,1.7407784465,6.00478851825,9.9990074625,-0.10709223431499999,0.16877048092500002,-0.0186313726025
0 days 00:00:00.286569484,1.88973164575,5.26091969,11.1062865225,-0.3245982826,0.2854265571,-0.2463312149
0 days 00:00:00.306569484,0.7062814782500001,3.5924243928333333,11.098310466666666,-0.4112265408,0.4565832317,-0.27282747625
0 days 00:00:00.326569484,0.14057833705,3.13041025425,10.7345015975,-0.40696957707500003,0.4986565411,-0.21823143960000002
0 days 00:00:00.346569484,-0.85363945365,2.398206592,9.543174744,-0.3766745031,0.4556287527,-0.1912006736
0 days 00:00:00.366569484,-1.5149558332,1.91904377975,8.781659365,-0.3766745031,0.4556287527,-0.1912006736
0 days 00:00:00.386569484,-1.728814363,1.824527264,8.638090134,-0.260820178325,0.29096252097499997,0.035391986349999974
0 days 00:00:00.406569484,-0.8430711824333333,1.6943178575,9.131808837666666,0.15760311110000003,-0.21678063275,0.78946638105
0 days 00:00:00.426569484,-1.0339984595,1.6342978775,7.827521086,0.18877631055,-0.304916974125,1.024458452975
0 days 00:00:00.446569484,-1.110269666,1.670190215,7.692924976,0.175547272,-0.3297142684,1.078023672
0 days 00:00:00.466569484,-0.16719847182499997,2.71555462475,8.55254614375,0.06858866664999999,-0.40088001635000003,1.24748137575
0 days 00:00:00.486569484,0.541077040125,3.292823136,8.823832273250002,-0.2522871494,-0.6143772602,1.755854487
0 days 00:00:00.506569484,1.2935200132,3.7001014153333336,8.4727854725,-0.23957353085,-0.50350530445,1.7410791515
0 days 00:00:00.526569484,1.58823600375,3.9367914795,8.397611141,-0.2650007792,-0.34756298362500004,1.658211559
0 days 00:00:00.546569484,2.079362869,4.4721856115,8.493324280000001,-0.2777144015,-0.3325395286,1.63551414
0 days 00:00:00.566569484,1.8418752552500002,3.96939373,8.833104849,-0.2777144015,-0.3325395286,1.63551414
0 days 00:00:00.586569484,1.769492388,3.793820381,8.908478737,-0.2777144015,-0.3325395286,1.63551414
0 days 00:00:00.606569484,2.451646209,3.261417269833333,9.502297560666667,-0.17031673715499998,-0.43589021265,1.4255675075
0 days 00:00:00.626569484,4.168296814,3.719642878,8.982656479,-0.003359756902500002,-0.5830513388,1.1718104777499998
0 days 00:00:00.646569484,5.1397829055,3.958925128,8.522037982999999,0.0164933484,-0.5976548195,1.157207012
0 days 00:00:00.666569484,4.2915273305,0.24556344775000005,2.657827749825,0.0164933484,-0.5976548195,1.157207012
0 days 00:00:00.686569484,6.027819335,4.67078965925,8.551050466025,0.0164933484,-0.5976548195,1.157207012
0 days 00:00:00.706569484,3.614557981333333,3.347957710333334,12.315658406666666,0.0164933484,-0.5976548195,1.157207012
0 days 00:00:00.726569484,1.4596217875,1.5134603385,10.597213030750002,0.430487863275,-0.8862884492,0.6766091138
0 days 00:00:00.746569484,2.931207657,2.4239293935,6.8123660085,1.2522219173333333,-0.7209349969833333,1.7009657124000002
0 days 00:00:00.766569484,5.729015708,3.752544105,6.1698931452500005,0.28504477817499996,-1.00838503245,2.9628469345
0 days 00:00:00.786569484,7.3226355315,3.8721852305,8.17089092725,-0.18333578855,-1.37444576625,2.97536957275
0 days 00:00:00.806569484,7.568897009166666,4.288735747166666,8.913662831333333,-0.1589011997,-2.0657919645000002,2.5633412599999996
0 days 00:00:00.826569484,6.524031162250001,4.38006198375,7.010970235250001,-0.19494222102499997,-2.01677006475,2.00516367
0 days 00:00:00.846569484,5.443671703,3.227917671,8.367700577,-0.5493456100166667,-1.3496548633333332,1.8675663471666668
0 days 00:00:00.866569484,5.052445054,0.43010987340000006,6.42771995075,-1.11246109025,-0.9072869272499999,2.3765695097500004
0 days 00:00:00.886569484,5.928816199250001,-0.67477597295,6.9278199675,-1.482187033,-1.1574360135000001,3.1514514682500003
0 days 00:00:00.906569484,7.030112982000001,-0.5858427286666666,7.682555993666667,-1.988135755,-1.3287835715,4.435641765500001
0 days 00:00:00.926569484,7.30947506425,-1.5840485695,6.2865433695,-2.157345295,-1.30770874,4.817737579
0 days 00:00:00.946569484,6.6855466365,-2.587837696,6.3098733425,-2.602564017,-1.0218240520833335,5.8275991278333334
0 days 00:00:00.966569484,6.50668287275,-3.903889954,4.470390916,-2.3152539135000003,-0.9807433933749999,6.51059687125
0 days 00:00:00.986569484,7.4733834265,-3.98524606225,4.7976093295,-1.856189013,-1.847102404,6.701644897
0 days 00:00:01.006569484,7.773084402333333,-4.339782714666668,6.197410662999999,-1.1558325293,-2.0865614415000002,6.135678529500001
0 days 00:00:01.026569484,7.9830545189999995,-4.66181677575,7.730611562750001,-0.4554760456,-2.326020479,5.569712162
0 days 00:00:01.046569484,7.3734827045,-4.591826558,8.333004713000001,0.5697586635666666,-1.4265220164999999,3.509061773666667
0 days 00:00:01.066569484,3.9463626145000004,-7.19043207175,6.875177741,0.8216894865,-1.1493421048,3.0712753535
0 days 00:00:01.086569484,3.9014971252499997,-6.8859454392499995,6.782455801999999,0.968755200525,-0.861930206425,3.0932664274999997
0 days 00:00:01.106569484,4.311467647333333,-6.653243382833334,5.2203415235,0.8639918565999999,-1.00288724905,3.3852598665
0 days 00:00:01.126569484,4.5338007212499996,-6.296712875500001,4.81495749975,0.2804632895,-1.7316489220000002,3.18107843425
0 days 00:00:01.146569484,4.9639105795,-5.7104711534999995,7.130611658,-0.14006620895,-1.9552255074999998,2.846782644833333
0 days 00:00:01.166569484,4.843072891,-5.752345562,7.520641804,-0.3626246154,-1.614362955,2.465297461
0 days 00:00:01.186569484,3.60658186675,-7.0767728089999995,7.063014387999999,-0.205937795325,-1.2495239525250001,2.52714753175
0 days 00:00:01.206569484,3.0664021968333333,-6.444669087833333,5.584050417,0.41744971275000003,-0.15317434815,2.695288062
0 days 00:00:01.226569484,3.278167009,-6.149554253,4.42672205,0.8658244461,-0.41523534435,2.474460542
0 days 00:00:01.246569484,3.949353814,-5.455635548,6.680761099000001,1.0307579438333334,-0.5926915705,2.3683737116666665
0 days 00:00:01.266569484,4.620540619,-4.761716843,8.934800148,1.40857782975,-0.561537474125,2.1105377675000003
0 days 00:00:01.286569484,1.8891334980999999,-8.004589796,6.189036012,1.4334705175,1.1881319881249999,2.0441063044999996
0 days 00:00:01.306569484,2.2065812448,-7.374280532333334,4.486143827333333,1.104061723,2.129627228,2.442695618
0 days 00:00:01.326569484,2.3916262684999996,-6.2482579949999995,4.8801617625,0.609719403175,2.1044291255,2.76248323925
0 days 00:00:01.346569484,0.63409802325,-6.638886452,6.236892223000001,0.390469864,2.070577025,2.7974042890000006
0 days 00:00:01.366569484,-1.459023609875,-8.1744802,8.989834785500001,0.405843287675,2.9303182957500002,2.841284752
0 days 00:00:01.386569484,-1.73599284925,-9.02512860275,9.6149597165,0.567111596475,4.128071427749999,2.97048270675
0 days 00:00:01.406569484,-1.1302099030000001,-8.740582386833333,9.2067837715,0.7045561671000001,4.577973366,3.036456108
0 days 00:00:01.426569484,-2.210369885,-7.55832862875,8.19302475425,1.516395434775,5.47319567175,3.3745698330000002
0 days 00:00:01.446569484,-3.1357940435000002,-5.489135027,7.946563959,1.8715114991666668,5.974715629833334,3.4906341630000006
0 days 00:00:01.466569484,-3.00957268475,-3.68913435925,7.99262595175,2.4313182235,7.18651855,3.2862998845
0 days 00:00:01.486569484,-4.64327245975,-5.14217603225,5.1990053655,2.8561746475,7.78669321575,2.3924519715
0 days 00:00:01.506569484,-6.552346150000001,-6.593422969166667,1.4189437624999999,2.895117283,7.821054459,1.7011057139999999
0 days 00:00:01.526569484,-7.928019881499999,-7.559525013,-2.40777784575,1.4789800345000002,5.32185399525,0.901178270625
0 days 00:00:01.546569484,-9.5784692765,-8.5579304695,-1.4823536275000002,-0.37056584165,1.9707006560666667,0.6987783909499999
0 days 00:00:01.566569484,-9.719645739,-8.292925358,-0.09391829045000001,-0.9563851953,-0.2105956376,1.379179955
0 days 00:00:01.586569484,-7.7742809057499995,-5.9545392992499995,-1.0480562834,-0.889953643125,-0.9552397952,1.4778346125
0 days 00:00:01.606569484,-7.180860678333334,-5.981259028333334,-1.3559327916666666,-0.6906589866,-3.189172268,1.773798585
0 days 00:00:01.626569484,-5.562116146000001,-6.7806611065,0.2829512804675,-0.6906589866,-3.189172268,1.773798585
0 days 00:00:01.646569484,-7.228717327,-8.2289168835,8.18225690555,-1.4454332812833333,-7.786540766166667,2.0419682115416666
0 days 00:00:01.666569484,-7.197610378,-8.602197647,12.97149181,-1.8175008296666666,-6.219061533333333,2.416428327333333
0 days 00:00:01.686569484,-1.58584316815,-3.415754378,14.76790309,-1.971642375,-4.921584606,2.612515926
0 days 00:00:01.706569484,0.7820541908166666,0.06779665188333339,16.525232475,-0.6219366789,-2.0410518347499997,1.4143046735
0 days 00:00:01.726569484,0.468395054325,1.8915263415,12.0699956385,0.919733285925,2.0132575783749997,-0.346054896725
0 days 00:00:01.746569484,-0.5814558864,1.399801254,5.761917114,0.9837213755,2.404516459,-0.5334376693
0 days 00:00:01.766569484,-0.5814558864,1.399801254,5.761917114,0.9837213755,2.404516459,-0.5334376693
0 days 00:00:01.786569484,-0.5814558864,1.399801254,5.761917114,0.9837213755,2.404516459,-0.5334376693
0 days 00:00:01.806569484,-1.148156037,0.09411772066666672,5.7280187604999995,0.9837213755,2.404516459,-0.5334376693
0 days 00:00:01.826569484,-3.98165679,-6.434299946,5.558526993,0.9837213755,2.404516459,-0.5334376693
0 days 00:00:01.846569484,-3.98165679,-6.434299946,5.558526993,0.9837213755,2.404516459,-0.5334376693
0 days 00:00:01.866569484,-3.98165679,-6.434299946,5.558526993,0.9837213755,2.404516459,-0.5334376693
0 days 00:00:01.886569484,-3.98165679,-6.434299946,5.558526993,0.9837213755,2.404516459,-0.5334376693
0 days 00:00:01.906569484,-3.8219358923333338,-6.098507166,6.000401497000001,0.9837213755,2.404516459,-0.5334376693
0 days 00:00:01.926569484,-3.023331404,-4.419543266,8.209774017,0.9837213755,2.404516459,-0.5334376693
0 days 00:00:01.946569484,-2.7541388275000003,-3.466601729,7.091727972000001,0.9837213755,2.404516459,-0.5334376693
0 days 00:00:01.966569484,-2.4050858017500003,-3.2530424,9.14656460175,0.7112184130000001,1.086117566,-0.32244115325
0 days 00:00:01.986569484,-3.5099716185,-4.95852685,7.267301321,-0.1062904745,-2.869079113,0.3105483949
0 days 00:00:02.006569484,-1.8175481507583333,-4.769094864333333,4.488935152500001,-0.00977383925,-3.2930192945,0.3566686809
0 days 00:00:02.026569484,-0.10289136996249999,-5.1768717765000005,7.2714886665,-0.6612420436249999,-4.22888338575,0.5416079684749999
0 days 00:00:02.046569484,-1.0486545116,-6.7100729945,7.477570534000001,-0.9105703235,-4.399524689,0.587880969
0 days 00:00:02.066569484,-1.649851203,-7.923832417,6.385247231,-0.9105703235,-4.399524689,0.587880969
0 days 00:00:02.086569484,0.2533401102,-6.3113688235000005,5.3371908665,-0.8707686663,-4.859143138249999,0.81466451275
0 days 00:00:02.106569484,0.8877372146,-5.773880959,4.987838745,-0.8538744450000001,-6.6886258125,1.28873378
0 days 00:00:02.126569484,1.57357998195,-6.58175778425,4.23021128775,-0.9563851953,-7.139253139,1.082452416
0 days 00:00:02.146569484,4.064807415,-9.489336490500001,2.197209418,-0.9563851952999999,-7.139253139,1.082452416
0 days 00:00:02.166569484,6.1881383655,-7.3127651215,4.451547265249999,-1.0910808592249999,-7.579782128,1.19118633825
0 days 00:00:02.186569484,6.751348972,-6.425925255,5.123033047,-1.495167851,-8.901369095,1.517388105
0 days 00:00:02.206569484,7.0153570966666665,-6.473781665333334,5.0247279805,-1.564004719,-8.2434675695,1.0700441895
0 days 00:00:02.226569484,8.10299479925,-7.709375262749999,4.8188458679999995,-1.632841587,-7.585566044,0.622700274
0 days 00:00:02.246569484,7.4632139205,-10.841879370000001,3.5353955624999998,-1.632841587,-7.585566044,0.622700274
0 days 00:00:02.266569484,7.520641804,-10.98544884,1.395015597,-1.632841587,-7.585566044,0.622700274
0 days 00:00:02.286569484,7.5188468695,-7.9471622715,3.27218487825,-0.6917089222499999,-7.2244876625,0.72889529175
0 days 00:00:02.306569484,7.738188902499999,-7.0839514735,3.6181471345000005,2.5614323619999997,-5.7795443535,0.90094918025
0 days 00:00:02.326569484,8.837890625,-7.831708431,2.219342947,2.991175652,-5.417836189,0.7544180155
0 days 00:00:02.346569484,8.598608493999999,-8.904889345,0.6173482239,2.9911756520000004,-5.417836189,0.7544180155000001
0 days 00:00:02.366569484,8.888737917,-8.76760148975,0.17467607555000003,2.991175652,-5.417836189,0.7544180155
0 days 00:00:02.386569484,9.065208435,-8.3641119,0.5611169338,2.59029567275,-3.90833201985,0.52545825765
0 days 00:00:02.406569484,7.313463051833334,-7.870791355833333,0.06679963568666668,1.270980537,0.53210140765,-0.04375318812499999
0 days 00:00:02.426569484,6.36042177675,-7.27866745,0.16719846434999996,1.154305339,0.4440223277,0.07391463965
0 days 00:00:02.446569484,6.246463299000001,-6.226124287,2.126022816,1.154305339,0.4440223277,0.07391463965
0 days 00:00:02.466569484,6.6717876195,-7.504789114,4.00588405125,1.154305339,0.4440223277,0.07391463965
0 days 00:00:02.486569484,8.2295155525,-6.207281232,-0.3628117445000001,1.154305339,0.4440223277,0.07391463965
0 days 00:00:02.506569484,7.7270228465,-6.050451596666666,-1.5591233176666668,1.0206404925,0.60326714815,-0.024625483924999997
0 days 00:00:02.526569484,2.854637384,-8.139185905,0.784845829,0.48454938830000005,0.73273229595,-0.04253145867
0 days 00:00:02.546569484,4.631308198,-7.2915287015,0.9768698214999999,0.3504073024,0.7228057384,-0.01565340906
0 days 00:00:02.566569484,6.407979012,-6.443871498,1.168893814,0.157125867925,0.6918043493749999,-0.04976638964499999
0 days 00:00:02.586569484,5.641677617999999,-6.9490562677500005,0.5003990158,-0.542848803075,0.5089457965999999,-0.11331541759024999
0 days 00:00:02.606569484,4.977669318333333,-7.627919912333333,1.1012965888666666,-1.0615684094,-0.03966803105,0.1164842784695
0 days 00:00:02.626569484,5.97577548025,-7.681558728000001,2.8543382289999997,-1.208615005,-0.61239195615,0.26639432085000003
0 days 00:00:02.646569484,7.489534855,-7.349554539,3.926621914,-1.204854369,-0.710283041,0.2785543501
0 days 00:00:02.666569484,8.399405599,-6.62542676925,3.64127779,-1.204854369,-0.710283041,0.2785543501
0 days 00:00:02.686569484,8.702695847,-6.384050846,3.546163082,-1.078405365225,0.07339918624999997,-0.36514443917499995
0 days 00:00:02.706569484,6.7146592145,-7.5146595634999995,1.2480563819166666,-0.89766576895,2.6229770185,-2.108285308
0 days 00:00:02.726569484,6.61884665525,-7.3707910775,1.162911817425,-1.45866876875,2.8847326635,-1.618868023
0 days 00:00:02.746569484,7.524230957,-6.260820389,2.286342144,-1.579467297,2.905807495,-1.5183807610000002
0 days 00:00:02.766569484,7.524230957,-6.260820389,2.286342144,-1.8592051867500001,3.30867278575,-1.4186570942499999
0 days 00:00:02.786569484,7.524230957,-6.260820389,2.286342144,-2.698418856,4.517268658,-1.119486094
0 days 00:00:02.806569484,7.3152577878333345,-6.7298137350000005,3.1316065788333334,-2.153832853,4.3897125725,-0.584559427815
0 days 00:00:02.826569484,6.1833529475,-6.6858454945000005,4.293022870750001,-1.60924685,4.262156487,-0.04963276163
0 days 00:00:02.846569484,3.144168854,-7.6965138915,2.8923243284999995,-1.60924685,4.262156487,-0.04963276163
0 days 00:00:02.866569484,1.3755739032499998,-8.88036322625,0.09272186457500001,-1.60924685,4.262156487,-0.04963276163
0 days 00:00:02.886569484,0.36759738245,-11.07996511575,-0.19441684705,-1.60924685,4.262156487,-0.04963276163
0 days 00:00:02.906569484,1.0536395435,-10.971689781666667,0.6075775697500001,-1.60924685,4.262156487,-0.04963276163
0 days 00:00:02.926569484,5.9249278305,-7.20718169175,4.232604265000001,-0.57869891825,0.3429815174250002,0.30663502869250003
0 days 00:00:02.946569484,5.965904951,-7.4650084969999995,3.5383864645000003,-0.235182941,-0.9634101391,0.4253909588
0 days 00:00:02.966569484,5.438885689,-7.755138397,3.236292601,-0.235182941,-0.9634101391,0.4253909588
0 days 00:00:02.986569484,4.23290318275,-8.60309481625,3.29551506025,-0.12944606695,-0.8463149890499999,0.51906324925
0 days 00:00:03.006569484,4.289134621666666,-8.502097924666666,2.8598218761666665,0.2320522517,-0.65324352685,0.9499329033
0 days 00:00:03.026569484,5.446064472,-7.584051132,2.645265341,0.29999186847500003,-1.1678970752,1.2364857200000001
0 days 00:00:03.046569484,6.669993162,-6.216553211,3.242274642,0.4243473957500001,-1.1504619715166666,1.0363447767833334
0 days 00:00:03.066569484,6.68524730175,-6.917351365,2.3470599355,1.006705165,-0.4692205191,-0.1921933293
0 days 00:00:03.086569484,4.529015063999999,-8.26989448075,3.22702053175,0.999928385075,-0.49365510050000005,-0.1687323041
0 days 00:00:03.106569484,4.102095603833333,-8.567102909166666,3.5784663754999997,0.9795980453,-0.5669588447,-0.0983492285
0 days 00:00:03.126569484,4.831707001,-8.53579628475,3.2886356715,1.274359405325,-0.696614906225,0.24113887172499998
0 days 00:00:03.146569484,4.65762949,-7.299305439,4.034298897,1.4436898428333336,-0.7363974849833334,0.51229918005
0 days 00:00:03.166569484,5.39701151875,-5.652744531750001,4.138386846,1.35253098575,-0.6089558229250001,0.48855818065
0 days 00:00:03.186569484,5.28724086325,-5.383850932,3.2380872965,1.036408424,-0.2286925018,0.3225366175
0 days 00:00:03.206569484,5.792425394333333,-5.3910292785000005,4.652045885500001,0.718873292,-0.4649062902,0.61017756165
0 days 00:00:03.226569484,7.773084164,-4.098905087,7.216753006,0.40133816,-0.7011200786,0.8978185058
0 days 00:00:03.246569484,7.3866434100000005,-4.7330031395,6.8548386095,0.13949351509166666,0.6346375942333333,0.18972441865
0 days 00:00:03.266569484,7.000202656,-5.367101192,6.492924213,0.08712458611,0.9017891288,0.04810560122
0 days 00:00:03.286569484,5.90817809125,-8.30130016775,5.0958148237500005,0.5080676973325,1.2224931271,-0.04749473651
0 days 00:00:03.306569484,5.276572585333334,-8.944171905333333,4.708077827833333,1.7708970309999998,2.184605122,-0.33429574970000003
0 days 00:00:03.326569484,4.1039898995,-6.8536423445,4.642674029,2.68078002325,1.6557299200000002,0.29153522845
0 days 00:00:03.346569484,4.600201607,-5.609972477,3.276970625,2.984074354,1.479438186,0.5001455545
0 days 00:00:03.366569484,4.623531461,-5.5660046337499995,3.38823688025,2.984074354,1.479438186,0.5001455545
0 days 00:00:03.386569484,5.00548589225,-5.310870051,3.3239297270000003,2.984074354,1.479438186,0.5001455545
0 days 00:00:03.406569484,2.246860484166667,-5.002395311833333,6.063811382,1.94926947345,0.5464567543500001,0.34834565219999997
0 days 00:00:03.426569484,1.670190215,-4.956732273,6.61854744,0.9144645929,-0.3865246773,0.1965457499
0 days 00:00:03.446569484,2.8881370425,-4.8532426355,6.646663189000001,1.0409008463166665,-1.8480186462166668,0.7897209177333334
0 days 00:00:03.466569484,5.997609853749999,-3.6891342399999996,7.851150035750001,1.066188097,-2.14031744,0.9083559513
0 days 00:00:03.486569484,7.277769923499999,-1.8020944895,8.106883049,1.066188097,-2.14031744,0.9083559513
0 days 00:00:03.506569484,6.607380827666667,-1.4269198776666665,7.755736430500001,0.77091133595,-1.5900428295,0.47200759127499997
0 days 00:00:03.526569484,2.2932214144999996,-2.215454757,5.889035821,0.66805700955,-1.365626395,0.031249551102500002
0 days 00:00:03.546569484,3.2727831605,-3.0699914695,4.791029215,0.7591776649333334,-1.9901082911666663,0.16989676653666666
0 days 00:00:03.566569484,3.890729666,-3.598805189,4.70787859,0.7645736337,-2.093280792,0.1979201883
0 days 00:00:03.586569484,3.890729666,-3.598805189,4.70787859,0.7645736337,-2.093280792,0.1979201883
0 days 00:00:03.606569484,2.5565315089999996,-3.0362925131666665,5.678168138,1.32962355035,-2.8081071375,-0.14233148845000002
0 days 00:00:03.626569484,3.4674990772500003,-2.2869402169999997,5.985047579250001,1.894673467,-3.522933483,-0.4825831652
0 days 00:00:03.646569484,4.896313429,-2.168495536,7.9357964995,2.121584276166667,-3.6006279388333335,-0.6169734100333333
0 days 00:00:03.666569484,5.387440205,-2.005185366,9.00538826,2.166966438,-3.61616683,-0.643851459
0 days 00:00:03.686569484,5.1209394935,-2.92223459475,7.80120015125,2.1634539960000003,-3.179551214,-0.70848859845
0 days 00:00:03.706569484,4.995416085166666,-3.305684526666667,8.847262541500001,2.15291667,-1.869704366,-0.9024000168
0 days 00:00:03.726569484,5.3623154167500005,-3.5327035785000005,9.587143182999998,1.9083797632500001,-0.97934986655,-0.869585111775
0 days 00:00:03.746569484,5.893522263,-4.238885403,11.37189007,1.7512984075,-0.39987463749999996,-0.8196914494333333
0 days 00:00:03.766569484,4.93609416525,-4.54755938025,10.5077817475,1.37345314,1.013577342,-0.6249146461
0 days 00:00:03.786569484,3.89372062725,-5.190630436,8.48973477,1.37345314,1.013577342,-0.6249146461
0 days 00:00:03.806569484,3.624727447666667,-5.343771298499999,8.145368020000001,1.3734531399999999,1.013577342,-0.6249146461
0 days 00:00:03.826569484,3.7779678700000003,-5.506483197,8.9276216035,1.37345314,1.013577342,-0.6249146461
0 days 00:00:03.846569484,5.395815134,-4.623531461,11.258230685000001,1.8057926096666668,-0.4497491916333334,0.7665080429833333
0 days 00:00:03.866569484,7.228119135,-1.76380938325,9.3050887575,1.747302294,-0.6046034098,1.060919404
0 days 00:00:03.886569484,7.458428383,-1.272981644,8.61296463,1.747302294,-0.6046034098,1.060919404
0 days 00:00:03.906569484,6.228318134999999,-2.160120645833333,7.314061164833333,1.747302294,-0.6046034098,1.060919404
0 days 00:00:03.926569484,5.9204415085,-2.16370987855,8.588140011,0.061143755999999994,-0.7770390958,-0.13335941734999995
0 days 00:00:03.946569484,6.392425537,-0.9559326171999999,9.784252167,-0.2823340656766667,-0.485713866575,-0.8751783272
0 days 00:00:03.966569484,7.1703920365,1.62562382195,9.794121981,-0.06268999726,-0.01473711245,-1.255708933
0 days 00:00:03.986569484,7.429714203,2.486142635,9.797411919,-0.06268999726,-0.01473711245,-1.255708933
0 days 00:00:04.006569484,5.491528113833333,2.1501504583333335,6.772485733166666,-0.06268999726,-0.01473711245,-1.255708933
0 days 00:00:04.026569484,5.755635857750001,2.32343071725,5.85463893425,-0.06268999726,-0.01473711245,-1.255708933
0 days 00:00:04.046569484,9.6526465415,3.496512055,5.5046885014999996,-0.07738893106666667,-0.3939823170416666,-1.4062871140000002
0 days 00:00:04.066569484,14.8040945525,2.8256244065000002,6.4648087025,-0.1508836001,-2.29020834,-2.159178019
0 days 00:00:04.086569484,15.87398529,2.451446772,6.588637352,-0.1508836001,-2.29020834,-2.159178019
0 days 00:00:04.106569484,15.222938056666669,-0.05902298283333337,7.363313357,-0.1508836001,-2.29020834,-2.159178019
0 days 00:00:04.126569484,15.332608935,-0.9000004231000001,7.6821570395,0.749378341975,-1.37694647925,-0.322632067
0 days 00:00:04.146569484,16.05224991,-1.916650891,8.173882484,1.6463315090000001,-0.4208476643166667,0.6954695433333334
0 days 00:00:04.166569484,16.05224991,-1.916650891,8.173882484,1.998138666,0.6204095483,0.8240565658
0 days 00:00:04.186569484,16.05224991,-1.916650891,8.173882484,1.998138666,0.6204095483,0.8240565658
0 days 00:00:04.206569484,16.05224991,-1.916650891,8.173882484,1.998138666,0.6204095483,0.8240565658
0 days 00:00:04.226569484,16.05224991,-1.916650891,8.173882484,1.998138666,0.6204095483,0.8240565658
0 days 00:00:04.246569484,11.023733616500001,0.6484549645000001,5.576473355,1.8076124885333333,0.5496764953,0.6383536756333333
0 days 00:00:04.266569484,6.545267224,1.1470593662250002,1.280459210225,0.8549816012,0.1960112303,-0.2901607752
0 days 00:00:04.286569484,8.89292562,-1.0914262084250002,2.746661320575,0.8549816012,0.1960112303,-0.2901607752
0 days 00:00:04.306569484,10.073783078333333,0.022731820833333288,6.5459651548333335,0.6188060194,-0.2174296752,-0.3818668425
0 days 00:00:04.326569484,8.42931580525,2.92881488825,8.86122059825,0.360639296475,0.5369501263,-0.22892157359999998
0 days 00:00:04.346569484,8.285148143999999,1.8424733875,4.38245484225,0.9071596460166668,2.23805581505,-0.5907571539500001
0 days 00:00:04.366569484,8.336593628,2.3246271015,2.487937256875,0.8624647033250001,2.4811800120000003,-0.915839031325
0 days 00:00:04.386569484,10.615757462000001,3.9140595195,8.58664435175,0.27221660691,2.87579870225,-1.9285001455000002
0 days 00:00:04.406569484,3.137788056333333,1.9657038049999997,6.434699138,-0.61124659313,4.0004007815,-2.8040220735
0 days 00:00:04.426569484,1.97766786775,1.958525315125,5.13978314425,-1.97943097375,2.4727805855,-2.596480787
0 days 00:00:04.446569484,1.307677567,0.3098705411,5.9150576595,-2.3583198783333335,0.9067778786666666,-2.615773916333333
0 days 00:00:04.466569484,3.1734810175000003,-0.77168531715,6.180660963499999,-2.1565816997500002,-1.3103049100000002,-2.510348797
0 days 00:00:04.486569484,4.79641300475,-2.621337205025,5.044070244249999,-2.0591487285,-2.35442554975,-2.0253221985
0 days 00:00:04.506569484,5.595217068666666,-3.9824546178333335,4.951547781833333,-1.656741619,-2.8577780725,-1.30893051625
0 days 00:00:04.526569484,6.891329288,-3.263810158,5.06560564,-0.433332195575,-2.7861542102500003,-0.08628465605
0 days 00:00:04.546569484,9.469595669,-0.7010970715,4.441078901,0.029550585866666645,-2.5994841255,0.09198605271666667
0 days 00:00:04.566569484,9.587442397250001,2.2851456702500004,5.0620162485,0.784426748775,-2.01753357075,-0.5626064688
0 days 00:00:04.586569484,7.0498536825,2.336591244,5.24925470325,0.9887609927500001,-2.1138975325,-0.662940993875
0 days 00:00:04.606569484,6.562316100166666,2.8000013035,2.0426729716833334,1.185306787,-2.545931578,-0.4925097227
0 days 00:00:04.626569484,8.2199438815,4.0923249125000005,1.964507430825,0.05826124540000005,-4.12700241775,-0.23915355649999998
0 days 00:00:04.646569484,9.661021233,4.297509432,5.943771600999999,-0.51768244305,-4.100480715,-0.6040943513833333
0 days 00:00:04.666569484,8.3509507175,3.34337151025,4.17308264975,-0.6336958259500001,-2.554331064,-1.04228799065
0 days 00:00:04.686569484,8.437092781,3.069991529,3.515654564,-0.8219949007,-2.092059135,-0.7619010806
0 days 00:00:04.706569484,10.018748762833333,3.3375887868333334,3.470789214333333,-0.8571196198500001,-2.094502568,-0.55145816505
0 days 00:00:04.726569484,9.826126336249999,3.0107691885,1.86580345075,-0.9925788942499999,-2.238972187,-0.45371981710000003
0 days 00:00:04.746569484,10.58704376,4.1479580405,1.7682959440000001,-1.142597119333333,-2.5581489798333332,-0.6480766336333333
0 days 00:00:04.766569484,9.56052279425,3.569493175,2.1355941595,-1.17736551175,-2.5908302064999997,-0.761595681325
0 days 00:00:04.786569484,8.60159921675,2.7720850710000002,1.1605189442750001,-1.1898882385,-2.61358487575,-0.9224058538500001
0 days 00:00:04.806569484,7.7527454696666664,1.5337992809833334,0.62333031495,-1.0529018044,-3.17359519,-0.3315468642315
0 days 00:00:04.826569484,7.83170866975,0.9714859874249999,0.90687979755,-0.9814306498,-3.470170021,0.002290742937
0 days 00:00:04.846569484,7.7168531415,1.5122639539999998,0.6460621059,-0.6831249992166667,-2.9891140459999996,0.9180788429894999
0 days 00:00:04.866569484,7.121040344,1.90229404,0.4929214716,-0.5135082081,-2.3310599773250003,1.3006838264999998
0 days 00:00:04.886569484,11.864212990999999,2.41017058525,-0.82971128835,-0.1844048053,-0.660039395075,1.821751505
0 days 00:00:04.906569484,12.086146833333332,4.729413867166667,1.3858431054500002,-0.004963278750000004,-0.62079134585,1.2759437857
0 days 00:00:04.926569484,11.47358418,5.917450428,-0.2153540403,0.08055779059000001,0.135459251725,0.42363472282500003
0 days 00:00:04.946569484,10.2257275605,3.7734813095000006,-1.03369937115,0.024460043135,0.4602357000333333,0.19328779789666664
0 days 00:00:04.966569484,8.7122671605,0.1040877775,-1.74616235475,-0.007406739517500011,0.9347758292999999,0.027947067285000005
0 days 00:00:04.986569484,9.183653354499999,0.9218349085,-0.38464625355750004,0.3991237729749999,0.8495601713750001,0.27947064860000004
0 days 00:00:05.006569484,9.392626603166667,1.3160524368333333,-0.132801650675,0.824285686,0.8358157277,0.2313650399
0 days 00:00:05.026569484,8.98564720125,0.72562346575,-1.54815620175,1.3154209105,0.369878627375,0.119118632735
0 days 00:00:05.046569484,8.623732567,0.5324030665,-3.1597223285000005,0.9754747254000001,-0.5237656384333333,0.4156425856133333
0 days 00:00:05.066569484,9.817750931,1.392622828,-3.378665686,-0.0620791316,-1.17820549,0.7634282708
0 days 00:00:05.086569484,12.017951965249999,2.9252257045,1.603191197,-0.216933354725,-1.2643374205,0.53496484085
0 days 00:00:05.106569484,13.168500741666668,2.495315273333333,1.8640088342833332,-0.7071523368,-0.9512691947499999,-0.48976082355
0 days 00:00:05.126569484,12.370893240000001,1.94835576425,0.271585367625,-0.7328086495,-0.3798051775,-0.8290961981
0 days 00:00:05.146569484,9.9026966075,0.47497530300000007,-1.6917256563,-0.5059741933833334,-0.28227043404999996,-0.86666438975
0 days 00:00:05.166569484,9.381659269,1.1982058960000002,-2.2175484,0.647287607175,0.112093687025,-1.0490075647500001
0 days 00:00:05.186569484,8.919246435000002,3.7034910914999997,-1.2520444097499999,0.7045561671,-0.1678351015,-1.032514215
0 days 00:00:05.206569484,8.771689097,5.4053862095000005,-1.4321043096666666,0.7778599262,-0.58322315665,-1.4039199949999999
0 days 00:00:05.226569484,9.16989469525,6.0047885175,-1.38305148525,0.780608803,-1.1058179437,-1.89306992275
0 days 00:00:05.246569484,9.731609344,3.797409534,-1.074377418,0.58971357345,-0.8447750942883334,-2.6687155561666667
0 days 00:00:05.266569484,10.2699944935,3.08315193675,0.22671993067499996,0.33712098747499997,-0.2884808946475,-2.4697263540000005
0 days 00:00:05.286569484,11.11525917,3.706482351,1.180857941475,-0.511675618575,-1.20447264625,-1.4132356494
0 days 00:00:05.306569484,11.325229648333334,2.8171497984999996,0.40319060533333334,-1.0406845213,-2.624427855,-0.9045380354
0 days 00:00:05.326569484,8.96650475575,3.93380039975,0.055633123974999976,-1.197676778,-3.267363071,-0.8535308242
0 days 00:00:05.346569484,0.15314066399999993,9.349954365499999,-0.51445686815,-0.65655239425,0.4554505743333333,-1.0805688899666668
0 days 00:00:05.366569484,6.44865691625,7.214360117,-0.15134603221700002,-0.625601872775,2.0274602175,-0.9465350062
0 days 00:00:05.386569484,8.09491884725,3.12024068825,-1.772483395089,-0.5785652846,2.16001778825,-1.02044965345
0 days 00:00:05.406569484,6.7744797865,3.395415306333333,-2.5910280743333334,-0.5116755962,1.4705042839999998,-0.9439387918
0 days 00:00:05.426569484,8.384450912,6.044270039,-1.715653777,-0.1543197119525,0.43279770949999996,-0.69699670375
0 days 00:00:05.446569484,9.954142571,6.1866428854999995,-1.3950155974999998,-0.051083561655,0.11886410539666668,-1.4661264022333336
0 days 00:00:05.466569484,11.452049015,7.1150581835,-1.4225330655000001,-0.645760416875,0.600632794325,-2.8111997845
0 days 00:00:05.486569484,8.978468417000002,6.2518473865,-2.0392830969999998,-1.25494536725,1.560454071,-3.848295391
0 days 00:00:05.506569484,5.8173504671666665,2.9491539795,-2.745365142666667,-1.8314489724999998,3.511708975,-4.823540926
0 days 00:00:05.526569484,3.96730005775,2.8295127749999995,-4.0420756935,-1.677205563,4.029417038,-4.780780315
0 days 00:00:05.546569484,-0.165104747,2.904886603,-2.1296121778000003,-1.1114430229666665,1.2459096713333333,-3.3572618760000004
0 days 00:00:05.566569484,-2.1457636955,4.31904482825,4.28016157435,-1.3734531105,-1.2942697702500001,-1.5213587285749999
0 days 00:00:05.586569484,-1.844866276,4.965106964,6.020341873,-1.805487156,-1.827554703,-0.1400407553
0 days 00:00:05.606569484,2.1152551965,8.929216384833333,10.135996503833335,-1.417282641,0.750294685,0.62018048785
0 days 00:00:05.626569484,5.53938448325,8.665607094750001,8.87677359875,-0.3322340939325,2.513097644,1.34237533825
0 days 00:00:05.646569484,13.43569946,5.496313572000001,2.629712105,0.3236819940333333,0.07589993881666664,-0.0027997990500000145
0 days 00:00:05.666569484,6.382854461000001,5.84446930875,4.47457838075,-0.017333287742500002,-0.2813032223075,-0.7118101864749999
0 days 00:00:05.686569484,4.415954113,7.28674304475,7.3040914535,0.371329441625,0.33200500800250005,-0.29749115555
0 days 00:00:05.706569484,6.983054081666666,10.409974891,4.5112683375,1.3080905674999999,1.595120668,0.11224640070000001
0 days 00:00:05.726569484,7.8586277965,11.989836454999999,2.463410854,1.443091631,1.965304732,0.0157297682
0 days 00:00:05.746569484,7.4679994585,11.2259273555,1.6929220856,1.4308744071666668,1.1873684428333333,-0.3922261077
0 days 00:00:05.766569484,5.53758966925,7.2999037505,-1.8376877457,1.554269046,1.05114559825,-0.14889828485
0 days 00:00:05.786569484,4.49790823425,4.1940199135,-3.0490542055,1.462639332,1.308625102,0.235030219
0 days 00:00:05.806569484,2.9954150715,1.9712870121666668,-4.4602214495000005,0.9247729034,1.07008239625,0.5306887850500001
0 days 00:00:05.826569484,2.22233399725,4.9513481845000005,-3.1136604549999998,-0.3951531425,0.43707375969999995,1.111773908275
0 days 00:00:05.846569484,7.721638441,13.639089105000002,-0.3170490264999999,-0.9571996727666666,-1.3345868639833334,1.0679443873333334
0 days 00:00:05.866569484,6.98464930075,11.541181565,8.539984345250001,-0.46265372625,-2.056170881,0.23090693325
0 days 00:00:05.886569484,7.72462999825,10.327422622499999,7.770691752000001,1.52204597,-2.7911939025,-2.228281975
0 days 00:00:05.906569484,11.530613579166667,10.438289958333334,3.1672995688333336,2.5087453125,-0.6137664170999999,-2.855029345
0 days 00:00:05.926569484,8.85643470175,9.328419209,-3.5988053975,2.534707069,0.2267835438,-3.387398005
0 days 00:00:05.946569484,-5.292923689,6.5503518585,-3.6442691085,0.71412637825,-1.8260276068666668,-4.1908887623333335
0 days 00:00:05.966569484,-1.505085423525,13.64447271775,-0.09511470789999998,-0.3331503865425,-0.8008437381,-3.8855581279999996
0 days 00:00:05.986569484,2.830111041575,15.632310149999999,-4.40817767355,-0.01198822167,0.3147480786,-4.133874893
0 days 00:00:06.006569484,5.8939209385,12.151152130666667,-0.037886420899999905,-0.164093553535,-0.6794343442,-4.8067424295
0 days 00:00:06.026569484,3.3972099125,9.27039313325,2.667398989,0.059941109275,-2.13634690625,-6.00831341725
0 days 00:00:06.046569484,0.4809573885,7.500302553,0.6616154910000001,0.1853211075,-2.290590286,-6.184547900999999
0 days 00:00:06.066569484,-9.0161553905,1.083948612175,0.9547362627500001,0.190971605475,-2.7398812770000003,-5.5852895377500005
0 days 00:00:06.086569484,-11.605787995,1.9962123039750002,3.23988184325,0.26519167050000003,-3.900524259,-3.0575310139500003
0 days 00:00:06.106569484,-9.322436810000001,4.571886420333333,-1.49431777,0.4369973838,-3.3388342859999995,-0.8675807118
0 days 00:00:06.126569484,-5.37966340825,6.4510498045,-5.228317424725,-0.38263041524999997,-2.736368835,1.2128719833
0 days 00:00:06.146569484,-1.950150371,6.908078909,1.6462619600500001,-1.9328525065999997,-1.3334669369833332,2.0827943086666667
0 days 00:00:06.166569484,-1.9698912502500001,6.06221604375,4.3752762675,-2.311894178,0.5450441241,1.960723281
0 days 00:00:06.186569484,-1.59541454875,6.29252517225,5.0099723342499995,-2.00218573175,0.837648347075,2.038303107
0 days 00:00:06.206569484,-0.3716851298166666,10.519646008666667,3.7890347445,-0.50648328459,1.8559598924999998,2.2331689595
0 days 00:00:06.226569484,-0.24047867577500004,19.4913353925,-1.06121682153,0.09766200833,2.2828017475,1.7403537932500002
0 days 00:00:06.246569484,-2.3341985345,22.049860955,-0.21056839450999998,0.01784234364999999,2.286008815166667,1.3942479842333333
0 days 00:00:06.266569484,-2.23310172575,13.30229902,-0.357726983725,-0.45730864260000004,1.4721841516,0.36224281039999995
0 days 00:00:06.286569484,-1.66839554925,7.570890903,1.14137640625,-0.42661268264999996,0.26328271999999997,0.15882484424999999
0 days 00:00:06.306569484,-1.7168502213333336,6.581060092,1.7415760758333334,-0.2135736048,-0.1898262352,0.0859792158
0 days 00:00:06.326569484,-2.5357938410000003,7.8478603365,1.7850456459,0.26015202705,-0.1655443534,0.108886644225
0 days 00:00:06.346569484,-2.718246579,10.54995537,0.42831525205,0.42875071366666667,-0.032223116444166665,0.043727737225
0 days 00:00:06.366569484,-2.32283258425,10.332208395,0.81056865305,0.36827510222500004,-0.025045456597249997,-0.057115853302500005
0 days 00:00:06.386569484,-1.7359928189999998,9.42772150025,1.280758350725,0.19524765387499998,-0.10354158095249999,-0.3272707984
0 days 00:00:06.406569484,-1.4317055145,9.341579596499999,1.1409776014666666,0.27572908995,-0.2716821134,-0.37736171485
0 days 00:00:06.426569484,-1.1796615722500001,9.70469021775,0.9463613480749999,0.3117701113,-0.3651444316,-0.3935496211
0 days 00:00:06.446569484,-0.59700926385,10.3716897955,1.84008058895,0.20425790796666665,-0.29021167505,-0.49800750615
0 days 00:00:06.466569484,-1.7048862094250001,9.918847799000002,1.7665013375,0.14775292203999998,0.41126471387499997,-0.6206386238499999
0 days 00:00:06.486569484,-2.222932339,9.559326172,1.435693622,-0.013973530379999991,1.42560568475,-0.42027494685
0 days 00:00:06.506569484,-1.9373887381666666,8.718647877666667,0.5810571158516668,-0.2951240465,1.948505938,-0.036804601565
0 days 00:00:06.526569484,-2.41974189875,7.68036258225,-0.023330022117499998,-0.352239914275,1.59176090325,0.20555600149249997
0 days 00:00:06.546569484,-1.660618901,8.532805443,0.0143569354,-0.050472704083333327,0.26099198058333334,0.2946913565
0 days 00:00:06.566569484,-2.001596063,9.98644542825,0.6263213218,0.2641226649,-0.6834049821,0.1214093715
0 days 00:00:06.586569484,-2.51007092025,10.4297153975,0.06221339105000001,0.21586434541000002,-0.7374665141250001,0.034666575500000005
0 days 00:00:06.606569484,-2.4199413456666665,9.808578650666666,1.1968101165333334,-0.026954408729999994,-0.8300125301,-0.32299474625
0 days 00:00:06.626569484,-2.291725993,9.357731580749999,2.21036988475,-0.0420733115125,-0.477238111225,-0.507934078575
0 days 00:00:06.646569484,-2.123630166,9.481559753500001,1.3770694435,-0.0029270603916666665,-0.30599234753,-0.5392408967
0 days 00:00:06.666569484,-1.971685886,9.600004196,0.760917604,0.03886627219775,0.0820085946475,-0.554054334725
0 days 00:00:06.686569484,-1.7114663719999998,9.52104139325,1.0875379292499998,0.008017600513249998,0.0946840383125,-0.5630646199
0 days 00:00:06.706569484,-1.3667004903333335,9.346763928666666,1.2099706328333333,0.072005685415,0.11988221483,-0.55023646355
0 days 00:00:06.726569484,-1.4201402067500002,9.301499843750001,1.4201402660000002,0.1117118969625,0.270154960475,-0.5277871787249999
0 days 00:00:06.746569484,-1.6211373804999998,10.104890349,1.5768700835,0.17300199841666666,0.31128652395,-0.5117519795666666
0 days 00:00:06.766569484,-1.78085821875,10.967502595,1.2077772319999998,0.45074185725,0.260686550275,-0.457385003575
0 days 00:00:06.786569484,-2.33659130325,10.9172532525,0.5192425250999999,0.46219556775,0.053603380925,-0.39202247562500003
0 days 00:00:06.806569484,-2.837887605166667,9.795816897666667,0.6755735874666667,0.2748127952,-0.23319762199999997,-0.1400407525
0 days 00:00:06.826569484,-3.07896459125,8.7649092675,1.00678011775,-0.0147371124575,0.04306596892499999,0.114231718275
0 days 00:00:06.846569484,-3.4851461644999997,8.9838528635,0.510867622322,-0.25511239840166666,0.5021817460333334,0.26180646566666665
0 days 00:00:06.866569484,-3.545365492333333,9.823334693333333,-0.30947173030400005,-0.7454332113333334,1.0213149783333335,0.38367397583333335
0 days 00:00:06.886569484,-3.168894768,10.490931826666667,-0.8111668825333334,-1.052901864,1.012355685,0.3449858725
0 days 00:00:06.906569484,-3.025857091,10.062749595444444,-0.6293123662555555,-0.8888846041499999,0.4708240181499999,0.08933897316
0 days 00:00:06.926569484,-3.089133978,9.293723106,-0.6963114142,-0.14408773742999997,-0.178219795225,-0.184633884545
0 days 00:00:06.946569484,-3.0125637055,8.583054781,-0.20338994265,1.07820176931,-0.43905906876666667,-0.37654723723333333
0 days 00:00:06.966569484,-2.778067112,7.829315543,-0.14476576445,1.8461097180000001,-0.18982623241000002,-0.32284203170000003
0 days 00:00:06.986569484,-2.698505819,7.8687973025,-0.259023044275,1.8517602385,0.04627300892,-0.1721111461475
0 days 00:00:07.006569484,-2.8319056433333336,7.726424455499999,0.05383850884999999,1.497153223,0.6323977708999999,0.212428227055
0 days 00:00:07.026569484,-3.041277528,7.8592261072500005,0.014356933550000006,1.300149322,0.9225585461,0.374307394
0 days 00:00:07.046569484,-3.342773199,8.365307808,-0.3086741269,0.7441605727499999,1.7751221260166667,0.7916298310333333
0 days 00:00:07.066569484,-3.33738929025,10.7880406395,-2.237887449475,0.29573490472499997,2.0328052935,1.07038778075
0 days 00:00:07.086569484,-3.3176485302499996,11.6404840975,-2.8378876447500003,0.1285106838,1.702021956,1.11528635
0 days 00:00:07.106569484,-3.077169855333333,10.843873498333332,-1.8628123801666667,0.1694386229,1.5447242855,1.1110103130000002
0 days 00:00:07.126569484,-2.6004000305,9.79681444125,-1.3818550705,0.4192823134,1.54732051525,1.08840835075
0 days 00:00:07.146569484,-2.416750908,9.144171714499999,-2.248056829,0.6105847805333333,1.489644666166667,1.0049234925833332
0 days 00:00:07.166569484,-2.696112931,8.669196367000001,-3.107080102,0.6004037037250001,1.234557702775,0.933095961775
0 days 00:00:07.186569484,-3.035893738,8.85464024525,-3.1417760255,0.49930559845,0.33902993054999997,0.7101302891750001
0 days 00:00:07.206569484,-3.586442391166667,8.904889424833334,-2.4953152338333333,0.6422479450499999,-0.2759581655,0.47479465600000004
0 days 00:00:07.226569484,-3.25722974525,9.016155481,-2.6452653405,0.87819448115,0.05696314572499998,0.38469210262500003
0 days 00:00:07.246569484,-2.4670001265,8.8737826345,-2.8893333670000003,0.8546252648166667,0.13820816076833334,0.3762417981833333
0 days 00:00:07.266569484,-2.13798707725,8.8157570365,-2.17687040525,0.7479275465,0.02703076601,0.3810268939
0 days 00:00:07.286569484,-2.1726830005,9.030512571500001,-2.2582263947500003,0.741360753775,0.10506874323249998,0.392175182725
0 days 00:00:07.306569484,-2.6891338426666667,9.325627168,-3.004986445,0.70577788355,0.3853029609,0.41157014664999997
0 days 00:00:07.326569484,-2.8582266572500004,8.970093965499998,-3.37926387775,0.643622413275,0.39522951845,0.32100944965
0 days 00:00:07.346569484,-2.6344976425,8.475377559999998,-3.2841491700000005,0.6193405489,0.36046113325,0.27076582610000005
0 days 00:00:07.366569484,-2.0967108309999998,8.222934723249999,-3.17108815925,0.5483275205,0.26954408362500004,0.110261095276275
0 days 00:00:07.386569484,-1.5990037622500002,7.83828854575,-3.047259569,0.436081104,0.354607000975,-0.04016435829617499
0 days 00:00:07.406569484,-1.4301103555,7.6490561963333334,-3.0033911861666667,0.3398698866,0.4063777924,-0.1601992846
0 days 00:00:07.426569484,-1.1916256550000002,7.2011996510000005,-3.00119787475,0.17585269920000002,0.3788888827,-0.296269424275
0 days 00:00:07.446569484,-1.2957134845,6.914061069500001,-3.3020952939999995,-0.10565415397333333,0.24388776225333333,-0.42745263876666667
0 days 00:00:07.466569484,-1.313659668,6.738188744,-3.43609333,-0.4017199576,0.05451968312,-0.4802924395
0 days 00:00:07.486569484,-1.25802654,6.61256551775,-3.6424742935000003,-0.519005991525,-0.058032155035000005,-0.5068650544
0 days 00:00:07.506569484,-0.9407780768333333,6.690332015166667,-3.674577951333333,-1.00036743265,-0.6259837001499999,-0.5960513055500001
0 days 00:00:07.526569484,-0.361316218975,7.47637426875,-3.26261365425,-1.129870772,-0.8562797308,-0.605519712
0 days 00:00:07.546569484,-0.8051848114499999,8.812766074999999,-3.3906296489999996,-1.1345540680000001,-0.8591304322166667,-0.5946259598166667
0 days 00:00:07.566569484,-1.9256239535,12.437294247250001,-3.9816569685000003,-1.1040617379,-0.737466521575,-0.50014555455
0 days 00:00:07.586569484,-1.83948242675,15.0741846575,-4.480560303000001,-0.9423353076,-0.3297142684,-0.3801106215
0 days 00:00:07.606569484,-1.0149556100666668,15.787844023333333,-4.172683834833333,-0.7181479186,0.2338085026,0.06673696635
0 days 00:00:07.626569484,-1.05523477495,13.39202976375,-1.3543376176250002,-0.50220722705,0.9741766006500001,0.574060186725
0 days 00:00:07.646569484,-2.04586339,9.090332985,-0.4211367965000001,-0.47441286839999997,1.5033891200000002,0.7665843963666666
0 days 00:00:07.666569484,-2.01714944875,6.21894597975,-4.100101575125,-0.6178133637000001,0.79137533195,0.75869407505
0 days 00:00:07.686569484,-1.4889338615,5.8432730435,-3.18006122125,-0.658741295325,-0.297491155525,0.286801008485
0 days 00:00:07.706569484,-2.1930219728333333,7.815756559666666,-0.003190418166666653,-0.5354993343,-0.4922043085,-0.05268708616
0 days 00:00:07.726569484,-2.74217468475,10.107282876500001,1.0396814642749999,0.17142391950000002,-0.3735438064,-0.58184872009
0 days 00:00:07.746569484,-3.4241291285,10.40399265,0.08614161609999997,0.3351865839133334,-0.3405062010166667,-0.7323759893666667
0 days 00:00:07.766569484,-3.32004147775,9.579066991000001,-0.2123630046975,-0.144087725315,-0.43142326175,-0.600174665475
0 days 00:00:07.786569484,-2.6428726317500004,8.860024214000001,0.26799613234249997,-0.584979370225,-0.5571086854,-0.6134609579999999
0 days 00:00:07.806569484,-2.1543380616666665,8.687143007666668,-0.21774685386666662,-0.8287144303000001,-0.409126699,-0.6794343591
0 days 00:00:07.826569484,-0.90329054755,9.284152269,-2.1744775475,-1.318017080575,-0.179594248525,-0.769689619575
0 days 00:00:07.846569484,-0.608973369,9.3690972325,-0.8650053963500001,-1.7653737266666667,0.7484620710833334,-0.6283253505666666
0 days 00:00:07.866569484,-0.39003010834999996,9.58684372925,-0.169292204075,-1.266093612,1.458287001,-0.1937968582
0 days 00:00:07.886569484,-0.044267223207500005,10.3136637235,-0.7710871137499999,-0.8574250714999999,1.06366833885,-0.12339469046000001
0 days 00:00:07.906569484,-1.7954145787016664,10.163912773666667,0.3633102377000001,0.5017490536,-0.4415025152,0.09483675658
0 days 00:00:07.926569484,-2.8127630355,9.345168829,1.0331011859500001,0.5941423475500001,-0.7513636798,0.08170316182000001
0 days 00:00:07.946569484,-2.9682965275,8.946763992000001,0.8207381666,0.45613782603333336,-0.6466512878833334,-0.020922119416666666
0 days 00:00:07.966569484,-3.1292137505,8.629116535249999,1.0157532096,0.20853396130000001,-0.450207345225,-0.08903354220250001
0 days 00:00:07.986569484,-3.0586255189999996,9.02632546425,1.06600248825,0.12347104025,-0.36789331587499996,-0.1084285005875
0 days 00:00:08.006569484,-3.2155547935000004,9.42253685,1.0847462615,0.13278672845,-0.4069886506,-0.18035782874999998
0 days 00:00:08.026569484,-3.316452265,9.879964828,1.232303619,0.161802805925,-0.47815439849999997,-0.18264857304999998
0 days 00:00:08.046569484,-3.23629272,9.565308570500001,1.07437735775,0.15192715944333332,-0.44862926998333336,-0.17923791206666664
0 days 00:00:08.066569484,-3.09870529175,9.1088778975,0.89850492775,0.0402407199125,-0.18753549083749999,-0.164780780675
0 days 00:00:08.086569484,-3.16032040125,9.15314459825,0.9768698068749999,-0.0820849556475,-0.003207039087500002,-0.151647184025
0 days 00:00:08.106569484,-3.136591673,9.3742810885,0.9651051163999999,-0.31192282585,0.40057456495000004,-0.1394298822
0 days 00:00:08.126569484,-3.046661377,9.284151554000001,0.98823575675,-0.3919461071,0.5578722358,-0.1418733448
0 days 00:00:08.146569484,-3.0927232505,9.160921574,0.98584291335,-0.47594002885000003,0.7533489962166667,-0.16732604304999998
0 days 00:00:08.166569484,-2.92163652225,9.10409164475,0.872183859325,-0.48479756715,0.8355103134749999,-0.18188498542499998
0 days 00:00:08.186569484,-2.6548367742499996,9.163912773,0.6687939316,-0.465860746775,0.929125338775,-0.2382372618
0 days 00:00:08.206569484,-2.4961128631666667,9.501499811833334,0.08334998538666667,-0.51381364465,0.76892605425,-0.3449858874
0 days 00:00:08.226569484,-2.556730926,9.74955582625,0.341575432575,-0.65751959385,0.60368712245,-0.38117963077499994
0 days 00:00:08.246569484,-2.4945175645,9.662218094,0.82791665195,-0.7082722584166666,0.6152935623833334,-0.34254241983333333
0 days 00:00:08.266569484,-2.2905294297500003,9.569495916000001,0.368494689475,-0.73296135665,0.770147755725,-0.30039276179999996
0 days 00:00:08.286569484,-2.2881366014999998,9.668200016,0.297308221425,-0.8157335370500001,0.8976657836999999,-0.26603160802500003
0 days 00:00:08.306569484,-1.8436698315,9.940184118500001,0.8893324133833334,-0.88735744355,1.1210896369999999,-0.2206749022
0 days 00:00:08.326569484,-1.7389838395,9.8231351375,0.7692924961250001,-0.7189114838749999,1.073289454,-0.233961209675
0 days 00:00:08.346569484,-1.7252250910000002,9.678967476,0.2679961324,-0.5800924748333333,0.7496838048333334,-0.18504112216666668
0 days 00:00:08.366569484,-1.9160526392500001,9.50249671975,0.37328033152499995,-0.4377609789,0.2328922004,-0.1198822111
0 days 00:00:08.386569484,-2.210968137,9.32901716225,0.5503492131750001,-0.387059200525,0.18890993580249998,-0.05177078769999999
0 days 00:00:08.406569484,-2.881756146666667,9.3268238705,0.5854439238833334,-0.22151484339999997,0.132710373055,0.17394375055
0 days 00:00:08.426569484,-3.367897928,9.486345053,0.473778888575,-0.150349095475,0.364228133125,0.198989201325
0 days 00:00:08.446569484,-3.56530571,9.337990284,0.2620140761,-0.08600466948333334,0.3783798342,0.16376266409833332
0 days 00:00:08.466569484,-3.50608331,9.18784093825,0.279960259775,0.1479056403,0.181426834325,-0.03222311707
0 days 00:00:08.486569484,-3.4127632974999997,8.998807906749999,0.5174478963,0.16638429465,0.20662501452499998,-0.0823140274625
0 days 00:00:08.506569484,-3.306083321333333,8.932008266166667,0.5790630777666667,0.1462257504,0.355065167,-0.1088866442
0 days 00:00:08.526569484,-2.89292263975,8.845667362,0.5581258833,0.0495564034125,0.6331613362249999,-0.060781043945
0 days 00:00:08.546569484,-3.055634499,8.958728313,0.41036906835000003,-0.077350754915,0.8320487241,0.0009672029409999982
0 days 00:00:08.566569484,-3.153740168,9.109476089,0.2177468538,-0.21922409907499998,0.7837394923250001,0.0394007791775
0 days 00:00:08.586569484,-3.21655178075,9.33200860025,0.0975075196425,-0.350254587825,0.646753072725,0.013439025730500001
0 days 00:00:08.606569484,-3.1314072208333332,9.396614710666666,0.18863418574833335,-0.4579195231,0.5203040838,-0.028557929209000004
0 days 00:00:08.626569484,-2.77687060825,9.3744807245,0.049651067699999996,-0.5092321634,0.4515817761,-0.05451968312
0 days 00:00:08.646569484,-2.510071039,9.4731850625,-0.18664016944999998,-0.6166425446833333,0.39517859615000006,-0.13942988468666664
0 days 00:00:08.666569484,-2.18584358725,9.374480963,0.264406898975,-0.5645154192999999,0.451887220125,-0.11728604232749999
0 days 00:00:08.686569484,-2.04406881325,9.163912773499998,-0.287736915025,-0.3730092943,0.5371028781,-0.04535670951
0 days 00:00:08.706569484,-2.3764716386666667,9.046863396666666,-0.19062820590833338,-0.11339177195000001,0.24877469242000003,-0.00015271641499999913
0 days 00:00:08.726569484,-2.730210543,8.978468656499999,0.0197407857125,0.19249876215,-0.10965023186499999,0.040927939115000006
0 days 00:00:08.746569484,-3.046063185,9.016156197,0.1148554832,0.22879431145000004,-0.20469060541666664,0.02682714509085
0 days 00:00:08.766569484,-3.0550362465,9.296115875249999,0.23330021277500002,0.1724929381,-0.22693626584999999,-0.0025961753671749997
0 days 00:00:08.786569484,-3.058027267,9.4055876735,0.324825674325,0.115224367005,-0.200669079975,-0.007330377513225
0 days 00:00:08.806569484,-3.0261230468333333,9.3184493385,0.41276190679999997,0.09185878931999998,-0.1782197952,0.00045814859910000004
0 days 00:00:08.826569484,-3.1208389995,9.2099747655,0.348155707125,0.02725984016325,-0.037110034137,0.039858926392275
0 days 00:00:08.846569484,-3.1178479194999995,9.034101963,0.27876384555,-0.0002799797808333334,-0.0055486884283333345,0.04881827657333334
0 days 00:00:08.866569484,-3.15433841975,8.9569330215,0.27936203775,-0.03031416424,-0.08292489499,0.02794706449
0 days 00:00:08.886569484,-3.1788647772500003,9.074779987,0.284745901825,-0.0300087318775,-0.1296560484925,0.01970038970525
0 days 00:00:08.906569484,-3.1365915933333333,9.050053914333333,0.34416765469999994,-0.02909243479,-0.269849509,-0.005039634649
0 days 00:00:08.926569484,-3.141776085,8.839086533,0.3708875179,-0.014889828625,-0.254730612025,-0.014202606514750001
0 days 00:00:08.946569484,-3.1633114815000005,9.0963149075,0.3290131241,0.002672533504666667,-0.23126322278333333,-0.0019853105763333336
0 days 00:00:08.966569484,-3.19023078675,9.4091765885,0.31585258245,0.01061377581,-0.2368628234,0.01328630932
0 days 00:00:08.986569484,-3.19023084625,9.3056869505,0.40438702699999995,0.018402301937499997,-0.23579381035000002,0.01328630932
0 days 00:00:09.006569484,-3.1856445866666667,9.124630610166667,0.45942194264999997,0.055512338875000004,-0.22036947305,0.017562362365
0 days 00:00:09.026569484,-3.21475720425,9.081360340249999,0.49292146412500004,0.06925679743,-0.2081521749,0.02183841541
0 days 00:00:09.046569484,-3.315255761,9.108279705,0.54436713455,0.07882701109166666,-0.19624031083333335,0.025605414679999997
0 days 00:00:09.066569484,-3.3188450334999997,9.1011006835,0.53479583565,0.123623756725,-0.12599085833249998,0.0450512766825
0 days 00:00:09.086569484,-3.383451283,9.122636079749999,0.577268466375,0.1144607887,-0.09392046183,0.04688387364
0 days 00:00:09.106569484,-3.3754751281666664,9.167302290833334,0.5690929790666667,0.10896300525000001,-0.055130546909999995,0.049938196314999996
0 days 00:00:09.126569484,-3.12921386925,9.19143033,0.498305320775,0.08880446850500001,-0.0103847009595,0.022754713197500002
0 days 00:00:09.146569484,-3.001796007,9.274580478499999,0.5264209807000001,0.07373646894833334,-0.07610357320266667,-0.018885903216666666
0 days 00:00:09.166569484,-2.7541388272500003,9.3146600725,0.54017971455,0.07124210335,-0.13301580959,-0.04306596797
0 days 00:00:09.186569484,-2.59621256575,9.21595668775,0.5599205047,0.063453576525,-0.271071247775,-0.0954476240975
0 days 00:00:09.206569484,-2.5096722043333335,9.211968263333333,0.6767699817833334,0.028939719315,-0.2667951882,-0.06032289844
0 days 00:00:09.226569484,-2.4879373905,9.250053883,0.66341005265,0.01366809942,-0.2386954129,-0.02886336111
0 days 00:00:09.246569484,-2.5232315065,9.324829578500001,0.56350973245,-0.06370810636666667,-0.06724603226499999,0.070503976505
0 days 00:00:09.266569484,-2.6895325782499997,9.31705331775,0.549751013475,-0.12347104214999999,0.0337502788725,0.1542433612
0 days 00:00:09.286569484,-2.720639229,9.322437286,0.5431707501,-0.13828451930000002,0.02733619848525,0.17592906205000003
0 days 00:00:09.306569484,-2.8267210725,9.225926557833333,0.5371887037833334,-0.133244887,-0.0166460655145,0.17058399319999998
0 days 00:00:09.326569484,-2.86181587025,9.24646472925,0.46121656894999996,-0.12316561305,-0.0849102046175,0.140957053725
0 days 00:00:09.346569484,-2.7445676330000004,9.3044910435,0.41754755379999997,-0.12224931646666666,-0.17791436861666665,0.08312851810833333
0 days 00:00:09.366569484,-2.6578277352499997,9.244072437,0.522831730575,-0.11354449394999999,-0.22754713522500003,0.0586430204575
0 days 00:00:09.386569484,-2.6392833595,9.291928291000001,0.585643351125,-0.073380134065,-0.3442223147,0.016035200795
0 days 00:00:09.406569484,-2.6644080083333335,9.374281088666669,0.5188437104166667,-0.03397935256,-0.3822486401,0.01878409274
0 days 00:00:09.426569484,-2.7218357922500003,9.30987453475,0.5796613097250001,-0.03397935256,-0.3822486401,0.01878409274
0 days 00:00:09.446569484,-2.7804598805,9.276973248,0.7393822073999999,0.05999201349666666,-0.3906989246666666,0.06246092201833333
0 days 00:00:09.466569484,-2.8624140019999995,9.3409812455,0.7339983433499999,0.1413388401,-0.3816377819,0.07559451461
0 days 00:00:09.486569484,-2.8947172165,9.309874534750001,0.78245298565,0.17508911712500003,-0.379805184925,0.08521563560749999
0 days 00:00:09.506569484,-2.9914270641666665,9.118249416166668,0.9256235758166667,0.29313872755,-0.3611737936500001,0.12324196845
0 days 00:00:09.526569484,-3.072384357,9.066405296,0.9834501147,0.34384051709999996,-0.282524958275,0.14889828857499998
0 days 00:00:09.546569484,-3.146561861,9.253045082,0.9870393574,0.35819584131666665,-0.22953244301666667,0.15246166783333334
0 days 00:00:09.566569484,-3.2063823940000002,9.36072206525,0.836291521775,0.369191393275,-0.07101303339000001,0.13942988962499997
0 days 00:00:09.586569484,-3.1908289195000004,9.14058256175,0.7094719111750001,0.34521495550000003,-0.07605266757000001,0.125074563525
0 days 00:00:09.606569484,-3.1692935628333334,9.155737240999999,0.6424728731499999,0.2851974964,-0.1608101539,0.107054051
0 days 00:00:09.626569484,-3.20817691075,9.524630785,0.65862442555,0.20364705100000002,-0.235946517425,0.0729983430325
0 days 00:00:09.646569484,-3.19681108,9.651450157500001,0.7202396095,0.15783219041666666,-0.24246240904999997,0.04250600871833333
0 days 00:00:09.666569484,-3.14775824575,8.8504526615,0.708275497,0.1274416670425,-0.23197589815,0.025656321317499998
0 days 00:00:09.686569484,-3.08494669225,8.54955554,0.7046862542500001,0.05276344717,-0.2026543915,-0.01237001177
0 days 00:00:09.706569484,-3.012563705833333,8.870193799666666,0.6995017925833333,0.03168861149,-0.1840230152,-0.014508038295
0 days 00:00:09.726569484,-2.9431718589999996,9.12802028675,0.6610172391,-0.0164169909,-0.172722015525,-0.053297953682499996
0 days 00:00:09.746569484,-2.6691937445,9.623932361500001,0.50608199835,-0.054137892088333334,-0.2585485130666667,-0.10033453877833333
0 days 00:00:09.766569484,-2.3054846527499997,9.410971641749999,0.29012974350000004,-0.096287563445,-0.358577616475,-0.13026691412500002
0 days 00:00:09.786569484,-2.215753794,9.360722542,0.2321037948,-0.18471024185,-0.43172867595,-0.16752966870000002
0 days 00:00:09.806569484,-1.8807586235,9.441679478,0.6839484721666667,-0.27771440145,-0.31749697024999995,-0.1876882017
0 days 00:00:09.826569484,-1.64985126275,9.457631349500002,0.788435056825,-0.274049200075,-0.18035782502499997,-0.17989968135
0 days 00:00:09.846569484,-1.5038890245,9.4325065615,0.53359946605,-0.201254487,-0.14136429131666667,-0.15266529095
0 days 00:00:09.866569484,-1.50329080225,9.40738248825,0.377467781275,-0.15080724285,-0.239153552775,-0.08109229781749999
0 days 00:00:09.886569484,-1.5661024452499999,9.36012387275,0.4606183618,-0.12133301237500001,-0.36178465930000003,-0.0015271620375
0 days 00:00:09.906569484,-2.003989000833333,9.136993408333334,0.8071788251333333,-0.06024653743,-0.370336771,0.08261945748
0 days 00:00:09.926569484,-2.4077777859999996,9.4570336345,0.86440716685,0.085597428035,-0.257479496275,0.175012759875
0 days 00:00:09.946569484,-2.6644079685,9.747163296,0.5563312769,0.18063780291666665,-0.14828742541666665,0.16274455938333332
0 days 00:00:09.966569484,-2.72004109625,9.463015556750001,0.36670006065,0.2030361742,-0.1391244531,0.1434005052
0 days 00:00:09.986569484,-2.71824646,9.36550808,0.3254238665,0.217849645775,-0.2411388755,0.1282816026475
0 days 00:00:10.006569484,-2.7170501156666664,9.19761165,0.67836520575,0.2622900605,-0.5471821427,0.08292489499
0 days 00:00:10.026569484,-2.85164648325,9.568300009,0.9367900789,0.31680973617499997,-0.590248093025,0.049938197244999996
0 days 00:00:10.046569484,-2.986242771,9.604790211000001,0.8590233326,0.33498297635,-0.5016726851166667,0.03588830679833333
0 days 00:00:10.066569484,-2.93240421975,9.43848896,0.806381240475,0.2983310819,-0.4024071693,0.03283398226
0 days 00:00:10.086569484,-2.99162644125,9.17467999475,0.87218387425,0.27633995192500005,-0.367129728175,0.02764163143
0 days 00:00:10.106569484,-3.066402157166667,9.0787677765,0.91326065855,0.18868085739999998,-0.20601414145,0.01114828186
0 days 00:00:10.126569484,-3.00538522,9.239286422749998,0.8201399892500001,0.130343269525,-0.11270455269999999,-0.0025961754140000006
0 days 00:00:10.146569484,-2.8115665915,9.4109716415,0.64486572145,0.09491311383500001,-0.10949751484999999,-0.018478660145000003
0 days 00:00:10.166569484,-2.51186561575,9.4606227875,0.6382854580499999,-0.0446694865925,-0.167682383175,-0.09040798990750001
0 days 00:00:10.186569484,-2.25643169875,9.39063262925,0.6771688014249999,-0.12912154385,-0.20127994192499998,-0.140804331725
0 days 00:00:10.206569484,-2.0973090333333335,9.440482934166667,0.5794618725666667,-0.1708130687,-0.20448698099999998,-0.1669187993
0 days 00:00:10.226569484,-1.91365990075,9.61495924025,0.476171702175,-0.24365868042500002,-0.18707733225,-0.169667694725
0 days 00:00:10.246569484,-1.8616160155,9.554540634,0.5012963563,-0.29288420083333333,-0.19094614933333334,-0.15327615786666668
0 days 00:00:10.266569484,-1.93878451,9.38464999225,0.5228317454,-0.2978729308,-0.192880556,-0.1498145908
0 days 00:00:10.286569484,-2.21754843,9.2817587855,0.6346962154,-0.28443390877499997,-0.1569922501325,-0.10369429922750001
0 days 00:00:10.306569484,-2.4945176841666665,9.312068303666665,0.4693920413833333,-0.21357360479999998,-0.010537418539999996,0.05787943675999999
0 days 00:00:10.326569484,-2.7637102605,9.3493561745,0.40857446195,-0.1830303669,0.02825249545,0.08109229803
0 days 00:00:10.346569484,-2.8713872429999996,9.3044910435,0.50608199835,-0.08936442683166668,-0.011453714765999998,0.059915654985000004
0 days 00:00:10.366569484,-2.7906293865,9.035298109,0.5964110494,0.05047270282250001,-0.11530072799749999,0.013897173575
0 days 00:00:10.386569484,-2.7008985282499998,9.235099077,0.613160803925,0.1425605714,-0.1831067204,-0.02641990222
0 days 00:00:10.406569484,-2.6356941063333337,9.642277558833333,0.5523432394166666,0.19998185335,-0.20326525715,-0.07070759776
0 days 00:00:10.426569484,-2.27976173175,9.90090155625,0.606580540575,0.2574031353,-0.2234237939,-0.1149952933
0 days 00:00:10.446569484,-2.133201361,9.4624171255,0.6233302951,0.3312159628,-0.39497498923333335,-0.17200934013333335
0 days 00:00:10.466569484,-2.1140587925000003,9.128020286749999,0.835693329575,0.34384050222499996,-0.43310312929999994,-0.150578168185
0 days 00:00:10.486569484,-2.4209382535,9.02991414075,1.097109213625,0.33681555835,-0.3781252913,-0.017256931402500002
0 days 00:00:10.506569484,-2.5990042685000003,9.239087104833333,1.0675977468333333,0.3285688907,-0.0465784408,0.11224640535500001
0 days 00:00:10.526569484,-2.72721970075,9.3481600285,0.969691410625,0.32215482,0.0856737867,0.1372918636
0 days 00:00:10.546569484,-3.062813044,9.540184021,0.7345965505,0.26055927576666665,0.114384430305,0.11560616147000001
0 days 00:00:10.566569484,-3.0412775874999998,9.20100116725,0.78484581415,0.2102138363,-0.002290742702500002,0.067500559615
0 days 00:00:10.586569484,-2.9856444595000005,9.078967333,0.833898708225,0.1694386154,-0.0426078178,0.0358883068
0 days 00:00:10.606569484,-2.8079773983333336,9.348359267333334,0.8530412713500001,0.14072797075,-0.05665770732,-0.00015271640999999872
0 days 00:00:10.626569484,-2.67936313175,9.64965558075,0.6257231086,0.07628174127000001,-0.157755823835,-0.062766359185
0 days 00:00:10.646569484,-2.5004997255,9.4731845855,0.5982056558000001,-0.03184132712333333,-0.2519308030833333,-0.09656754259
0 days 00:00:10.666569484,-2.449053943,9.12263608,0.72323065995,-0.07857248466,-0.22556180879999999,-0.098960096005
0 days 00:00:10.686569484,-2.36590343675,9.20698308975,0.658026218375,-0.1689804755,-0.07116574605,-0.08735366538
0 days 00:00:10.706569484,-2.2504497366666665,9.608379046166666,0.4753740876833333,-0.19280420239999999,0.0374154672,-0.07589995116
0 days 00:00:10.726569484,-2.1164516207500004,9.72084212275,0.33798620849999994,-0.18959715215,-0.030848671680000002,-0.0319176856425
0 days 00:00:10.746569484,-2.0051853655,9.2650089265,0.31704899670000003,-0.17916155358333333,-0.14635302435666667,0.006770417860066667
0 days 00:00:10.766569484,-2.069791555,9.013762474,0.4378865361,-0.1543197185,-0.2264781147,0.05849030241
0 days 00:00:10.786569484,-2.2959133982499997,9.2650089265,0.55453665555,-0.10407608935250001,-0.19685117340000002,0.0687222881225
0 days 00:00:10.806569484,-2.6089743375,9.608777999833334,0.3613162189833334,0.06498074159,-0.12171480435,0.093309596185
0 days 00:00:10.826569484,-2.6422744395,9.726225375750001,0.386440843375,0.08330668509,-0.1354592592,0.08720094711
0 days 00:00:10.846569484,-2.610569477,9.4875416755,0.50368915495,0.26249368243166665,-0.3991492266166667,-0.005955931423333334
0 days 00:00:10.866569484,-2.6165515187499997,9.238089800000001,0.5258227586499999,0.330248765675,-0.46670069542500003,-0.025656320625
0 days 00:00:10.886569484,-2.632104874,9.181260109,0.5312066078,0.426001817,-0.5111411214,-0.02886336111
0 days 00:00:10.906569484,-2.5806592706666667,9.370692570833333,0.5232305626333333,0.43485936524999996,-0.4094321281,-0.0190895246365
0 days 00:00:10.926569484,-2.68953257825,9.449855089,0.53539407255,0.437302835275,-0.27840162815,-0.0015271620064999999
0 days 00:00:10.946569484,-2.696711063,9.458827972,0.5766702294,0.42569639285,-0.25834488865,0.0200058209965
0 days 00:00:10.966569484,-2.94257360675,9.291928768,0.589232578875,0.3751473278,-0.2391535565,0.0407752227
0 days 00:00:10.986569484,-3.01555472575,9.1968135835,0.6669993251499999,0.304897882025,-0.174707323325,0.05360338464
0 days 00:00:11.006569484,-3.163710316,9.228319168333334,0.5359922796666667,0.2317468226,-0.08506291916499999,0.052687088025
0 days 00:00:11.026569484,-3.22253388175,9.31525850325,0.3750749603,0.09262237325,-0.0329866982025,0.051312642172500006
0 days 00:00:11.046569484,-3.2662028074999996,9.176475048,0.4450650066,-0.03815359622166667,-0.026521712386666663,0.025605415923333336
0 days 00:00:11.066569484,-3.11425858725,9.0089776515,0.448654241875,-0.1004108972825,0.004276053279999998,0.010690134254000002
0 days 00:00:11.086569484,-2.9647072552500005,9.22193837175,0.3577269837,-0.1366046369,0.05879573524,-0.009926552884
0 days 00:00:11.106569484,-2.764906605,9.456833839333333,0.2865405132333333,-0.13568834215,0.09483675657,-0.037720901427
0 days 00:00:11.126569484,-2.402393977,9.569695472666666,0.30388847986666667,-0.1121700481,0.121714808,-0.08261945844
0 days 00:00:11.146569484,-2.268395901,9.54257679,0.3445664644,-0.03632100175833333,0.07946332915833333,-0.09890919057333335
0 days 00:00:11.166569484,-2.1194426415,9.44207835225,0.32841491695,0.037339111782500004,0.021991133692499998,-0.09453132751000001
0 days 00:00:11.186569484,-2.1074785592500005,9.36909747125,0.330209530875,0.225027319025,-0.135001119225,-0.0658206827925
0 days 00:00:11.206569484,-2.1962123315,9.555737495666667,0.34496526915000003,0.29985825715,-0.1849393174,-0.029779658190000002
0 days 00:00:11.226569484,-2.3048864602499997,9.650253772500001,0.387637272475,0.36690065265,-0.21517711505,0.0039706209202500006
0 days 00:00:11.246569484,-2.2552353145,9.387043476,0.5024927407499999,0.38802638651666665,-0.22393283993333335,0.009926552574166667
0 days 00:00:11.266569484,-2.1589242815,9.317651748749999,0.26919253917499997,0.440662570325,-0.268933206775,0.0087048232095
0 days 00:00:11.286569484,-2.0733808280000003,9.63290572175,0.3002992347,0.41164650025000005,-0.33185227959999997,-0.0198531055365
0 days 00:00:11.306569484,-2.1858434675000002,9.779465834333335,0.5036891599666666,0.36858055000000006,-0.35842490200000005,-0.05329795182
0 days 00:00:11.326569484,-2.34975177025,9.58504891375,0.48095736655000004,0.391029812425,-0.341931551725,-0.05329795182
0 days 00:00:11.346569484,-2.414358139,9.267401695,0.2799602449,0.39250606301666674,-0.37349290649999994,-0.03395390145983333
0 days 00:00:11.366569484,-2.624328256,9.102297067750001,0.17766708505,0.372245729,-0.4292852283,0.004123337101
0 days 00:00:11.386569484,-3.125026345,8.914460658749999,0.15792629125000002,0.33589927482500004,-0.389273583925,0.024740023188249995
0 days 00:00:11.406569484,-3.7268212633333335,9.1094757715,0.12602199114999998,0.149585515275,-0.14095704769999998,0.12446369977499999
0 days 00:00:11.426569484,-4.1407796147500004,9.307481527,0.17946169897500003,-0.0578030813375,0.21410810692499999,0.181579552625
0 days 00:00:11.446569484,-4.301098585,9.0759763715,0.20338992775,-0.17122031126666667,0.53160506985,0.15398883073333333
0 days 00:00:11.466569484,-4.362713694249999,8.52502870575,-0.068793650725,-0.18883356822500003,0.671340376175,0.11927134913749998
0 days 00:00:11.486569484,-3.942574103333333,8.842276891333333,-0.13320046661666665,-0.13680825385333334,0.7452041109666666,0.04566213985333333
0 days 00:00:11.506569484,-3.5174492595,9.0855474475,-0.55633126945,-0.06391172856,0.7875574231,-0.03375028074
0 days 00:00:11.526569484,-3.02991163725,9.253643513,-0.97208419445,0.00022907415749999667,0.761901110425,-0.116675175735
0 days 00:00:11.546569484,-2.4000011685,9.2961158755,-0.7956135273,0.03688096100833333,0.7314596772333334,-0.14838923763333334
0 days 00:00:11.566569484,-2.04466691625,9.329615355,-0.5509474277499999,0.1253036354,0.6192641556,-0.16661336275
0 days 00:00:11.586569484,-1.920838386,9.27218770975,-1.174277752275,0.16500984505,0.543516956275,-0.15302162619999998
0 days 00:00:11.606569484,-1.8919250963333336,9.300901413,-1.2358929314999998,0.175547272,0.3410152495,-0.131488651
0 days 00:00:11.626569484,-2.0338991885,9.348159551750001,-1.496112317,0.18333579227500002,0.1233946820725,-0.08704823068
0 days 00:00:11.646569484,-2.1176480055,9.2841520305,-1.6701902149999999,0.16495894638333333,0.015424335528333333,-0.04871646500716667
0 days 00:00:11.666569484,-2.1978076697500004,9.579067707250001,-1.6289139987499999,0.1285106838,-0.0126754446,-0.009315688163
0 days 00:00:11.686569484,-2.50827628375,9.832108498,-2.01415842775,0.0946076871085,0.033597562224999995,0.02214384730275
0 days 00:00:11.706569484,-2.485743959666667,9.780263583,-2.300300121333333,-0.049250974318,0.21975860745,0.12354740125000001
0 days 00:00:11.726569484,-2.443071842,9.360722542,-2.651247501,-0.1124754771675,0.23090689257500002,0.1328630894
0 days 00:00:11.746569484,-2.443071842,9.360722542,-2.651247501,-0.07419461633333332,0.2348266070166667,0.14370593921666666
0 days 00:00:11.766569484,-2.742772937,9.6370930675,-3.0873394605,0.1595120691,0.29626942055,0.197462040925
0 days 00:00:11.786569484,-2.7637101415,9.513863086499999,-3.0927232504999997,0.197080254575,0.191811545765,0.2000582106
0 days 00:00:11.806569484,-2.6360929411666665,9.361918925833333,-2.8063821198333336,0.33253951375,-0.008704824369999998,0.14309507605
0 days 00:00:11.826569484,-2.0715862510000003,8.924630164749999,-1.4895320829999998,0.6059014871999999,-0.074067356065,0.0627663554525
0 days 00:00:11.846569484,-2.027917147,8.812766075,-1.432104349,0.6997710764666666,-0.07987056921,0.03334303572833333
0 days 00:00:11.866569484,-2.48853552325,9.08494925475,-2.1427726742499997,0.461890148,-0.07895427569499999,0.04917461517999999
0 days 00:00:11.886569484,-2.711666226,9.1639125345,-2.1960129137499997,0.1132390574,-0.07803797722,0.08170316368
0 days 00:00:11.906569484,-2.4582265216666666,8.841080665333333,-1.7451652881666668,-0.07276926560000001,0.05574140699000001,0.10552689058999999
0 days 00:00:11.926569484,-2.17507582925,8.487940311500001,-1.71385920025,-0.16439897939999998,0.26740605012499996,0.10919207895
0 days 00:00:11.946569484,-2.2073788645,8.4119677545,-1.89391911,0.015704315158333332,0.17883066085,0.05767581674166666
0 days 00:00:11.966569484,-2.3617159725,8.3036928175,-1.7922241385,0.0588720925175,0.101250834735,0.011759147977500002
0 days 00:00:11.986569484,-2.407179594,8.269595146,-1.751546144,0.07811433448999999,-0.0681114252675,-0.11117738857500001
0 days 00:00:12.006569484,-2.3892334305,9.1876413025,-1.9290138881666667,-0.034284785389999996,-0.09911281244499999,-0.13484840095
0 days 00:00:12.026569484,-2.4777679445,9.44925665875,-2.021935225,-0.08345939964,-0.1140789986,-0.1223256737
0 days 00:00:12.046569484,-2.6356941465,9.194420814499999,-1.859223247,-0.10575596366666666,-0.07376192264999999,-0.08994984006
0 days 00:00:12.066569484,-2.69850564025,9.215956211249999,-1.6767704785,-0.2172387838,0.1278234571,0.07192932814
0 days 00:00:12.086569484,-2.826521754,9.275777101500001,-1.670190215,-0.193567775175,0.16111559047500001,0.05421424944975
0 days 00:00:12.106569484,-2.740180731,9.114660104166667,-1.947358787,-0.1411861256,0.25213444235,-0.010231984605499999
0 days 00:00:12.126569484,-2.176870376,8.764311313250001,-1.716850281,-0.2134208791,0.17455460875,-0.05726857297
0 days 00:00:12.146569484,-1.1617153584,8.701499462,-1.0851450862,-0.22599450996666667,0.16844595966666667,-0.08221221839166667
0 days 00:00:12.166569484,0.18903300162500003,9.699306726500001,-1.1012965886,-0.25557054955,0.22907428067500002,-0.1282816044975
0 days 00:00:12.186569484,-0.899701282725,10.3926267615,-0.7148557752,-0.494418688125,0.27259840440000005,-0.0331394169475
0 days 00:00:12.206569484,-1.2594223221666667,9.458827654666665,0.6484549143999999,-0.7065414786,0.613460958,0.08048143238
0 days 00:00:12.226569484,-1.14197456825,9.21595644975,-1.085145063625,-0.613079145525,0.5080867782,0.372322073195
0 days 00:00:12.246569484,-1.3244273069999999,9.181260586,0.8470592347500001,-0.7310778597833334,-0.018987715256666662,0.31444263953333335
0 days 00:00:12.266569484,-1.476371527,8.999405861,1.339980721,-0.48342312502499996,-0.469907730825,0.22067490217500002
0 days 00:00:12.286569484,-1.36869451375,10.24128079775,0.29551360558,-0.11904227920600001,-1.10032016025,0.177150789625
0 days 00:00:12.306569484,-2.230110625,11.037293595500001,-1.0133603900266668,-0.078877914712,-1.500436604,-0.1519526169
0 days 00:00:12.326569484,-2.14157629,8.640482903,0.5288137794,-0.1518762559,-1.699883938,-0.4137081802
0 days 00:00:12.346569484,-2.3461625575,8.3976111415,0.55154562,-0.18476114174,-1.0960441328500001,-0.9099339793666665
0 days 00:00:12.366569484,-3.9846477504999998,8.20857810975,0.29072795812499996,0.102396208795,-0.748920217175,-0.964402779625
0 days 00:00:12.386569484,-5.19302320475,7.716853141750001,-1.225125163425,0.542218856525,-0.476779960075,-0.776409149175
0 days 00:00:12.406569484,-5.592425346333333,7.8193456333333335,-1.7515461444999998,0.7442623973,-0.35170540210000006,-0.6110175252
0 days 00:00:12.426569484,-5.36710107325,9.0999047755,-2.1661027375,0.8569669425499999,0.007483087474999997,-0.1899789525225
0 days 00:00:12.446569484,-3.3080772159999996,10.680364130000001,-0.9451649188999999,0.5005273384583333,0.19002984963333333,0.270867627745
0 days 00:00:12.466569484,-3.142374277,10.15035343125,-0.1800599061,0.03565923125,0.2671006322,0.2118173689
0 days 00:00:12.486569484,-3.09571421175,9.664610386,-0.5623133369,-0.05581776983749999,0.29214608670000003,0.167835103375
0 days 00:00:12.506569484,-2.423131624833333,9.754341443166668,-1.0580264528,-0.3302487731,0.3672824502,0.0358883068
0 days 00:00:12.526569484,-2.5536734263333334,9.414427333555556,-1.4447331692222223,-0.1286633946,0.050447250399999984,5.0906093333331674e-05
0 days 00:00:12.546569484,-2.510469794,9.250253359666667,-1.3324033816666665,0.0278707067375,-0.196393029775,-0.01114828186075
0 days 00:00:12.566569484,-2.9742785095000004,9.06341362,-0.73040910065,0.197843834725,-0.4644099623,0.01802051067275
0 days 00:00:12.586569484,-3.132204771,9.013762474,-0.5383850932,0.205174211425,-0.43585202840000004,0.061391910535
0 days 00:00:12.606569484,-3.3583265544999996,9.016155719999999,-1.2725828586999999,0.202425316,-0.3254382014,0.1104138121
0 days 00:00:12.626569484,-3.61017119875,9.00179839175,-1.271187007375,-0.07292198015000001,-0.45555240657499996,-0.022449277340000004
0 days 00:00:12.646569484,-4.674379110499999,8.5028953555,-0.8063812256,-0.008933896816666667,-0.39375325043333337,-0.10389791675166667
0 days 00:00:12.666569484,-4.2221356035,8.86899757425,-0.90329053995,0.2616792023,-0.1977674663,-0.03313941509
0 days 00:00:12.686569484,-3.648456395,9.4522476195,-1.332802176675,0.291153430925,-0.209068465975,-0.0448985621375
0 days 00:00:12.706569484,-2.8833512861666666,9.2259265585,-0.6791628258100001,0.32123851774999995,-0.29122977705,-0.10827578234000002
0 days 00:00:12.726569484,-2.523829639,8.765507698250001,0.0376869551825,0.2629009187,-0.3394880891,-0.1363755614
0 days 00:00:12.746569484,-2.5567309854999998,8.743373871,-0.273978190495,0.04431314766333334,-0.14238239497883334,0.03191768378333333
0 days 00:00:12.766569484,-2.8785656095,8.604590416,-0.5120640397,-0.322460245325,0.021685698770250002,0.1765399203
0 days 00:00:12.786569484,-2.983849764,8.556734085,-0.5120640397,-0.6398044973499999,0.138971732925,0.24037529155
0 days 00:00:12.806569484,-3.6119657756666665,8.574280897666666,-0.6656034887,-0.85620334745,0.2341139242,0.29458954935
0 days 00:00:12.826569484,-4.20000195525,8.709275960749999,-0.739382214875,-0.865060865925,0.23762639614999997,0.31169375779999997
0 days 00:00:12.846569484,-5.1146583555000005,8.4777703285,-0.714257553,-0.7463494812833332,0.34111706915,0.3052796771333333
0 days 00:00:12.866569484,-5.2091749905,8.020143032250001,-1.36211431,-0.1443931618575,0.8278744816749999,0.24923283607500002
0 days 00:00:12.886569484,-4.27059030525,7.766503930500001,-1.41056895225,0.0468075135775,0.60704685375,0.117133319375
0 days 00:00:12.906569484,-2.4303102791,8.372486353,-0.7621140183000001,0.2286925018,0.2139553875,-0.1320995092
0 days 00:00:12.926569484,-0.8045866340500001,9.4498546125,1.1240284294,0.388586357275,-0.402712617075,-0.728608980775
0 days 00:00:12.946569484,0.05024926365000002,10.877771379999999,1.65463686,0.6374628394833334,-0.7468331059333333,-0.98486674825
0 days 00:00:12.966569484,-0.38524443657499996,13.046865462500001,0.042472608424999975,0.9678388834,-1.263726473,-1.039844513
0 days 00:00:12.986569484,-1.0564312037499999,13.270594355,-0.017347961700000004,0.732045079115,-1.165682688475,-0.924238368925
0 days 00:00:13.006569484,-0.7840482368,11.708878517666667,1.5944174878500001,-0.03917170222,-0.5514581874000001,-0.5126682669
0 days 00:00:13.026569484,-0.12143574934500001,9.78245735175,1.257428333425,-0.1680641677,0.432034131175,-0.311846479775
0 days 00:00:13.046569484,-0.17826528659,8.8929252625,0.60059849915,-0.19239694871666665,0.6404408316166667,-0.19359324128333336
0 days 00:00:13.066569484,-1.63669062385,7.37886655325,0.3314059377,-0.214795328675,0.549320139025,0.2270889841
0 days 00:00:13.086569484,-2.66081869575,7.499106288,0.69870422035,-0.24549128112500002,0.484721206125,0.46883872895
0 days 00:00:13.106569484,-3.743172129,8.316653728333334,0.5615157273933333,-0.23403757064999997,0.6012436747500001,0.7313578725
0 days 00:00:13.126569484,-4.636093735499999,9.189037560750002,-0.10528418980500001,-0.2129627317,0.664162755,0.7744238377
0 days 00:00:13.146569484,-4.9543392655,11.454442025,-0.275174593555,-0.23077962794999998,0.5450441141666666,0.8156571885333334
0 days 00:00:13.166569484,-4.931607365750001,11.243275645,-0.5168496696275,-0.1460730452,0.480597876,0.6519454271
0 days 00:00:13.186569484,-4.7347977165,10.11864852975,-1.064806088525,0.1187368408,0.358730346,0.1360701323
0 days 00:00:13.206569484,-3.964907050166667,9.282157738833332,-1.9529420531666666,0.26717698945,0.0395534933,0.0035124719500000032
0 days 00:00:13.226569484,-3.637090385,8.94437074625,-2.05603295525,0.4156171381,-0.083077612325,-0.126296292975
0 days 00:00:13.246569484,-3.51744926,8.792426586,-2.1978076695,0.3138063201833334,0.5042179667833334,0.0802778105
0 days 00:00:13.266569484,-3.6382867692499996,9.0693962575,-2.2893331644999995,0.246102139325,0.74617132535,0.23319762572499997
0 days 00:00:13.286569484,-3.6514473560000003,9.318249702500001,-2.56989157175,0.08620829230249999,1.26189392775,0.60399255155
0 days 00:00:13.306569484,-3.227120161,9.804591020833334,-2.9324042003333335,0.11140646225499999,1.5633556845,0.7295252681000001
0 days 00:00:13.326569484,-2.4981069267500002,10.03489995375,-2.9754748937500004,0.1902080178,1.556025267,0.7487674952
0 days 00:00:13.346569484,-1.409372568,9.31166935,-1.5804594158,0.61323186755,1.2164863153333334,0.6861538588666667
0 days 00:00:13.366569484,-1.82452723375,8.9473619465,-1.74676057665,0.766253501175,1.20416721725,0.68187780675
0 days 00:00:13.386569484,-2.79601317675,8.8348991875,-3.5509489175,0.90919588505,1.2785399852500001,0.714559078225
0 days 00:00:13.406569484,-4.006382743666667,7.921838283833334,-4.243272105833333,0.6043743491,0.6226239131,0.7747292518500001
0 days 00:00:13.426569484,-4.14018154125,7.27717185025,-3.49411928675,0.8539126216999999,0.033597565260000004,0.525649130375
0 days 00:00:13.446569484,-3.610769391,7.0648088455,-2.6117659805,1.0334050655,-0.4209367378533333,-0.05105811851666667
0 days 00:00:13.466569484,-1.997408718,7.54337358475,-1.58225399225,0.7945060133749999,-0.648738384225,-0.39202246812499997
0 days 00:00:13.486569484,-1.584048629,7.668996811,-1.347159147,0.4101193547,-0.5795579553,-0.5908589363
0 days 00:00:13.506569484,-0.8390831451,8.298308690166666,-2.3672991196666664,-0.09292778375000003,-0.15745039284999998,-0.4127918631
0 days 00:00:13.526569484,-1.14317099755,8.6452679635,-3.3008987905,-0.7448732406,0.22067489845,-0.19211697205
0 days 00:00:13.546569484,-1.8879370690000001,8.71705246,-4.094119549,-0.9721658330833334,-0.18514293678333335,-0.13820815585
0 days 00:00:13.566569484,-2.68295240425,8.21276569375,-4.1048873665,-0.8168025911,-0.797178566525,-0.2215912007
0 days 00:00:13.586569484,-2.9623144862500004,8.06441044775,-3.9433718324999996,-0.477619901325,-1.1792744995,-0.324369207025
0 days 00:00:13.606569484,-2.7477580305,8.661220391166665,-3.4416765769999995,-0.337579146,-1.2725840805,-0.33215773104999996
0 days 00:00:13.626569484,-2.5770699974999998,8.89890742275,-3.17348104725,-0.428445294525,-1.103832632,-0.340862542375
0 days 00:00:13.646569484,-2.3006989955,9.2063851355,-2.1762722135,-0.5625809977333334,-0.8160644172833335,-0.3058905303833333
0 days 00:00:13.666569484,-2.8139594199999998,9.49591636675,-1.79102769475,-0.575663670875,-0.46578437465,-0.235182937275
0 days 00:00:13.686569484,-4.030709743499999,10.2430751305,-2.0458633300000004,-0.544204145675,-0.10858121699500001,-0.1313359262725
0 days 00:00:13.706569484,-4.734598239166666,10.050253549499999,-1.9413768251666665,-0.5764272809,-0.013897173110000001,-0.04260781966
0 days 00:00:13.726569484,-4.60618340975,9.09930634475,-1.567896992,-0.682870492325,0.10690133829,-0.0945313256575
0 days 00:00:13.746569484,-4.520041943,9.291330338,-1.698904037,-0.7900263468333334,-0.03721184347000001,-0.3207549279
0 days 00:00:13.766569484,-2.9353951812499997,12.2542428995,-0.44805602950249995,-0.665766269,-0.478612549625,-0.735786661375
0 days 00:00:13.786569484,-1.63190504925,12.3194472825,-0.8943174734174999,-0.4244746715,-0.70478525755,-0.98807382555
0 days 00:00:13.806569484,-1.2797613343333334,10.0179510125,-1.1661022108333334,-0.23495386170000002,-0.6348412335,-0.64278247955
0 days 00:00:13.826569484,-1.0671989173,9.11605632325,-0.7920242699,0.16485713607500002,-0.1873827725675,0.04795287919999999
0 days 00:00:13.846569484,-1.5672988596,7.27178812,-0.0969093144,0.27919065951666666,-0.10634137690833334,0.2266817316166667
0 days 00:00:13.866569484,-2.84626263425,7.922037243999999,-0.20398812925,0.33452481775,-0.37415467950000003,0.48762280490000004
0 days 00:00:13.886569484,-2.912065268,8.250452042,-0.1004985496,0.128357967335,-0.64812751115,0.449596490675
0 days 00:00:13.906569484,-3.162514011166667,8.6703926725,-0.19142579910000002,-0.06268999726,-0.6907353401000002,0.22281293570000002
0 days 00:00:13.926569484,-2.922832847,8.6668038365,0.7465606779,-0.283059457315,-0.72372204065,0.02855792921
0 days 00:00:13.946569484,-2.524427891,8.874979019,0.9044869541999999,-0.36048656701666665,-0.7354302803666667,-0.07701986965
0 days 00:00:13.966569484,-2.325225413,9.47079205475,0.1848455481225,-0.396222166725,-0.758235886675,-0.28008150305
0 days 00:00:13.986569484,-2.35932320325,9.7232351305,0.7220342345825,-0.4227947891,-0.8382591754,-0.249385539425
0 days 00:00:14.006569484,-1.8524435561666666,9.852846304833333,0.7198408246333333,-0.35957029459999995,-0.9051488638,-0.1669187993
0 days 00:00:14.026569484,-1.864008874,9.71785116225,0.618544667975,-0.25511240209999997,-0.965624496325,-0.18066325415
0 days 00:00:14.046569484,-2.167897344,9.3080801965,0.63290160895,-0.18924081325666667,-1.0118465719166667,-0.10634137786633334
0 days 00:00:14.066569484,-2.315654159,9.32004404075,1.259222954475,-0.018249586230000003,-1.0545052887500002,0.0077885263589999995
0 days 00:00:14.086569484,-2.48016071325,9.36969494825,1.1593226197500002,0.30382886527499997,-1.1517855225,0.0395534960525
0 days 00:00:14.106569484,-2.608974258,9.4233341215,0.7250252863166667,0.630946964,-1.3639083505,0.03863719851
0 days 00:00:14.126569484,-2.6279174687499998,9.44028353675,0.6412764638249999,0.7280744463250001,-1.464700997,0.023976443335
0 days 00:00:14.146569484,-2.299502611,9.506684303,1.093519926,0.7852921088666666,-1.4571669896666668,0.014711660641666666
0 days 00:00:14.166569484,-2.468196571,9.6376912595,1.15094772,1.012432023775,-1.34374979125,-0.0030543240724999997
0 days 00:00:14.186569484,-2.18883454775,9.580861807249999,0.91525466745,1.060079455,-1.34420791275,0.0288633606425
0 days 00:00:14.206569484,-2.2309082746666666,9.108678022833333,0.6827520629,0.9681442974,-1.340695441,0.082619462145
0 days 00:00:14.226569484,-2.3485554457499997,9.19681406,0.713659331225,0.8762091398,-1.341306329,0.1189659163
0 days 00:00:14.246569484,-2.482553482,9.699306488,0.7764709294,0.5367719531,-1.1488839586666666,0.19298236193333337
0 days 00:00:14.266569484,-2.476571321,9.817750931,0.8015955687,0.174020102235,-0.826958194375,0.222507495425
0 days 00:00:14.286569484,-2.4299114345,9.28116107,0.8177471160750001,-0.05505418592,-0.55939941105,0.21456625682500002
0 days 00:00:14.306569484,-2.3956143460000003,9.176475047999999,0.35852458825000005,-0.21265730265000002,-0.4402807802,0.16539163885
0 days 00:00:14.326569484,-2.254039049,9.499505997,0.1507478207,-0.36751151829999995,-0.4425715357,0.105221461495
0 days 00:00:14.346569484,-2.1200408935,9.619147301,0.43549372999999997,-0.39866561689999996,-0.39904742438333335,0.07569632927283333
0 days 00:00:14.366569484,-1.8388841452500002,9.742377757749999,0.477966338375,-0.354836069025,-0.177456218725,0.0041233371002500005
0 days 00:00:14.386569484,-1.6911274192499999,9.725627660499999,0.2841476947,-0.313755422825,-0.19410228357499998,-0.024740023075000003
0 days 00:00:14.406569484,-1.7367904584999998,9.649456341999999,0.32462626198333333,-0.22426373509999997,-0.3483456373,-0.07528908178
0 days 00:00:14.426569484,-1.798804462,9.52403235425,0.45463629812500006,-0.16317725555,-0.439822651425,-0.0681114215425
0 days 00:00:14.446569484,-1.8185452225,9.627521515,0.70468628405,-0.1388444801166667,-0.40800675746666665,-0.04780016777666667
0 days 00:00:14.466569484,-1.797009826,9.772287369,0.7896314859,-0.07017309590000001,-0.453108936525,-0.03436114289975
0 days 00:00:14.486569484,-1.6821543280000002,10.080961704749999,0.6927221566499999,0.1272889525,-0.6107120514,-0.003207040019
0 days 00:00:14.506569484,-1.9665014343333331,9.834102153666667,0.4422733883166667,0.17951788755,-0.8211549522,0.016340633390499997
0 days 00:00:14.526569484,-2.3754747507499996,9.33141040825,0.7932207286749999,0.27068945765,-1.0994039175,0.09315687789999999
0 days 00:00:14.546569484,-2.70987165,9.123832703,0.8961120843999999,0.34832019606666664,-0.9849685628499999,0.19695298743333334
0 days 00:00:14.566569484,-2.9617162345,9.09751152975,0.851844847225,0.39591674504999996,-0.8677334189249999,0.250759992775
0 days 00:00:14.586569484,-3.05443811375,9.018548488499999,0.781256601225,0.426612705,-0.8049670458,0.2924515009
0 days 00:00:14.606569484,-3.0560333728333333,8.962715943666666,0.94237330555,0.3792706728,-0.6592758000000001,0.28328853844999996
0 days 00:00:14.626569484,-3.31346112475,9.0263249875,0.8291130363750001,0.30947935582499997,-0.4370737374,0.27366743235
0 days 00:00:14.646569484,-3.419343472,9.1860466,0.6245267391,0.19702934103166667,-0.27290382736666663,0.2774853209833333
0 days 00:00:14.666569484,-3.4319058655,9.376275301,0.5581258833,0.07047852129,-0.1879936308,0.2435823381
0 days 00:00:14.686569484,-3.549154162,9.4181499485,0.516251474575,0.0261908248175,-0.1780670807,0.21441354229999998
0 days 00:00:14.706569484,-3.4424741265,9.349954764333333,0.4167499393,-0.15462515129999999,-0.1779143661,0.09483675658000001
0 days 00:00:14.726569484,-3.0951160790000003,9.41276597975,0.47916273772499995,-0.234190285175,-0.313373636425,-0.008704822507499998
0 days 00:00:14.746569484,-2.9276185034999997,9.361918449500001,0.41635113954999997,-0.2389244859,-0.39314239718333327,-0.04525489855833333
0 days 00:00:14.766569484,-3.06700032925,9.2339026925,0.3122633621,-0.21571162715,-0.623387500625,-0.0951421875175
0 days 00:00:14.786569484,-3.2195429205000003,9.14895725225,0.625723123575,-0.224874600775,-0.587499193825,-0.03588830633
0 days 00:00:14.806569484,-3.3112676939999997,9.097112656,0.8382855455333335,-0.2001345754,-0.4097375572,0.01817322709
0 days 00:00:14.826569484,-3.437289715,9.041878939,0.72382886705,-0.056275918156749996,-0.0555886952275,0.0268780500625
0 days 00:00:14.846569484,-3.5569308994999997,8.959924698,0.6149554252499999,0.13034327016516667,0.14350231677166667,0.011555525183499999
0 days 00:00:14.866569484,-3.56889498225,9.0394859315,0.552742049125,0.2396880686,0.1528689116,-0.001374445739
0 days 00:00:14.886569484,-3.55035054675,9.4612207415,0.562313333175,0.238771770125,0.15867212784999998,-0.021838415326750002
0 days 00:00:14.906569484,-3.3535408578333334,9.583254973166667,0.760917604,0.2170860693,0.19471315295,-0.107664916645
0 days 00:00:14.926569484,-3.1304103134999997,9.4331052305,0.93499544265,0.2004400045,0.256410490725,-0.15179989855
0 days 00:00:14.946569484,-3.0209386345,9.3930253985,0.7920242846000001,0.1965202888166667,0.26822054385,-0.15337796505
0 days 00:00:14.966569484,-2.9491539597500003,9.52522850075,0.7190432250250001,0.1731038094,0.2554942071,-0.1284343153
0 days 00:00:14.986569484,-2.8755746487500002,9.562317133250001,0.82672023775,0.1401171107175,0.272292986475,-0.10186169853499999
0 days 00:00:15.006569484,-2.782852729,9.456834157666666,0.9188438951500001,0.04115701467,0.3226893246,-0.02214384824
0 days 00:00:15.026569484,-2.554338157,9.14955568325,0.95413804035,0.0691040791575,0.33139414342499995,0.0227547129625
0 days 00:00:15.046569484,-2.2755743265,8.9156570435,0.59102720025,0.09633846705333332,0.3073158810666667,0.02479092869666667
0 days 00:00:15.066569484,-2.03629207625,9.0729854105,0.7088737189500001,0.0613155514,0.2457203567,-0.01298087649
0 days 00:00:15.086569484,-1.678565085,9.13759183875,0.963709354725,0.10651954635,0.1921169720575,-0.0398589265425
0 days 00:00:15.106569484,-1.3519448241666667,9.239885012166665,0.5758726597333333,0.28855724629999996,-0.087200947085,-0.15867212784999998
0 days 00:00:15.126569484,-1.253839046,9.597013473499999,0.5982056409000001,0.378507077725,-0.395840384075,-0.1991419196
0 days 00:00:15.146569484,-1.1150553225,9.7950196265,0.5000999122500001,0.39382960403333334,-0.5030980607000001,-0.19277874378333335
0 days 00:00:15.166569484,-1.175474077,9.625128984500002,0.393021121575,0.3736201674,-0.735175773475,-0.13179407545
0 days 00:00:15.186569484,-1.8735801277500002,9.27218747125,-0.03349951655000001,0.2464075796475,-0.757930502325,-0.0003054337500000004
0 days 00:00:15.206569484,-2.6664020618333333,8.964710076666668,-0.39441693818333334,0.004199694839999994,-0.6583595276,0.23777911815
0 days 00:00:15.226569484,-3.5377883312500003,8.87916684175,-0.8512466400500001,-0.33376123572750005,-0.30176720395,0.43508844074999997
0 days 00:00:15.246569484,-3.979264021,9.09990406,-0.6987041830999999,-0.3902153199166667,-0.048920092466666655,0.4326449781333333
0 days 00:00:15.266569484,-4.645066798,9.5306124685,-0.4869394004,-0.167911451285,0.716238960625,0.1936441325
0 days 00:00:15.286569484,-3.3254252075000004,9.819546222500001,-0.1399801252325,0.183183081445,0.7111993432000001,0.06811141970000001
0 days 00:00:15.306569484,-1.8384854001666666,9.9258270265,-0.528415024885,0.6700423062,0.46654798089999994,-0.2893971875
0 days 00:00:15.326569484,-1.409372538625,9.951749325000002,-0.642472907875,0.7619774342,0.2878700197,-0.428368926
0 days 00:00:15.346569484,-0.71066832545,9.858429432000001,-0.48693941529999996,0.4954367876166667,-0.25783584016666666,-0.46695522466666667
0 days 00:00:15.366569484,-0.9433703121,9.43848872175,-0.1806581095,0.41393725575,-0.57818351685,-0.40943211315000005
0 days 00:00:15.386569484,-1.019342422,9.343972206,-0.1483550072,0.4583776593,-0.6766854525,-0.3764454126
0 days 00:00:15.406569484,-0.7916254996166666,9.807382582999999,0.11764711650833333,0.57047134635,-0.7212785780500001,-0.40607236325
0 days 00:00:15.426569484,-0.418743968025,10.3381898375,0.0005982059499999998,0.71005396545,-0.7278454005499999,-0.43753191085
0 days 00:00:15.446569484,-0.41874396805,10.067800999,0.12083755062500001,0.6927461227166667,-0.7828741372,-0.365348046
0 days 00:00:15.466569484,-1.109671532825,9.50847888,0.5892325938,0.68012158575,-0.7231111974,-0.28756459427500003
0 days 00:00:15.486569484,-1.8843477962500002,8.90728211375,0.7495517134999999,0.64087353645,-0.40332348090000003,-0.07544179773025
0 days 00:00:15.506569484,-2.4881366886666663,9.069196382833333,0.7541379531499999,0.5891027451,-0.10369429739999998,-0.008093958721
0 days 00:00:15.526569484,-2.77447789925,9.50429153475,0.7286144941999999,0.476856321075,0.0021380260499999984,-0.033292131967749994
0 days 00:00:15.546569484,-3.1441689729999998,9.4959163665,0.9822537005499999,0.41470081605000003,0.07478003079666666,-0.031103199505333332
0 days 00:00:15.566569484,-3.266202927,9.343972206,1.10309124,0.382172271625,0.267406061275,0.0485637497685
0 days 00:00:15.586569484,-4.06660199175,8.687142849,0.6221338808999999,0.25022549105725,0.5850557386499999,0.216398846375
0 days 00:00:15.606569484,-5.3044888175,8.121639093,-1.0233304696333334,-0.13843722793549998,1.0239620505,0.40362890065
0 days 00:00:15.626569484,-6.30090022075,8.432306766500002,-2.6081767085000003,-0.7227293849,1.1962259407499998,0.43600473554999997
0 days 00:00:15.646569484,-5.702096462499999,9.164510727,-2.5627131465,-0.85630514195,0.96491182835,0.05645408730333334
0 days 00:00:15.666569484,-4.2418764235,9.56650471675,-2.1385853289999996,-0.127899818125,0.8810197115,-0.438600897775
0 days 00:00:15.686569484,-3.7830526235,9.87996482825,-2.9001011255,0.439135409875,0.520609516625,-0.493120580875
0 days 00:00:15.706569484,-3.7168511950000003,9.874780495833333,-3.1034910285,1.0005201697,-0.5578722581000001,-0.46196648475
0 days 00:00:15.726569484,-3.766302884,9.36371326475,-2.7672993542500004,1.033201456,-0.9619593024,-0.4473057389
0 days 00:00:15.746569484,-4.023531318,9.440881728999999,-2.953939557,0.4706967770833333,-0.41116291281666667,-0.19786927848333333
0 days 00:00:15.766569484,-3.9523447157500002,9.8680005075,-3.4851461644999997,0.24243696404999998,0.03359754382500002,-0.05131263657499999
0 days 00:00:15.786569484,-3.95952326025,9.822536945500001,-3.7824544312499997,-0.132328581075,1.0816887915,0.24129158632499997
0 days 00:00:15.806569484,-2.4634109735,9.240283330333334,-3.351546963,-0.3769799322,1.2444843055,0.24785838274999997
0 days 00:00:15.826569484,-1.4656038579750001,8.3641119005,-2.8965119120000002,-0.5391645432,1.274416685,0.2466366589
0 days 00:00:15.846569484,-0.94995057595,8.4921278955,-0.55633127695,-0.97206406795,1.0775145490333333,0.40413794418333326
0 days 00:00:15.866569484,-2.0458634195,7.30648410325,1.861017763275,-0.880179807525,1.381012529,0.5639808923249999
0 days 00:00:15.886569484,-2.6195425392500002,6.48514759525,1.261017501225,-0.5910880566,1.66781354,0.7261655331
0 days 00:00:15.906569484,-2.4817558131666666,6.504489580666667,-0.24486553675000003,-0.7563269734499999,0.860861178735,0.45921760799999994
0 days 00:00:15.926569484,-1.74676054675,7.5236327652499995,-5.2767721417499995,-1.341229945575,-0.6484329719075,-0.029474224875000003
0 days 00:00:15.946569484,-2.145165503,8.691928386999999,-1.470389489305,-2.0057490665,-1.98240894095,-0.13790271925
0 days 00:00:15.966569484,-1.021735311,9.54257679,-0.09571290761,-1.464624643,-1.429270864,0.1000291109
0 days 00:00:15.986569484,-2.61714980025,9.2608218195,-3.3511480706524996,-1.141629896825,-1.318857059225,0.167835101475
0 days 00:00:16.006569484,-3.946961124833333,9.1381894745,-1.6478571991833333,-0.248698324,-1.05755963895,0.3749182671
0 days 00:00:16.026569484,-3.87397998575,9.86500954525,-0.7645068318,-0.486477442125,-0.6359102203,0.226936269525
0 days 00:00:16.046569484,-2.8797620535,11.062018870000001,-0.332602340725,-0.5318341503833334,-0.27463461456666666,0.10827578355
0 days 00:00:16.066569484,-1.75094792275,11.361719845,-2.2839492056374997,-0.382324986125,0.536033851903,-0.18707733504750002
0 days 00:00:16.086569484,-2.3940190975,10.603194955,-2.22472688575,-0.0620791316,0.006872228812,-0.05146535859
0 days 00:00:16.106569484,-3.7555350859999996,9.259425958666666,-1.9940188331666668,0.5093848407,-0.36361724534400003,-0.08384119159499999
0 days 00:00:16.126569484,-4.4853459595,7.9806619885,-1.51346035335,1.06802070125,-0.5545124858499999,-0.10980294645
0 days 00:00:16.146569484,-4.50807786,8.2277204995,0.05862414835000004,0.8631773690000001,-0.06093375974166667,-0.15653410431666667
0 days 00:00:16.166569484,-3.6299118994999997,8.64347386375,1.099501982525,0.716468013825,0.1525634727525,-0.22357651220000002
0 days 00:00:16.186569484,-2.5112674235,8.714660406250001,1.44167563325,0.394236862675,0.5371028334000001,-0.42256571352500005
0 days 00:00:16.206569484,-2.506481727,8.822336832333333,0.48015974958333335,0.36796966194999997,0.42287112769999996,-0.52549642325
0 days 00:00:16.226569484,-2.40598315,9.07059216475,-0.20877377677499995,0.12087486591999999,-0.236099235725,-0.5720748603500001
0 days 00:00:16.246569484,-1.9824535845,9.658628464000001,-1.6223337649999998,-0.36628978639000004,-1.1454223693666667,-0.6394226948666667
0 days 00:00:16.266569484,-2.04526519775,9.15194869075,-1.23230367925,-0.7938951105500001,-1.4973822537500001,-0.5810851157
0 days 00:00:16.286569484,-2.04586339,9.016156197,-1.112662554,-1.3183225395,-0.887128382975,-0.357661338525
0 days 00:00:16.306569484,-2.0482561789666667,8.943573634,2.999801893666666,-1.0416008235,1.1519382595499998,0.056963142000000015
0 days 00:00:16.326569484,-0.8183453306249999,9.535398243749999,1.04267242525,-0.2123518679325,1.65758153825,0.26038110255
0 days 00:00:16.346569484,-0.4235295951,10.01635551,-1.421336651,-0.009137519941666663,1.1796307566666668,0.223321970705
0 days 00:00:16.366569484,-1.139581792275,9.4097750175,-0.08075776700000004,0.4847975597,-1.28342685125,-0.02031125431
0 days 00:00:16.386569484,-1.85383939775,9.399605512499999,0.850648463,0.66240650415,-1.8759656845000001,-0.0540615338825
0 days 00:00:16.406569484,-2.5491536858333332,9.649057547166667,1.0620144606333335,0.8050434291499999,-1.9824088810000002,-0.028252495449999998
0 days 00:00:16.426569484,-2.5393831132500004,9.86201858425,1.65104764725,0.7538835108249999,-1.2220349905,0.145996687035
0 days 00:00:16.446569484,-2.5148565769999998,10.193424700000001,1.12462660695,0.8016836544166667,-0.8757255673,0.23116141555000003
0 days 00:00:16.466569484,-2.592623413,10.0869441025,-0.180658109475,0.7538834959,-0.8684970139499999,0.282524958225
0 days 00:00:16.486569484,-2.46101814525,9.407980441749999,-0.3864408657,0.43394307045,-1.0450369414999998,0.27214026825000004
0 days 00:00:16.506569484,-2.4673989613333336,8.974281470333333,-0.16191433122333335,0.04085157812499999,-1.091768086,0.21151193229999998
0 days 00:00:16.526569484,-2.5716861787500003,9.084949255249999,-0.49471607807499995,-0.2903898507625,-0.9836450219999999,0.200363647175
0 days 00:00:16.546569484,-1.895115495,9.736394882,-0.6723831892,-0.3709730953333333,-0.8715513249333333,0.13077596821666668
0 days 00:00:16.566569484,-1.5990037320000001,10.012766122999999,0.345164656625,-0.29100070245,-0.4637990892,-0.24556763842499998
0 days 00:00:16.586569484,-1.45363974525,10.113862750000001,-0.21116659042500002,0.10514510887499999,-0.59452416,-0.31505350769999996
0 days 00:00:16.606569484,-0.7836494047333332,10.013165314333333,-1.0436694920833334,0.7262418866,-1.4457642435,-0.30375251175
0 days 00:00:16.626569484,-0.40378881990000004,10.126425505,-0.6532405689475,0.8694896698,-1.891084671,-0.2915352285
0 days 00:00:16.646569484,-0.6544369757499999,10.033105372000001,0.315852597355,1.0729075868,-2.4298674661666664,-0.29072072605
0 days 00:00:16.666569484,-0.842273563175,9.815956592500001,0.7806583941,1.212795615,-2.582583666,-0.1791360974
0 days 00:00:16.686569484,-0.94157572095,9.68614625925,1.01156574515,1.20531252,-2.62564963125,-0.1262962938975
0 days 00:00:16.706569484,-1.1042876935333332,9.620343367166667,1.5054842236666666,1.1413244605,-2.713003278,0.049327330665
0 days 00:00:16.726569484,-1.6342978772499999,9.6861464975,1.7012968960000001,0.9339358956499999,-2.55341488125,0.142942355955
0 days 00:00:16.746569484,-1.7383856174999999,9.7603235245,1.8604195714999998,0.8024981568,-2.4735443194999998,0.1888081208
0 days 00:00:16.766569484,-2.068595111,9.4055874345,1.4847464265,0.393015131375,-2.2632540465,0.294742263875
0 days 00:00:16.786569484,-2.6673991079999997,9.069994211,1.25982111725,0.26335907355,-2.2365285755,0.306043259825
0 days 00:00:16.806569484,-2.8039894498333333,9.054839769833332,1.213958681,0.1327867359,-2.220951557,0.3028362095
0 days 00:00:16.826569484,-2.6494529845,9.42891788475,1.182054341,-0.039935281499999996,-1.99233543875,0.1942550018
0 days 00:00:16.846569484,-1.770688832,9.722038269,1.335195005,-0.09190969510999998,-1.7441716391666666,0.04942914346333333
0 days 00:00:16.866569484,-2.08175572725,9.63649511325,1.247857034,0.028939717904999995,-1.51204302925,-0.22296564279999997
0 days 00:00:16.886569484,-1.6193427145000001,9.710672617,1.216750324,0.1682168841,-1.518457174,-0.378278017
0 days 00:00:16.906569484,-1.3136595983500001,9.909874756999999,0.9296116035666667,0.32459826765000005,-1.5221223234999999,-0.5652026236
0 days 00:00:16.926569484,-0.9092726111,9.918250084,1.012163997,0.5698604807250001,-1.52258044525,-0.8144354820249999
0 days 00:00:16.946569484,-0.3002992421,10.132407667,1.0049855114500001,0.6009127795666667,-1.5340341731666667,-0.8296053012166666
0 days 00:00:16.966569484,0.468395046925,10.14556837,0.647856712325,0.588033735725,-1.6084069909999998,-0.798094838875
0 days 00:00:16.986569484,0.351146727825,9.7196454995,1.2939188476999999,0.511217482375,-1.536324918,-0.7689260393249999
0 days 00:00:17.006569484,0.34975090621666666,10.102895896,1.1166505910333333,0.4608211219,-1.214246511,-0.7130318880000001
0 days 00:00:17.026569484,0.3008974418,10.861022235,0.55692948405,0.5739838107999999,-0.73410677895,-0.664926290475
0 days 00:00:17.046569484,0.53240303695,11.984452249999999,-0.32303106770000006,0.9152026970833332,-0.4901680847166667,-0.5234602043666666
0 days 00:00:17.066569484,0.3942175284,11.73679495,-1.47577339375,1.3111448585,-0.6913462281,-0.17348558825000002
0 days 00:00:17.086569484,-0.23868405072499999,10.670792815,-1.13001048555,1.65979597,-0.755487039725,0.29474226015
0 days 00:00:17.106569484,-1.1014960504333333,8.4000042275,0.5519444246833333,2.280587256,-0.013286322399999976,0.86361005895
0 days 00:00:17.126569484,-2.07457727175,8.59801030075,0.16630117582499993,2.9554401635,1.2970186023,1.70232743025
0 days 00:00:17.146569484,-4.730610371,11.32164049,-2.3557339315,2.5589380263333332,2.2374448974999996,2.390059352166667
0 days 00:00:17.166569484,-4.1078782675,14.689538005,-2.93778800975,1.81037420025,2.26126873475,2.54730612075
0 days 00:00:17.186569484,-3.0406793355,14.2097773575,-1.30707934495,1.094287872,1.584125042,2.362672329
0 days 00:00:17.206569484,-2.6129622856666668,13.160125893333332,-0.4327020645,0.583910360775,0.5380191207,1.857487142
0 days 00:00:17.226569484,-1.7270197567499999,10.049854995,0.9708878247749999,-0.0597883891125,-0.62628911435,1.3096940815
0 days 00:00:17.246569484,-1.4333007335,9.952945708000001,0.5455635488,-0.5563705278333333,-1.1002183856,1.3767365016666666
0 days 00:00:17.266569484,-0.656829796825,9.877572059750001,0.3355933651,-1.038241029,-1.076191068,1.633910537
0 days 00:00:17.286569484,0.863808951975,9.25244689,0.32841491700000003,-0.8902590425499999,-1.1438443365,1.8359541
0 days 00:00:17.306569484,-0.2089731744066667,9.764311631833333,-2.6747768868499997,0.005115985850000004,-2.1473424435,2.5178319215
0 days 00:00:17.326569484,-2.14636188775,9.794421434,-1.4440684688999998,0.4487565458,-3.5288130637500004,2.67558777325
0 days 00:00:17.346569484,-1.6666010025,9.5030951485,-0.59940208495,0.2935459713333333,-3.362250566666667,2.5066327655
0 days 00:00:17.366569484,-2.3120649755000002,8.22114038475,-0.610768005275,0.340328030275,-3.2333072422500004,2.24263730675
0 days 00:00:17.386569484,-2.71585381,7.492525935,-0.64785675705,0.39927649495000006,-2.98224192875,1.9133811889999999
0 days 00:00:17.406569484,-2.31027023,6.623333215833334,-1.2107683020333333,0.2806160152,-2.596022606,1.659566879
0 days 00:00:17.426569484,-2.091326952,5.479563713,-1.615155339,-0.16241367905,-1.9138394,1.22111868875
0 days 00:00:17.446569484,-1.983649969,5.2486565115,-2.4047867655000004,-0.6230566104333334,-1.2994621198333334,0.7302379260833334
0 days 00:00:17.466569484,-1.47038954525,5.1056853535,-3.3038898705,-0.8488729596,-1.050534725,0.4506655037
0 days 00:00:17.486569484,-0.513260465225,5.117051243500001,-3.212962627,-0.8493311107,-1.05084013925,0.34009897542900003
0 days 00:00:17.506569484,0.47258247686666666,5.450052341166667,-3.3519456384999997,-0.8027526736,-1.1143700479999998,-0.12385283734199999
0 days 00:00:17.526569484,1.131805121975,5.9383875135,-4.1742790339999996,-0.738306432925,-1.3661990765,-0.41233372687500003
0 days 00:00:17.546569484,4.734199643,9.0628159035,-6.2907307145,-0.59261518715,-2.100712994666667,-0.4709258327833334
0 days 00:00:17.566569484,9.603593351,14.428720949999999,-3.1489546295000004,-0.32047494591500003,-2.11679911625,-0.28221953568
0 days 00:00:17.586569484,10.54277611,15.59641838,-2.182254314,-0.04558578506,-1.359021425,0.03711003438
0 days 00:00:17.606569484,5.828915795166666,15.292529105,-2.5639094908333333,-0.18974986858,-1.234404981,0.5673406441900001
0 days 00:00:17.626569484,2.8079773185,9.032905697,-3.4851461645,-0.222125705325,-1.2673916515,1.0325141847500001
0 days 00:00:17.646569484,2.660818815,5.120640278,-3.337987661,-0.6017781868166666,-0.7945823569166667,0.5165370851666666
0 days 00:00:17.666569484,0.7495517004,8.350950837500001,-0.60478594145,-0.8508583009249999,-0.020158544274999968,0.08307761697499999
0 days 00:00:17.686569484,-4.7491546514500005,14.901302816000001,-2.27258325365,-1.2564724983,1.73149619965,-1.075732886775
0 days 00:00:17.706569484,-9.693723201,18.77966944666667,1.9824535048333332,-0.54527316615,-0.14095708719999997,-1.415831864
0 days 00:00:17.726569484,-7.872984602374999,16.25743508575,0.8943174477499998,-0.1085048541,-1.244178891,-1.290910006
0 days 00:00:17.746569484,-2.05423822975,6.1220369340000005,-1.7730814815000002,-0.116751533,-0.94220802405,-0.8207477232333332
0 days 00:00:17.766569484,-2.423331201,6.2662044762499995,1.76889416575,-0.1208748689275,0.2542724647,-0.7629701048499999
0 days 00:00:17.786569484,-2.000399828,6.75972414,1.727617979,-0.009239329722499998,0.38744098695,-1.15881052625
0 days 00:00:17.806569484,-3.5062827665,8.385248104499999,1.7216359373333334,-0.063300862905,0.42195485530000004,-1.5926771759999998
0 days 00:00:17.826569484,-3.7166516187500003,9.11844873425,1.305284798025,-0.02710712515,0.5531380623500001,-1.6710205975
0 days 00:00:17.846569484,-2.494517684,9.181260586,-0.25124639295,-0.01137735695,0.5884155035,-1.6812525989999998
0 days 00:00:17.866569484,-1.71385925975,8.445467949000001,-2.532802731,-0.2210566867125,0.08750638362500007,-1.812130362
0 days 00:00:17.886569484,-1.8161524237499997,8.17627477625,-0.050249278575000056,-0.9058361052499999,-1.6690353155,-2.1731514335
0 days 00:00:17.906569484,-0.06380861006666667,9.305687268666667,-0.6927221615833333,-1.073060393,-2.430478334,-2.078314781
0 days 00:00:17.926569484,0.5066801906,9.73460030575,-0.44446676949999997,-1.5321252049999998,-2.5839580895000003,-2.2221734525
0 days 00:00:17.946569484,-1.667797446,8.596215248,2.5543382169999997,-1.6447279851666667,-1.9649992685000004,-1.9959497848333336
0 days 00:00:17.966569484,-1.333400428175,7.2370922565,1.5493526759999998,-1.320460558,-0.994335115,-1.275027514
0 days 00:00:17.986569484,-0.9326026141999999,7.17667353125,1.11625173725,-1.28732115025,-0.47448919725000005,-1.07359485365
0 days 00:00:18.006569484,-1.5178472002166667,8.491728544499999,0.6711867056666666,-1.1207078095,1.07710731,-0.397520259
0 days 00:00:18.026569484,-1.909472466,9.872786522,-1.127019525,-1.1029927435,0.937677428025,-0.226325400175
0 days 00:00:18.046569484,-1.9214366079999998,11.078769205999999,-0.7645068618,-1.5618539848333335,0.9304997722000001,-0.2374736766
0 days 00:00:18.066569484,-1.4793625774999999,11.41436219,-0.3481556922,-1.6871321795,0.94897843895,-0.393396914
0 days 00:00:18.086569484,-0.5904289783,10.679167267499999,-0.88833544435,-1.797546029,0.9824233055,-0.8345940113
0 days 00:00:18.106569484,0.15832510490733334,12.007582666666666,0.7397810020666666,-1.8815398810000001,1.53861570375,-1.1980585456500001
0 days 00:00:18.126569484,0.163310150908,12.43908858,2.2289143202500004,-1.965533733,2.094808102,-1.56152308
0 days 00:00:18.146569484,0.41635115445000004,12.47258806,0.125623107,-0.55545423425,2.6685119470000003,-1.0942115383333333
0 days 00:00:18.166569484,1.9732811305333333,12.789238293333334,-0.05184449258333338,0.24620397866666666,2.80524381,-0.3021235463333334
0 days 00:00:18.186569484,2.1463619473333333,11.314860661333334,-1.2801600894,1.285488605,2.849225998,1.095127821
0 days 00:00:18.206569484,0.8195417127222222,8.68621187738889,-4.0378881529,1.9455280300000002,1.8135047853500001,1.9451462030000002
0 days 00:00:18.226569484,-4.07796812025,9.01974499275,-3.5186455903562504,2.605567455,0.7777835727,2.795164585
0 days 00:00:18.246569484,-2.7637101410000002,13.89871025,0.37567316323750005,2.748917023166667,0.37552913026666673,5.129380544
0 days 00:00:18.266569484,-2.31445777375,19.00200295,-1.689931034775,3.33982682225,-0.9905172138750001,5.135693073500001
0 days 00:00:18.286569484,-6.66341286875,24.6179580675,-3.6993037465,3.783314705,-2.661385059,4.308276653
0 days 00:00:18.306569484,-8.493323961666666,24.752554258333333,-2.3824536805000003,2.1785728932,-1.1271982042,3.3202028274999997
0 days 00:00:18.326569484,-10.478170395,14.982658509,3.047259569,0.004352409400000007,2.01325757065,2.0270020665
0 days 00:00:18.346569484,-7.7156567585,4.1455652715,-4.6205404995,-1.5802817167666667,3.1287984449999997,2.1592542926666667
0 days 00:00:18.366569484,-2.75653177525,4.50508677975,-0.21595226232499998,-1.26059586188,1.4026982785,2.2663083672499997
0 days 00:00:18.386569484,-1.6737794582499999,5.25762939475,-0.34576286377500004,0.14026981963500001,1.1641555871999998,1.8828379515
0 days 00:00:18.406569484,-0.6971090038666666,4.498905420166666,0.26600210869999996,0.40462155639999997,-0.17424920210000003,1.3749039175
0 days 00:00:18.426569484,1.27058878575,3.7316069599999997,1.214955657875,0.7551052495999999,-1.38116526625,1.2270745932500002
0 days 00:00:18.446569484,0.9858429432000001,2.858226657,0.4785645306,0.73968087635,-1.3994402685,0.9206241170333334
0 days 00:00:18.466569484,-1.6067803201500002,0.9493524059499999,0.6807580441000001,0.3972911680825,-1.02228216825,0.7131846398
0 days 00:00:18.486569484,-4.45005178475,-0.391824699975,-0.08494520932499999,-0.01504254527,-0.459217608,0.5532907844
0 days 00:00:18.506569484,-4.8339004915,-0.5686941643666666,-1.0333005537,-0.48143780323499996,-0.26282457636,0.16630794110000002
0 days 00:00:18.526569484,-2.344367921075,0.8955138920249999,-2.4047867057500003,-1.0958150923,-0.25518876872999996,-0.5354229882249999
0 days 00:00:18.546569484,0.5934200287,3.0723843569999993,-2.289931297,-1.4062870743333333,-1.3016001780666666,-1.6930626428166669
0 days 00:00:18.566569484,5.216353535425,13.488341451750001,-9.55095147925,-1.16850794875,-1.8350378274999999,-1.7707442935
0 days 00:00:18.586569484,11.69252765275,24.2913379675,-1.72223409925,-0.4313468784250001,-2.6352705954999998,-1.2997675835
0 days 00:00:18.606569484,11.57488028,22.794826506666666,0.11684949208333333,-1.2480731008500001,0.25091278600000005,-0.9393573107500001
0 days 00:00:18.626569484,9.87039303575,20.738594055,-1.8382860570250001,-2.3987895545,1.97156611125,0.13026691230000004
0 days 00:00:18.646569484,2.182254255,16.760525705,-1.940579295,-2.3281837599666666,1.5790345771333332,0.62384564175
0 days 00:00:18.666569484,-3.8656049075,15.901502372500001,-1.0432707664999998,-0.7541889548,0.5090031028,1.547778606
0 days 00:00:18.686569484,-4.708476900999999,11.03928732925,1.851446569,-0.344909548725,0.0887281151,1.369100659775
0 days 00:00:18.706569484,-3.5768710374999997,7.208378394666667,3.6677982808333334,0.8829286695,-1.172096848,0.8330668211
0 days 00:00:18.726569484,-2.938386202,4.687539577,3.048455954,1.448742136125,-0.5760454981,0.41706791517499997
0 days 00:00:18.746569484,-3.9673000574999997,7.6366932385,2.5148565769999998,1.4861576558333336,0.47835803036666663,-0.06419170396666667
0 days 00:00:18.766569484,-6.18963420425,11.154740574999998,1.66899380075,1.455919862,0.6495019794,-0.1327103674
0 days 00:00:18.786569484,-7.7198442225,9.289535762,0.15792628377499998,1.327027395525,0.695774987375,-0.346971191425
0 days 00:00:18.806569484,-8.097311974,8.604590416,-0.3110669553,0.8652136028,0.3159698099,-1.0157153902500002
0 days 00:00:18.826569484,-6.42353248625,8.125427603750001,-0.42532423882500003,0.7900772095,-0.2026543915,-1.041677117
0 days 00:00:18.846569484,-1.7252250910000002,7.1401827335000005,-0.21774686874999996,0.6261618634,-1.7368413259166668,-1.7557780943333334
0 days 00:00:18.866569484,-2.60279285925,8.05543708775,0.853041313225,0.6422479749,-3.023017168,-2.225533009
0 days 00:00:18.886569484,-2.787638426,8.209774017,1.026520967,0.62987795475,-3.365254104,-2.214384735
0 days 00:00:18.906569484,-1.8859430550000003,9.466006438166668,-2.106481591666667,0.3966803104,-4.4765696525,-2.1537564995
0 days 00:00:18.926569484,0.0101694958275,10.365109445,-4.890331402425,-1.5018873883750001,-4.46084010625,-2.0990841985
0 days 00:00:18.946569484,0.04067798331,10.12642574,0.2727817893,-2.3889648515,-3.7733627659,-2.0575453836666666
0 days 00:00:18.966569484,-0.3002992374975,8.95633530575,2.742174729825,-3.943819344,-0.27305656675,-1.8796309230000001
0 days 00:00:18.986569484,-0.546759977925,7.704889059500001,2.76670122125,-3.6660286192500005,0.67363114665,-1.77731108675
0 days 00:00:19.006569484,-0.6723831593333333,7.883951982500001,2.02313159875,-3.22025013,1.442404509,-1.614668369
0 days 00:00:19.026569484,-0.8386842941499999,10.600802662500001,-0.09092725810000002,-3.275686026,3.0816601515000004,-1.32191142425
0 days 00:00:19.046569484,1.2323036122,12.710673809999998,0.97866445805,-3.000542402666666,4.261036276833333,-1.0969604255
0 days 00:00:19.066569484,2.581855536,13.66301727,1.229910851,-2.18239069,4.962818146,-1.056337953
0 days 00:00:19.086569484,2.9371897582499997,12.8841538425,-3.6065819259999996,-1.63536130322225,3.9964300695,-0.9343177083
0 days 00:00:19.106569484,2.5220350223333337,10.333005587166666,-0.9810572862466665,0.5625301215555,0.34529130179999995,-0.43569931385
0 days 00:00:19.126569484,0.3655036089999999,10.60199904475,-1.03011016565,1.119333386,-0.4066832364,-0.3031416535
0 days 00:00:19.146569484,-0.7633104398,14.197813509999998,0.04785642020000003,2.4535637893333333,-1.5988876669000003,0.6487892766666666
0 days 00:00:19.166569484,0.8554340565999999,13.150953055,0.8925228565500001,2.79982233025,-1.82312595825,1.107192397025
0 days 00:00:19.186569484,1.057627559,12.61974621,0.8446664214,3.0258423682499997,-1.458745136725,2.3139557835
0 days 00:00:19.206569484,0.3270190359999999,12.561122101666667,0.35932221999999997,2.7537020445000002,0.61040660755,4.256963849
0 days 00:00:19.226569484,-3.1028928162500002,13.79103327,-1.3244273517,1.9849287269999998,2.16139236075,5.232820272250001
0 days 00:00:19.246569484,-4.3070806265,20.957537650000003,-0.8985049428999999,1.825798472,1.8048509262166668,4.841459790833333
0 days 00:00:19.266569484,-6.180660725,23.5549469,-2.70149684,1.769904375,0.9775363803,3.78537631
0 days 00:00:19.286569484,-9.51146972375,20.24567318,-2.1092731354999996,1.07611468425,1.040608152725,3.4828455445
0 days 00:00:19.306569484,-8.3322072825,11.777074176,-0.2193420529333333,-0.9298125804,1.5670208335,2.455523729
0 days 00:00:19.326569484,-5.278566837,6.831508636,-1.47158587,-0.31925320994999995,1.684765041,2.22400599675
0 days 00:00:19.346569484,-3.3236306905,6.781259298,-0.2979063988999999,0.18583015600833333,0.7202604749083333,2.22242793425
0 days 00:00:19.366569484,0.7010970116,6.501298904,0.1148554832,0.6731984515666667,-0.2871573418333333,2.015904665
0 days 00:00:19.386569484,0.8769695013500001,5.4658049344999995,-0.7555337362000001,0.796644046875,-0.4886918068,1.6659809349999999
0 days 00:00:19.406569484,0.6388836502666667,4.7006999254999995,-0.9124630193000001,0.7231875360000001,-1.0816888212,0.91553360215
0 days 00:00:19.426569484,-0.89491568505,2.4819552299999996,-0.214755835025,0.5219075829,-1.4153737130000001,0.69333150985
0 days 00:00:19.446569484,-1.4416756035,2.1451654435,0.20937198025000003,0.07923424740000001,-1.3761255943333335,0.5841394265333334
0 days 00:00:19.466569484,-1.837687731,2.165504456,0.5383850932,-0.5171734095,-1.059697628,0.4445568323
0 days 00:00:19.486569484,-3.0562326315000004,1.38484609175,-0.12382857499999997,-0.7155517338749999,-0.7786998413349999,0.252745293075
0 days 00:00:19.506569484,-3.190031310166667,1.2849457665,-0.7421738108333332,-1.5006656644999998,-0.07956513761999999,-0.6394226998
0 days 00:00:19.526569484,-1.828116536,2.086541414,-2.730210543,-1.690644622,-0.2234237939,-0.956156075
0 days 00:00:19.546569484,1.7347964644999998,8.341379762,-9.8895355465,-1.0319287978833334,-1.1728094544833334,-2.1267766656666667
0 days 00:00:19.566569484,10.17906737625,24.0717959375,-6.5234324930000005,0.0768926069,-2.59388464675,-1.9138393405
0 days 00:00:19.586569484,11.80618668,27.23032188,-3.014956474,-0.3198640645,-2.724915028,-1.271973133
0 days 00:00:19.606569484,6.114060521666667,16.199010533333333,-7.914659818,-0.7428879292499998,-0.8489493134999999,-0.2817613482
0 days 00:00:19.626569484,2.3688944128,12.378071545000001,-4.307679116999999,-1.3794090154999998,0.3200931417925,0.9521854518999999
0 days 00:00:19.646569484,0.5958128572,12.73699474,1.7060825819999998,-1.5263219873333334,2.1309508318983337,1.0833178062
0 days 00:00:19.666569484,-4.72343181095,12.4588289275,-1.423729539,-1.52876544,2.90481472,0.7218894362
0 days 00:00:19.686569484,-5.403591871250001,9.68315482225,4.13898497825,-0.9296598136499999,2.195142568905,0.60154907775
0 days 00:00:19.706569484,-3.347160101,6.971887508833333,3.7112679085,1.2659409046999999,0.27382013576,0.0068722293000000045
0 days 00:00:19.726569484,-3.2817562222500003,6.364310026249999,1.16410818685,1.66101771625,0.6304124296,-0.58826277405
0 days 00:00:19.746569484,-3.2578279975,8.456235170500001,-0.12323036790000003,1.5596650643333334,0.5933023939833334,-0.8381573756666668
0 days 00:00:19.766569484,-3.9912282822500003,9.254241943500002,-0.17048861365749998,1.058246851,0.1595884264,-1.485165
0 days 00:00:19.786569484,-3.58923399475,8.653643370000001,0.6179464599225001,0.99868753555,-0.10048725452499997,-1.5219696165
