time,acc_x,acc_y,acc_z,rot_x,rot_y,rot_z
0 days 00:00:00.034267567,1.9378871917499998,3.5901312229999998,9.0110709665,0.26053382825,0.246197588725,0.1186413951
0 days 00:00:00.054267567,1.8035900788333332,3.6499517755,8.440083344333333,0.10071633009999999,0.17249293624999998,0.05642863365
0 days 00:00:00.074267567,1.781157374,3.657130241,8.337491035,0.0,0.0,0.0
0 days 00:00:00.094267567,1.781157374,3.6571302409999995,8.337491035,0.0,0.0,0.0
0 days 00:00:00.114267567,1.62143647625,3.858127475,8.1957166195,-0.082008600225,0.150482714175,0.0254654251
0 days 00:00:00.134267567,1.568196177,3.925126553,8.148458481,-0.2992664836,0.56921141595,0.0923932958275
0 days 00:00:00.154267567,1.568196177,3.925126553,8.148458481,-0.2129627317,0.4710530937,0.06398808211
0 days 00:00:00.174267567,1.66405862525,3.7089499835,8.475826502,-0.006967676800000003,0.429017961,0.1646089684525
0 days 00:00:00.194267567,1.846361756,3.2382369045000003,9.315258503,0.032821254183333336,0.4625518967333333,0.22710170848333333
0 days 00:00:00.214267567,1.5616158544999998,3.67088913925,8.7167539595,-0.1115591824,0.7002801299,0.3718639314
0 days 00:00:00.234267567,1.501795292,3.755834341,8.564809799,-0.1115591824,0.7002801299,0.3718639314
0 days 00:00:00.254267567,1.3854941428499998,3.5553855894999997,8.764710108333334,-0.1115591824,0.7002801299,0.3718639314
0 days 00:00:00.274267567,0.8039883971,2.553141832,9.764211655,-0.1115591824,0.7002801299,0.3718639314
0 days 00:00:00.294267567,0.3206382319,2.5033411979999998,9.239884376500001,0.07545452568333333,0.4084649284833333,0.5327249715666666
0 days 00:00:00.314267567,-0.350473750425,2.3839991090000003,8.104714393750001,0.051045388025,0.34378325195,0.67638000845
0 days 00:00:00.334267567,-0.4130610228,2.360818624,7.901100159,-0.1343902498,0.3248273432,1.010828495
0 days 00:00:00.354267567,-0.4130610228,2.360818624,7.901100158999999,-0.1343902498,0.3248273432,1.010828495
0 days 00:00:00.374267567,0.06684947014999998,2.59710985375,8.232506037,-0.1343902498,0.3248273432,1.010828495
0 days 00:00:00.394267567,1.3818550705000001,3.061915636,9.4882893565,-0.1343902498,0.3248273432,1.010828495
0 days 00:00:00.414267567,1.20373937475,2.646237493,9.742676735,-0.1343902498,0.3248273432,1.010828495
0 days 00:00:00.434267567,1.185942769,2.589034081,9.740283966,-0.1343902498,0.3248273432,1.010828495
0 days 00:00:00.454267567,1.185942769,2.589034081,9.740283966,-0.1343902498,0.3248273432,1.010828495
0 days 00:00:00.474267567,1.185942769,2.589034081,9.740283966,-0.1343902498,0.3248273432,1.010828495
0 days 00:00:00.494267567,1.0552348196499999,2.5459632875,9.934102533,-0.30810491988333333,0.19705479095,1.2253311075
0 days 00:00:00.514267567,0.576371155675,2.3007737400000003,9.69900727125,-0.2570786218501,-0.01160642877500001,1.28319782
0 days 00:00:00.534267567,0.4603192508,2.233400822,9.556035995,0.0002290742996,-0.5609265566,1.32809639
0 days 00:00:00.554267567,1.1886346884666668,1.7281663219999999,11.080962024166666,0.0002290742996,-0.5609265566,1.32809639
0 days 00:00:00.574267567,1.89960208525,1.7575282752499999,10.119695427,0.0002290742996,-0.5609265566,1.32809639
0 days 00:00:00.594267567,3.595515013,2.148754835,6.320940017999999,0.0002290742996,-0.5609265566,1.32809639
0 days 00:00:00.614267567,6.9640113715,3.8453409072499998,7.68193292625,-0.38192412727530006,-0.532826781275,1.122731283475
0 days 00:00:00.634267567,3.9197426437500003,2.4480071362499998,8.32044291525,-1.4957406225,-0.474241048075,0.5994492322
0 days 00:00:00.654267567,2.530709028,1.793719649,8.382058144,-1.11589720865,-0.5088121891,1.05675786755
0 days 00:00:00.674267567,2.530709028,1.793719649,8.382058144,-0.8339831233,-0.4662425518,1.235626698
0 days 00:00:00.694267567,2.530709028,1.793719649,8.382058144,-0.8339831233,-0.4662425518,1.235626698
0 days 00:00:00.714267567,3.4197173715,1.44735857825,10.189236878500001,-0.8339831233,-0.4662425518,1.235626698
0 days 00:00:00.734267567,2.88335132575,1.50127190325,10.133678913,-0.40362888575,-0.60368713735,1.12719820475
0 days 00:00:00.754267567,2.605783939,1.5577275750000001,9.914361954,0.8203150629999999,-1.0667226315,0.7552961111
0 days 00:00:00.774267567,2.605783939,1.557727575,9.914361954,0.7531962991,-1.117424369,0.7086794972
0 days 00:00:00.794267567,2.605783939,1.5577275750000001,9.914361954,0.7531962991,-1.117424369,0.7086794972
0 days 00:00:00.814267567,2.605783939,1.557727575,9.914361954,0.52417926865,-0.8651372214,1.0920926184
0 days 00:00:00.834267567,3.4037153717499997,0.8362915366499999,9.696540117000001,-0.195152204475,-0.07813342056,2.33106005225
0 days 00:00:00.854267567,3.6154552298333336,0.3638586104333334,9.621789296166666,-0.2919933498,0.01229365356,2.597244263
0 days 00:00:00.874267567,3.344268799,-0.7959126234,9.611071587,-0.2919933498,0.01229365356,2.597244263
0 days 00:00:00.894267567,3.1728827955,-1.9441683887000003,10.505987168499999,-0.2919933498,0.01229365356,2.597244263
0 days 00:00:00.914267567,2.7998268604999996,-3.62363082175,11.7012765425,-0.6931788101,0.30844852092,2.9948217870000002
0 days 00:00:00.934267567,3.4217363595,-4.11229014425,11.769098047499998,-1.896735191,1.196913123,4.187554359
0 days 00:00:00.954267567,3.651447296,-4.216153622,11.75833035,-2.3747369050000002,1.4955496785,4.412657975999999
0 days 00:00:00.974267567,3.54593878975,-4.267001033,11.279167655750001,-2.852738619,1.794186234,4.637761593
0 days 00:00:00.994267567,3.229413271,-4.419543266,9.841679573,-2.852738619,1.7941862340000003,4.637761593
0 days 00:00:01.014267567,2.22510069625,-5.070989251249999,8.690208673250002,-2.852738619,1.794186234,4.637761593
0 days 00:00:01.034267567,2.05902379725,-5.8666775225,7.8361952304999996,-3.678513229,1.7916282412500002,4.2545394302499995
0 days 00:00:01.054267567,2.115255117,-6.059524059,7.679465294,-6.299084902000001,1.6001985075,3.0213754175
0 days 00:00:01.074267567,2.115255117,-6.059524059,7.679465294,-6.442332745,1.416442752,2.937877893
0 days 00:00:01.094267567,2.115255117,-6.059524059,7.679465294,-6.442332744999999,1.416442752,2.937877893
0 days 00:00:01.114267567,2.115255117,-6.059524059,7.679465294,-6.015032768499999,0.95737785855,2.654035717
0 days 00:00:01.134267567,-0.10356438172499999,-7.847411274750001,4.28225517275,-4.733132839,-0.4198168218,1.802509189
0 days 00:00:01.154267567,-1.2214860913833332,-9.035348256499999,2.603939334833333,-4.733132839,-0.4198168218,1.802509189
0 days 00:00:01.174267567,-1.8855442705,-9.914660454249999,2.419741899,-4.733132839,-0.4198168218,1.802509189
0 days 00:00:01.194267567,-1.8496519329999999,-9.695717812,1.947757602,-1.9890011349999999,-1.1429788819666669,0.41858235753333334
0 days 00:00:01.214267567,-1.82632189975,-9.4390869145,1.9764714540000001,-0.9616538882750001,-1.5195261540000002,0.13599377196225
0 days 00:00:01.234267567,-1.2550354602499998,-9.118448734249998,2.316252351,-0.320704027975,-1.717904419,-0.12713623208824998
0 days 00:00:01.254267567,-3.103490929,-8.678767681333333,3.847658713500001,0.5097666681,-1.727678299,-0.580550611
0 days 00:00:01.274267567,-3.95354116,-9.17826962425,3.6801611784999997,1.1427753269499998,-1.30999952575,-0.26656611262499996
0 days 00:00:01.294267567,-0.9535398634000001,-8.389235973,3.664608002,1.3897174200000002,-0.8625919620999999,-0.4167370398666667
0 days 00:00:01.314267567,1.3411770983,-7.4476604457499995,5.335994601,1.57648929925,-1.4851649705,-0.8620065451000001
0 days 00:00:01.334267567,1.718046665,-7.511070251,5.745167255,2.180787325,-2.6726861,-1.282128811
0 days 00:00:01.354267567,0.4247260242333333,-7.952147324999999,6.161119619833333,2.3881758449999997,-3.552636862,-1.28579402
0 days 00:00:01.374267567,-0.005383856600000014,-8.188239335999999,5.438885808249999,2.51309770325,-4.39593577425,-1.185459435
0 days 00:00:01.394267567,0.81236329675,-7.788637638,4.839483737999999,1.1729621542566666,-2.3776383798833334,-0.7929279207833334
0 days 00:00:01.414267567,1.158126175375,-7.701299786249999,6.79741096475,-0.06352993846,-0.4986183643,-0.5112174749
0 days 00:00:01.434267567,0.671186752575,-7.7270226475,6.488736986999999,-0.032223118470000006,-0.21960587797500003,-0.44463321190000005
0 days 00:00:01.454267567,1.5246267961666666,-6.907680193333333,4.386043866833334,0.2348775007,0.5172497480999999,-0.12362376190550001
0 days 00:00:01.474267567,0.49112683160000004,-6.11844742325,3.6101711395,0.5995637849,-0.038789913075000015,0.11858412454725001
0 days 00:00:01.494267567,0.2333002165,-6.9020967485,4.801198602,0.8142827451166667,-0.3587303435,0.23587017258333332
0 days 00:00:01.514267567,0.5282155797000001,-8.1308114525,5.66022205325,1.00594156975,0.07880156117500003,0.21281001719999998
0 days 00:00:01.534267567,0.396012134875,-8.088936805500001,5.405984759499999,1.062293887,0.7005091906,0.1839466542
0 days 00:00:01.554267567,0.16111672175,-7.631508827166667,5.738786220666667,0.6734784394000001,1.2423462272999999,0.46402814239999995
0 days 00:00:01.574267567,-0.190827604375,-7.50568628325,6.553342938,0.156839532775,2.019671738,0.9525672499000001
0 days 00:00:01.594267567,-0.23688943684999997,-6.7968125345,6.923632383,-0.18600832296666667,2.6944737035,1.464319229
0 days 00:00:01.614267567,-0.44985064117499995,-5.994619012,5.940780282,-0.5216785073,3.225213289,1.843055367
0 days 00:00:01.634267567,-0.0610169712425,-5.6973106865,5.928218126499999,-0.6046034097499999,3.156643748,1.91666457025
0 days 00:00:01.654267567,-0.10329016926500001,-4.941976229666667,5.7475598655,-0.8176425099500001,2.7548475265000003,2.1570398809999998
0 days 00:00:01.674267567,-1.39381915375,-4.5332025285,5.43768942325,-0.6765327453500001,2.19865512825,2.31219953325
0 days 00:00:01.694267567,-2.0602202414999997,-4.0905303955,6.095715761,-0.5516109019333334,2.0143775738333334,2.385910551
0 days 00:00:01.714267567,-2.529213428,-4.110869408,6.685546398,-0.1026252806,1.693164468,2.528445721
0 days 00:00:01.734267567,-3.2380872965,-3.7286159989999996,5.158327341,-0.0838411892625,1.49631328895,2.5226424935000002
0 days 00:00:01.754267567,-4.070988893666667,-3.5345978734999997,5.22831742,-0.02748891525,0.9057597518000001,2.505232811
0 days 00:00:01.774267567,-5.206781864,-3.220739365,4.649254322,0.4563159872625,0.72891438005,2.7379723790000003
0 days 00:00:01.794267567,-5.712863922,-2.7876384259999996,3.8656049965,1.05801781985,0.8626937766833334,2.8706317348333332
0 days 00:00:01.814267567,-6.384050965,-1.5379867852500002,1.90468683825,1.601076603,0.8709404469,2.828380346
0 days 00:00:01.834267567,-6.541378974500001,-1.0181460529500002,1.33100762975,1.8332052232500002,0.68920817975,2.8450263737499997
0 days 00:00:01.854267567,-6.895317236166666,-1.1054840783333333,1.4612170856666669,2.529591084,0.1440113783,2.894964457
0 days 00:00:01.874267567,-9.070592402750002,-2.059622139,2.20079869025,3.26858472825,1.215162724325,3.13320183775
0 days 00:00:01.894267567,-11.119447229999999,-2.36650157,0.771685292865,3.4072000983333335,2.0230313536666666,3.5104108653333337
0 days 00:00:01.914267567,-11.2014009925,-1.6504494250000001,-0.14057832679249999,3.28843784325,2.0014984905,3.72344994575
0 days 00:00:01.934267567,-11.502298357499999,-1.0767702162,0.3619144335000001,3.37777686075,1.1070397350499999,3.24239385125
0 days 00:00:01.954267567,-13.335200466666665,-1.9924236536000002,2.66161633535,3.4232861995,0.72830352185,2.6335144045
0 days 00:00:01.974267567,-13.853246927499999,-2.989831805,3.86141759125,3.0367615820000005,2.094655364375,2.29998230925
0 days 00:00:01.994267567,-13.604393005,-2.883351326,4.1934218405,2.398764133166667,4.026973366500001,2.3107742863333334
0 days 00:00:02.014267567,-13.4614219675,-3.35473740125,1.46560388805,1.9175044891500002,4.34630286675,2.30074590425
0 days 00:00:02.034267567,-13.49551964,-3.519842148,0.6053841114,0.7849612236,4.385245323,2.220569849
0 days 00:00:02.054267567,-14.323037466666667,-3.0376883746666667,0.7341977358333334,0.11331540344999998,3.1980297565000004,1.8204534054999997
0 days 00:00:02.074267567,-18.66880226,-0.22073787452499993,1.530210078,-0.5583304167,2.01081419,1.420336962
0 days 00:00:02.094267567,-19.29332924,0.9978070258999999,1.986042738,0.46629343435,2.4157157338333333,0.42289659388333334
0 days 00:00:02.114267567,-17.83071566,0.764506831775,1.15334048865,1.216689885,2.37030813075,-0.763504609475
0 days 00:00:02.134267567,-16.03669739,-0.08315058052499999,0.67836521565,1.285870314,1.87825644,-1.390251875
0 days 00:00:02.154267567,-13.824532511666666,0.16271195308333333,1.3922239836333332,1.00365081445,1.4961605664999997,-1.6397901179999999
0 days 00:00:02.174267567,-12.41157078975,0.5114658549,1.981855392,0.703105345325,0.3118464815225,-1.93651771525
0 days 00:00:02.194267567,-9.6873426445,1.1258230507,3.8428733345,0.7813978592666667,-0.23645558582833334,-1.3168462912333334
0 days 00:00:02.214267567,-8.759525776250001,0.952343419175,2.60638207225,0.680045217275,0.316122517,-0.5726093501
0 days 00:00:02.234267567,-11.073385236250001,-0.01854436097499998,0.1842473374250001,0.11652246114999998,0.8561269641,-0.35605779662500003
0 days 00:00:02.254267567,-10.546764373166667,1.3854443133333334,-1.1908280400166664,-0.94775670755,2.829983711,-0.12881610545
0 days 00:00:02.274267567,-6.5060848,1.5433706042500002,-1.811366737,-1.064126402,3.5627160069999997,0.0516944304
0 days 00:00:02.294267567,-4.6600220205000005,1.573280871,-2.8139594789999998,-0.9291253387833334,3.0723952848333336,0.34317874411666666
0 days 00:00:02.314267567,-4.755735158749999,1.47577333475,-2.9479574562499997,-0.9437860847,2.423147917,0.7215076685
0 days 00:00:02.334267567,-4.601996064,1.2538390157500001,-3.74058008175,-0.9931134135249999,1.944688067,0.9976185561250002
0 days 00:00:02.354267567,-3.404188951,1.3802598715,-2.066999951833333,-1.0406081379,0.32207845900000004,1.74592793
0 days 00:00:02.374267567,-4.2658046487500005,2.1158534290000004,-2.66380977625,-0.67851805685,-0.7846557982500001,1.525252998
0 days 00:00:02.394267567,-5.335994482,2.4143580195,-2.6285157205,-0.5243256116833334,-1.352505525,1.469715198
0 days 00:00:02.414267567,-7.283752322250001,2.1314067244999997,-1.48414826425,-0.108886648,-2.60442203275,1.4594323037499999
0 days 00:00:02.434267567,-8.45503854775,1.55772751575,-2.53579372175,0.25503604854999995,-2.49538260675,1.543426216
0 days 00:00:02.454267567,-8.3234333995,-0.03389833371666665,-2.6424738664333334,0.8084795475000001,-3.0376777649999998,1.4930298925
0 days 00:00:02.474267567,-8.98504924825,0.138185501225,-0.45822554822500006,0.9944878817,-3.413665056,1.487532139
0 days 00:00:02.494267567,-10.15513897,1.062413216,0.9738788009,0.7767145683616667,-3.5666867893333336,1.5871030791
0 days 00:00:02.514267567,-15.318251844999999,1.18803644225,2.985644504225,0.05268708593,-2.340681195,0.696004048
0 days 00:00:02.534267567,-15.5479633775,0.842273578175,3.9487556815,0.032528548732499996,-0.92240582765,0.380950540325
0 days 00:00:02.554267567,-13.50708516,1.7375880974833333,1.0492527683333333,-0.030848674450000002,-0.06154462695000001,-0.029245138150000016
0 days 00:00:02.574267567,-10.7844514825,1.3818551005,-0.39122650775,-0.2270889878,-0.6594285481,-0.9255364832499999
0 days 00:00:02.594267567,-9.1800642025,1.8508482575,1.3567304462,-0.12451460706666666,-1.0900373160833332,-1.06119936675
0 days 00:00:02.614267567,-7.448258758,1.293320640825,2.979064107,0.428674373825,-2.00806525325,-0.820925876525
0 days 00:00:02.634267567,-8.3784683945,1.532004669275,4.15633285025,0.10552689437499999,-2.14138650875,-0.730976045125
0 days 00:00:02.654267567,-9.7946208315,1.3742777904,3.800998826666667,-0.2028071135,-1.8706207279999998,-0.5985711217
0 days 00:00:02.674267567,-9.91226792175,2.50408881925,1.5421742054,-0.0291687948575,-0.842535264875,-0.20227259956750002
0 days 00:00:02.694267567,-8.731410027,1.667797327,0.7776673436,0.13866630386499998,-0.2677114854166667,0.019929464285000004
0 days 00:00:02.714267567,-10.15274620425,3.6598222855,0.71485577525,0.0797178522,-0.211664643125,0.254501533685
0 days 00:00:02.734267567,-10.4021978375,3.4121651057499998,3.15972223895,-0.2000582144,-0.114079002255,0.9537889660000001
0 days 00:00:02.754267567,-9.846864063833332,5.515456160166667,2.9092734653333334,-0.29749114815,0.11468986424,1.060537577
0 days 00:00:02.774267567,-9.98106122025,5.2540402415,3.1974092130000002,-0.07513637061775,-0.010690131214999999,0.794811442575
0 days 00:00:02.794267567,-11.223534585000001,4.3716869355000005,4.454239368500001,0.2372191549238333,0.10308343234999999,0.2766962995166667
0 days 00:00:02.814267567,-12.5485599075,5.425725460000001,2.755335271,0.2591593936,0.78267050535,0.16668972370000001
0 days 00:00:02.834267567,-12.9685006125,5.87019228925,2.17806679,0.2101374865,1.906967163,0.3110065162
0 days 00:00:02.854267567,-12.459826148333335,4.763711293666667,3.263810118,0.0959057715,2.9402449129999995,0.033063046650000004
0 days 00:00:02.874267567,-10.3836536375,4.3148576025,0.6418747310000001,-0.1685986789,3.9574875235,-0.7263945751
0 days 00:00:02.894267567,-10.357332705,2.922832847,-4.614558458,-0.3764963150333333,2.9279258645000006,-1.7085124154166664
0 days 00:00:02.914267567,-10.9860472675,1.159322545,-3.73878538575,-0.4080576599,2.723082542,-1.87283504
0 days 00:00:02.934267567,-11.26540947,0.756131947,-3.43609333,-0.28512112612749996,2.27027900485,-2.0218860207500002
0 days 00:00:02.954267567,-6.1870419185,-0.13359926888333334,0.9156534574166667,0.0681114234,0.7832813560999999,-2.5209624765
0 days 00:00:02.974267567,-4.90109908575,-0.343968261025,0.869791045875,0.05253437161,0.6546943188,-2.57288599
0 days 00:00:02.994267567,-4.342973232,-0.837487936,1.899901152,0.05253437161,0.6546943188,-2.57288599
0 days 00:00:03.014267567,-4.7647080420000005,-0.34217363965,-0.70588269825,0.22495096175750004,0.20631957059999995,-1.7581451087
0 days 00:00:03.034267567,-4.9680979255,-0.04067798458475,-1.3357932567500002,0.7422007322,-1.138804674,0.6860775352
0 days 00:00:03.054267567,-4.402793645833333,0.3676970780478333,-1.9002999265,0.7422007322,-1.138804674,0.6860775352
0 days 00:00:03.074267567,-5.1792646645,1.2011969387,-0.6574279665000002,-0.12553270907499997,-3.9403832557499996,3.18481992205
0 days 00:00:03.094267567,-8.563912153,4.4841496945,4.528416872,0.11209368458333334,-4.0455029805,5.6207449435
0 days 00:00:03.114267567,-6.7872413394999995,11.0817598095,1.5397813841499999,0.1475238427625,-3.54805541025,6.015109062
0 days 00:00:03.134267567,-5.960521221,12.94756317,0.1866401732,-0.2658788971625,-2.78141999225,5.82329761975
0 days 00:00:03.154267567,-7.1461648145,10.883753457333334,4.770490869866666,-0.7082977294999999,-3.11220324,4.1301332715
0 days 00:00:03.174267567,-11.1248304845,8.49511861775,5.411368370250001,-0.5400044918,-2.757596254,3.67626071
0 days 00:00:03.194267567,-15.47916937,4.5511487724999995,6.3912293909999995,0.34798929098333337,-1.0173443655166667,3.7729808095
0 days 00:00:03.214267567,-14.625530242499998,5.2301122545,5.17806839925,0.4845684804,1.159726753925,3.8051530125
0 days 00:00:03.234267567,-13.2610230475,5.9324054715,2.676970303,0.1093447953,2.280816317,3.594404697
0 days 00:00:03.254267567,-8.507680973333333,6.581458727333334,3.8975091381666664,-0.19608759135,1.4964659812,3.4487134215000004
0 days 00:00:03.274267567,-5.41435951,6.4504517315,4.3112680915,-0.1285870346355,-0.3741546869249999,3.0469171402499997
0 days 00:00:03.294267567,1.2669996025,5.444868087500001,3.9936209915,1.095789568581,-2.97251898045,2.8821363449999997
0 days 00:00:03.314267567,-0.04307079315000001,4.123431623,3.2829526665,1.639561027,-3.90693849325,2.90825080875
0 days 00:00:03.334267567,-4.0989053248000005,3.0059833525,3.89910465525,2.780198276,-5.208996773,3.1832926867499998
0 days 00:00:03.354267567,-4.2305104133333336,2.3393828671666665,3.11984199315,3.4336708785000005,-3.978409529,4.0736280680000005
0 days 00:00:03.374267567,-1.1449656078250001,0.978664413325,0.2691925466,3.5098763109999997,-2.5146247744999997,4.66296005275
0 days 00:00:03.394267567,0.5407779142,0.9284151792499999,-1.45962178715,3.2737261851666664,-1.8229732018333333,4.653440713833334
0 days 00:00:03.414267567,1.542772367925,1.66779737205,-2.5531417725,2.5880813299999996,-0.7347176354075,4.418308496750001
0 days 00:00:03.434267567,3.1393833457499998,5.052445143749999,-4.64267396925,1.894902587,-0.04291325063,4.12463522
0 days 00:00:03.454267567,17.5318128275,24.173490845333333,-18.946369650666668,0.17562365550000006,-0.9375247023150001,2.1830015855
0 days 00:00:03.474267567,17.30608987875,28.2047987,-8.127222062500001,-1.543655276,-1.832136154,0.241367951
0 days 00:00:03.494267567,3.8679978251500002,19.94058752,17.1960200095,0.6473130189999999,3.2894561293333333,-2.862334229
0 days 00:00:03.514267567,-0.5359922647,10.42552853,1.856830359,0.9827286902,3.334405571425,-2.5767040364000002
0 days 00:00:03.534267567,2.728416055325,7.0103722820000005,-2.6440688969999995,0.22388195985000003,-0.17104214422500005,0.4342485033
0 days 00:00:03.554267567,5.636692603666667,9.620343446,-1.043669382666667,-1.127656341,-1.87306416,1.309770465
0 days 00:00:03.574267567,4.9866422415,10.534999610749999,5.2354960445,-0.2273944039875,-0.522900257175,0.35865398778
0 days 00:00:03.594267567,2.6847469805,8.653643131,1.3148560822500002,0.46568259225833336,0.5061523839666667,-0.15518510279333333
0 days 00:00:03.614267567,1.8526428940000002,8.787641286749999,-0.5904289782500001,0.7764091492,0.8403972387,-0.4208094776
0 days 00:00:03.634267567,1.3363913895000001,9.4061858655,0.42173500355,0.724638357775,0.756861478075,-0.43256862465
0 days 00:00:03.654267567,1.0049854914,9.860822041833334,1.73918320715,0.41996954379999996,0.5639809071999999,-0.43333220484999996
0 days 00:00:03.674267567,1.4243276417500002,9.8051891325,1.0935199409,-0.13759729265,0.3935496211,-0.39148795602500003
0 days 00:00:03.694267567,1.490728498,9.710074425,0.9355936646000002,-0.26572618135000003,0.20957751573333336,-0.3916915754166667
0 days 00:00:03.714267567,1.537388563,9.641879081999999,0.9445667267,-0.1734855938525,-0.28588470439999997,-0.38568474352500004
0 days 00:00:03.734267567,1.552941918,9.619147301,0.9475577474,-0.01588248461,-0.1534797698,-0.3279580176
0 days 00:00:03.754267567,2.2317059235,9.1573321025,0.7441678345333332,0.125227276245,-0.03924806042,-0.3108538091
0 days 00:00:03.774267567,2.0991035699999996,9.083752870249999,0.8967102765749999,0.25488333402499996,0.103388862715,-0.257097717325
0 days 00:00:03.794267567,2.143969059,9.444471359,0.9595218897,0.2204203804,0.22515457621666668,-0.18216496949999997
0 days 00:00:03.814267567,1.97886434175,9.60778141025,0.7100701034249999,0.243124187,0.2784016132,-0.1666897237
0 days 00:00:03.834267567,1.6582261025,9.47198867825,0.626919508,0.285884723075,0.30253077295,-0.14576760491
0 days 00:00:03.854267567,1.513859093,9.747561613833334,0.3796611875,0.4349357337,0.43050694465,-0.06681333296
0 days 00:00:03.874267567,1.357328608475,9.765109062250001,0.2679961342075,0.4557051361,0.4860956371,-0.05062541738
0 days 00:00:03.894267567,0.7680960595999999,9.3116693495,-0.025124642985,0.5200495371999999,0.36280276871666667,0.0023161958290000006
0 days 00:00:03.914267567,0.47676991669999996,8.944370746499999,-0.32542387765,0.5719221383249999,0.245414935025,0.0607046866775
0 days 00:00:03.934267567,0.193818632525,9.222536802,-0.16390834933999998,0.581543266775,0.14599668235000002,0.1136972066
0 days 00:00:03.954267567,0.06899305308999999,9.483553886333333,-0.13678969070666666,0.5540543795,0.1501200199,0.1503490955
0 days 00:00:03.974267567,0.04606183802500001,9.583254337500001,-0.7256234587499999,0.49403689055,0.16569707170000003,0.111406466
0 days 00:00:03.994267567,-0.25244278459999997,9.439685344499999,-0.9810573162999999,0.35908667739999994,-0.04281143843333333,0.008832087118999998
0 days 00:00:04.014267567,-0.744766026725,9.20100092925,0.06640081854999999,0.2632827163,-0.2072358727,-0.02619082667
0 days 00:00:04.034267567,-0.7758727520500001,9.6275219915,0.371485725075,0.281150512425,-0.09086613352499999,-0.02160934102775
0 days 00:00:04.054267567,-0.6895317335833333,10.423933030666667,-1.04845511435,0.30359978975,0.20693044365000002,-0.0313831786605
0 days 00:00:04.074267567,-0.5347958430749999,10.424929855,-1.3226327301,0.19593487307500002,-0.168293245125,-0.08972076515499999
0 days 00:00:04.094267567,-0.23808585105000002,9.4337034225,-0.3900300786,0.17155119031666666,-0.24480405820166665,-0.10672316703333333
0 days 00:00:04.114267567,-0.10109675395500001,9.445667505500001,-0.26321050155000003,0.19883648305,-0.036193735907499996,-0.10926843341749999
0 days 00:00:04.134267567,-0.04426721856,9.96670436975,-0.18723837285,0.3048215136,0.120034927475,-0.0139735322425
0 days 00:00:04.154267567,0.0801595505333333,10.618549343333333,0.15553347268333334,0.4276053309,0.1269071549,0.05199986324
0 days 00:00:04.174267567,-0.8398807645,10.35135078,-0.2871387303,0.476627238075,0.28038694340000003,0.08956804781
0 days 00:00:04.194267567,-1.07318094375,9.985249040500001,-0.2763710171,0.47331839301666667,0.26822055507500003,0.13202315075
0 days 00:00:04.214267567,-0.917049273875,9.637093067,-0.39481572805,0.357050470975,-0.1186604816375,0.26870414615
0 days 00:00:04.234267567,-0.60239310565,9.754341602,-0.541974306075,0.28771730137499996,-0.356592312425,0.22853978352499998
0 days 00:00:04.254267567,-0.335792776215,10.0574324955,-0.5710869928500001,0.19456043095,-0.5080868006,0.24106251449999996
0 days 00:00:04.274267567,-0.004785643892499997,10.167103292499998,-0.6550351828500001,0.1472184062,-0.5780308247,0.2572504282
0 days 00:00:04.294267567,0.1531406492,10.09531879,-0.8183453679,0.13082686873666668,-0.6060287853333334,0.21978405552666666
0 days 00:00:04.314267567,0.075972118415,9.582058429,-0.7950153351,0.062002775265000004,-0.7652608304999999,0.03901898861
0 days 00:00:04.334267567,0.24765713420499996,9.441480160000001,-0.650847747925,0.1014035568,-0.8229875565,0.05871937796
0 days 00:00:04.354267567,0.5890331516666667,9.013762632833334,-0.048654054599999996,0.22357651220000005,-0.7124210298500001,0.03764454275
0 days 00:00:04.374267567,0.42053857445,8.446065664,-0.649651341,0.42959064992499996,-0.38194320355,0.0669660540275
0 days 00:00:04.394267567,0.38404802974999996,8.758927345,-1.4189438220000001,0.38117961586666665,-0.3157661905,0.19321144369833332
0 days 00:00:04.414267567,0.1447657700525,9.53838896725,-0.86739823215,0.34193155914999995,-0.3515526876,0.2378554791
0 days 00:00:04.434267567,-0.0753739103825,9.9032948015,-0.537786901,0.28130324185,-0.41340275112499997,0.31283912807500003
0 days 00:00:04.454267567,-0.1706880120166667,9.853643894,-0.5535396436833333,0.3152062297,-0.2897026241,0.3329976499
0 days 00:00:04.474267567,-0.34815569225,9.48574733725,-0.81714892385,0.3152062297,-0.2897026241,0.3329976499
0 days 00:00:04.494267567,-0.123230369765,10.393225193500001,-0.60299128295,0.34595309696666665,-0.2312632253,0.3550906032166667
0 days 00:00:04.514267567,-0.05982056633,10.82512951,-0.5072783828,0.4263836145,-0.2371682525,0.360486567
0 days 00:00:04.534267567,-0.0544367162525,10.502098562499999,0.056231334775,0.42424558845000004,-0.11682789030000001,0.4104247689
0 days 00:00:04.554267567,-0.04187439754333333,10.409576258333333,0.9587242800499999,0.38392850755,0.3119991869,0.5599339306
0 days 00:00:04.574267567,-0.74177502095,10.806585312500001,1.2951152327500002,0.147981991985,0.42607817800000003,0.576580002875
0 days 00:00:04.594267567,-1.0648060741499998,11.294123175000001,2.1990039945,-0.0680096137,0.40332346410000003,0.6032035251166666
0 days 00:00:04.614267567,-2.1828524170000003,11.455040215,2.43350064725,-0.8950696438250001,0.217926010525,0.7123446762250001
0 days 00:00:04.634267567,-2.3407786484999997,12.510274890000002,1.8149559797500001,-1.31106853475,0.16798781606750002,0.692491605875
0 days 00:00:04.654267567,-2.1595223548333333,13.410574595,2.4151555898333332,-1.8044945,-0.03130681813,0.5944477916
0 days 00:00:04.674267567,-1.412961810825,12.846466302499998,3.18006122075,-1.8044945,-0.03130681813,0.5944477916
0 days 00:00:04.694267567,-0.2967100143,11.38744259,2.591426849,-3.330129325,-0.46298460410500003,-0.51528991265
0 days 00:00:04.714267567,0.1932204291,11.380264279999999,-0.025124639350000033,-3.63113296,-0.5146535858250001,-0.9988403023750001
0 days 00:00:04.734267567,0.286540523125,12.8656091675,-1.3890335557,-3.61876297,-0.4106538594,-1.783648849
0 days 00:00:04.754267567,1.1345967600333333,15.921842419999999,-0.39042889566666666,-2.8582363130000004,0.09025527535,-1.8529819850000002
0 days 00:00:04.774267567,1.70249333975,16.4883432425,-0.19142580775,-0.7525854111000001,0.883463189,-2.385045171
0 days 00:00:04.794267567,1.4344971952999999,15.087943555,0.38165521630000004,-0.9415462412999999,0.6383027732166666,-3.1089199785
0 days 00:00:04.814267567,-1.7964115351,11.670393945,2.5627130565,-1.37765276425,0.7087558358499999,-3.07562786375
0 days 00:00:04.834267567,-1.622333765,9.35832905825,0.8578269182749999,-2.0749548675,1.41812255975,-2.3751186730000002
0 days 00:00:04.854267567,-0.0007976143933332939,7.562117100166667,-1.5852450327166665,-1.2131774425,1.973856807,-1.4128538965
0 days 00:00:04.874267567,1.4303097281000001,5.3425745965,-3.1483564372500004,-1.037248373,1.652236462,-1.227151036
0 days 00:00:04.894267567,0.13758727910000002,4.37288332,-1.82213442005,-1.0518073038333333,-0.6786198615000001,-1.2284745175
0 days 00:00:04.914267567,-1.0151550170499999,4.9698925015,0.9236295299749999,-0.9983057823250001,-2.4119995235,-1.1260528265
0 days 00:00:04.934267567,-1.82392910125,5.418546915,2.53519561925,-0.6950113773,-2.6642867925,-1.0970368085
0 days 00:00:04.954267567,-0.9332008159999999,4.101696888833334,2.0977079375166667,-0.5583303868999999,-1.7676899435,-1.01884609465
0 days 00:00:04.974267567,1.8083756865000002,3.6622151135000003,0.747158877525,-0.14309506957749998,-0.77763085075,-0.6433169544
0 days 00:00:04.994267567,3.0759735105000003,3.041277528,0.61734823885,0.086131930975,-0.6867647270499999,-0.50683958335
0 days 00:00:05.014267567,3.649054527,2.560320139,0.9738788009,0.6328558922,-0.8425352573,-0.3322340846
0 days 00:00:05.034267567,0.8925228444150001,3.21535545625,3.0520452704750003,0.8384118974,-0.870176881525,-0.25312709481999995
0 days 00:00:05.054267567,-0.5555336469633333,4.040679852,4.3760738770000005,1.4550799129999998,-0.9531017542,-0.01580612548
0 days 00:00:05.074267567,-2.6303102972500003,6.67178785825,5.6075798275,1.5861103834999999,-1.40437814605,0.13217586233
0 days 00:00:05.094267567,-6.634100675999999,14.167902945499998,8.8450686955,0.9008219044166667,-1.8612540366666668,0.06543888835
0 days 00:00:05.114267567,-10.14437174675,23.169701099999997,11.0021984575,0.5025889799250001,-1.57969628295,-0.737237430225
0 days 00:00:05.134267567,-17.43171334,22.1204481125,11.153544185000001,-0.26847507057500003,-0.430506967045,-3.0165266395
0 days 00:00:05.154267567,-8.3529452475,8.868996858333334,7.5808608526666665,-0.40866853299999994,-0.6968439968899999,-2.2109487055
0 days 00:00:05.174267567,-2.313261374525,3.5587254165,6.1501522067500005,-0.1896735113175,-1.3035854699999998,-1.33802291725
0 days 00:00:05.194267567,-0.23569302260000002,4.152743697,3.418147087,0.161268292675,-1.0503311159,-1.1168898688666664
0 days 00:00:05.214267567,-0.5934200063,13.054043772,0.932004444175,1.5267037752500001,0.3000873327,-0.072616539925
0 days 00:00:05.234267567,-0.225523531425,16.910675284999996,-2.1942183002749998,1.8661919535,0.717766135925,1.194011583925
0 days 00:00:05.254267567,2.705883582166667,14.823536078333333,-5.275376200666667,1.618791699,0.8904881476999998,1.876652956
0 days 00:00:05.274267567,3.122633457,10.04985523,-2.964707375,1.040608152675,-0.629190683575,1.24853128225
0 days 00:00:05.294267567,1.7503497152499998,8.4873418795,-1.92143663785,0.7343612710666667,-1.3938406906666667,0.8304452201666667
0 days 00:00:05.314267567,-0.3900301084000001,6.96251571175,-1.2245270159250001,0.643851473925,-1.279303550875,0.99181531375
0 days 00:00:05.334267567,-1.030110120925,7.35015285025,-1.9986051025,0.409584835175,-0.774576529875,1.67170777925
0 days 00:00:05.354267567,-0.3565305570833333,9.2362950645,-2.4566311840000004,0.2474002391,-0.9622647464999999,2.07762748
0 days 00:00:05.374267567,0.6045865216666667,10.79162979,-1.2474582194333335,0.2691877384666667,-1.3656391303333333,2.2594615616666665
0 days 00:00:05.394267567,0.2847459016,10.481759546500001,3.5174492598500002,1.5567889066,0.07773256300000009,2.0125703214999997
0 days 00:00:05.414267567,-0.5072783828,9.664610863,6.388836384,2.661537886,1.914908409,1.790521026
0 days 00:00:05.434267567,-1.8981066197,8.5860459805,-1.4231313465,2.56059247275,1.382081594225,1.7744858267499999
0 days 00:00:05.454267567,-2.865405122333333,8.270392417833333,0.7477570869833333,2.257756233,-0.2163988501,1.726380229
0 days 00:00:05.474267567,-1.249053478,9.092725754,0.8183453679,2.05158939975,0.3558287285,1.31450468275
0 days 00:00:05.494267567,-1.004985541,9.133403778,1.5206388534500002,1.5293000141166668,0.6163116519333333,0.71580627555
0 days 00:00:05.514267567,-0.534795850525,9.477372407499999,-0.04007977242499994,0.7666352987,0.1684459597,0.6201041341
0 days 00:00:05.534267567,-0.11126624920974999,9.190832138249998,0.215952217575,0.5815432704775,-0.14324780172500007,0.5958222598
0 days 00:00:05.554267567,-0.015553347527500002,9.044072310499999,0.452642261365,0.02626718581,-1.078329086,0.5229766369
0 days 00:00:05.574267567,0.04007977622500002,9.070592403500001,-0.48753762535750006,0.46975501252749996,-0.13866630935000002,0.18211406655999998
0 days 00:00:05.594267567,0.6209374666,8.963513851,-1.1796615722,0.6956731676833333,0.005650502936666663,0.10830123102
0 days 00:00:05.614267567,0.7298108935,8.513663292,-0.5527420044,0.904385313425,-0.40653050692500003,0.4597521052
0 days 00:00:05.634267567,1.917847320625,8.650053978,0.03409772362500001,0.9454659521750001,-0.56214832515,0.877430915875
0 days 00:00:05.654267567,0.11046864091333337,10.089735508333334,1.5772689032166667,0.72448560595,-0.210290199621,0.9050725400499999
0 days 00:00:05.674267567,-1.2807583215,11.1194467575,1.2771691084999999,0.6579013467,-0.008704823442,0.8754456043
0 days 00:00:05.694267567,-1.109073281,11.035697935,1.4297115205,0.47006043794999997,0.22240568992633336,0.8922443787166667
0 days 00:00:05.714267567,-1.2640085222500002,11.5675032125,0.9146564453250001,0.30207262749749997,0.3152062297,0.9200387299
0 days 00:00:05.734267567,-1.32801652,11.77508068,0.8039883971,-0.08918625861,0.454941541,0.9933425188
0 days 00:00:05.754267567,-3.097907741833333,11.911870163333333,1.8779669503500003,-0.37323838845499996,0.8129083065000001,0.8244383931
0 days 00:00:05.774267567,-3.7674992082500003,11.631510734999999,1.1030912995,-0.6572905183,1.170875072,0.6555342674
0 days 00:00:05.794267567,-4.122833252,11.8971138,-3.146561861,-1.842368096383333,0.8547525504166668,0.145971228675
0 days 00:00:05.814267567,-4.69890558725,14.668002367500002,-0.08135597404999984,-2.43628138325,0.345291316475,-0.4313469083025
0 days 00:00:05.834267567,-1.335793290275,16.1264278875,1.55054910515,-3.506974697,-0.9934188724,-1.857563496
0 days 00:00:05.854267567,1.09152596405,13.722438811666665,-0.5910272003333334,-3.5387396810000005,-1.4567597807,-2.7613378765000003
0 days 00:00:05.874267567,1.4135600027500002,13.4123690125,-1.364507139,-3.68183475725,-2.90786904075,-3.98444193575
0 days 00:00:05.894267567,2.002792597,17.63031721,-0.4438686375,-3.718944788,-3.237125158,-4.090885162
0 days 00:00:05.914267567,2.371287346,21.22912216,1.39022994,-3.718944788,-3.237125158,-4.090885162
0 days 00:00:05.934267567,2.371287346,21.22912216,1.39022994,-2.63191090525,-2.472933325675,-3.88945245725
0 days 00:00:05.954267567,1.0975079934,13.093924045,1.4237294988333336,0.629190743,-0.18035782869999997,-3.285154343
0 days 00:00:05.974267567,0.5096712112,8.92283535,2.002792597,0.629190743,-0.1803578287,-3.285154343
0 days 00:00:05.994267567,1.7072789671,7.167700052,-0.7561318875,-1.1328487593333334,0.9454659419999999,-1.554167211
0 days 00:00:06.014267567,3.4971102474999998,6.0855460165,-4.9669016005,-0.5312996357750001,-0.29000805697500004,-1.1036035714999999
0 days 00:00:06.034267567,3.2045877574999997,5.1541399955,-6.2979091405,-0.655152499575,-1.7927354575,-1.3274855015
0 days 00:00:06.054267567,1.32881418835,2.9643084208333335,-2.000000894,-1.1414008735,-2.6106834410000004,-1.336495757
0 days 00:00:06.074267567,0.38943187895,2.56809693575,1.9238294365,-0.7786998749,-2.5902193785,-1.14712768775
0 days 00:00:06.094267567,0.8470592202499999,2.2600209715,2.3138595225,0.13479749363333335,-1.9104286826666665,-1.1808270415
0 days 00:00:06.114267567,3.00957268475,2.8384858965,-0.05802594114999998,0.33597562464999997,-1.382845140725,-1.1425461918750002
0 days 00:00:06.134267567,3.553341627,3.136990547,-0.9571290612,0.4789179862,-0.1925751269,-0.9803616405
0 days 00:00:06.154267567,3.6071801186666668,3.1230323311666663,-1.4855440560333335,0.4789179862,-0.1925751269,-0.9803616405
0 days 00:00:06.174267567,2.95274312805,2.99521571375,-0.7046862545000001,1.0713041203,-1.1725549477250001,0.009697474500000025
0 days 00:00:06.194267567,0.9571290612,2.620140791,1.954936147,1.7824016408333332,-2.2561781804999996,0.6741656214166666
0 days 00:00:06.214267567,1.0468599048,5.9078790545,4.19820728875,1.885128736,-2.407570839,0.7410553098
0 days 00:00:06.234267567,1.076770186,7.003791809,4.945964336,1.67315864525,-2.25454920525,0.726699993025
0 days 00:00:06.254267567,-2.769692282333333,14.455440518166668,10.724631072666666,1.5867213009999999,-0.15256345249999992,0.32963790463000003
0 days 00:00:06.274267567,-4.45244479225,16.4745841,7.92443037175,2.136194229,1.490357399,-0.02435823344
0 days 00:00:06.294267567,-9.6035935905,17.10628891,-1.6869399847000002,0.63204143445,3.0918412410000005,-2.0623049275733334
0 days 00:00:06.314267567,-10.584052565,7.12283468275,4.3974096624,-0.407141365075,1.38895380535,-2.155360103
0 days 00:00:06.334267567,-10.10728264,4.113262177,5.673382282,0.06918043645,0.283593982475,-0.8824705261749999
0 days 00:00:06.354267567,-5.389035423666667,2.206182459966667,6.077769756166667,0.8906408548,0.3541488647,0.1845575273
0 days 00:00:06.374267567,-3.830909014,8.28155899,-1.548156261,2.14092835795,0.03848448581,1.653840087575
0 days 00:00:06.394267567,0.16031920900000016,17.44008732,-5.8875401005,2.2199844421333332,-0.6237438433500001,2.0846524836666664
0 days 00:00:06.414267567,6.11844742275,22.0367002475,-6.242874383,0.5314523578,-3.408778191,1.789910197
0 days 00:00:06.434267567,6.7686970235,8.056035756,14.964114664,0.488080956075,-1.71240669525,1.59000468235
0 days 00:00:06.454267567,6.0753767094999995,4.659623304666667,17.109479584000002,0.1206457876,2.811046958,0.7789289355500001
0 days 00:00:06.474267567,2.188834547925,7.9645102027500005,-5.438287854,-0.499687397875,0.7394517922,0.277103539575
0 days 00:00:06.494267567,0.50129633765,6.912864685,-5.322834015000001,-0.7597121696666665,-0.2080503676666667,0.21174100788333336
0 days 00:00:06.514267567,0.1004985496,7.300501823,-4.778466702,-1.421482325,-2.435670614,0.3690386713
0 days 00:00:06.534267567,-0.034097721807499995,9.80040359825,-2.0614166857500003,-1.421482325,-2.435670614,0.3690386713
0 days 00:00:06.554267567,-0.2811566665083333,9.996814493166665,-0.4231308301666667,-1.4214823250000002,-2.435670614,0.3690386713
0 days 00:00:06.574267567,-1.292124271,6.812366009,3.239881754,-0.2820668091125,-3.21864658625,0.7822886928999999
0 days 00:00:06.594267567,-1.5541383025000002,6.5060846805,2.128415704,0.2906698200416667,-3.118821104833333,0.8819614648833333
0 days 00:00:06.614267567,-1.4285151062499999,8.10748124125,0.67417778085,1.255327106,-1.314733744,0.6915752888
0 days 00:00:06.634267567,-0.836291506875,9.497113227749999,1.07497556495,1.3483312729999999,-0.6843212845,0.51167561116
0 days 00:00:06.654267567,-0.34416763991666666,9.76510938,0.9076773820833335,1.6841542125000002,1.6775873900000002,-0.27298021318000004
0 days 00:00:06.674267567,1.196411356025,9.7028956415,0.06520439687500001,1.89261183175,2.0470077995000002,-0.8730021566249999
0 days 00:00:06.694267567,0.7513462901,9.265008926,2.62253356,2.1600178683333335,2.074853063,-0.9404518008166667
0 days 00:00:06.714267567,-1.1742776779750002,8.37128972975,0.49770709135,3.28232908275,2.3150248525,-0.50755225817
0 days 00:00:06.734267567,-1.36929273625,8.03390193,2.9282167627,3.396408081,2.111606836,0.02756527252
0 days 00:00:06.754267567,0.9276175923666666,8.183852354499999,0.6081757669166666,2.1578797996,2.164446592,0.64178980976
0 days 00:00:06.774267567,-0.33020951234999996,10.478768825,0.428315248325,0.9193515182,2.217286348,1.256014347
0 days 00:00:06.794267567,-1.6965112089999999,10.01515913,0.26799613235,-0.42404195663333333,0.20754129433333332,1.1974731486666668
0 days 00:00:06.814267567,-1.52303162225,10.8705933125,1.2885350135750002,-0.5064068957975,-0.2761108838,1.1449896695
0 days 00:00:06.834267567,-2.13798710675,9.848260165,1.015155002375,0.1502727344575,-0.3211621642,1.008766785325
0 days 00:00:06.854267567,-2.9092735051666665,9.407382170333333,-1.6354943020833332,0.34910921749999996,0.33612835404999997,0.97745999695
0 days 00:00:06.874267567,-3.2626137135,10.2424776565,-0.2709871235000001,0.254730612,0.3932442069,0.9878447056
0 days 00:00:06.894267567,-1.5720844269499998,12.9726882,5.447260857,0.6712385862666667,1.1143700976166666,0.7243583592095
0 days 00:00:06.914267567,-0.951146959975,12.7399861775,7.145566583,1.53372877825,2.92543154925,-0.17203478863225
0 days 00:00:06.934267567,-0.901495918575,12.75673604,2.2271196395999997,1.362839341,4.410291195,-0.6608793139
0 days 00:00:06.954267567,-2.2859432001833335,13.606786253333333,0.5499504109333334,-1.630703628,2.9976662995,-1.17767092595
0 days 00:00:06.974267567,-2.4466610845,12.89611745,2.2863420845,-3.92740243675,0.6435460523000001,-2.51638114425
0 days 00:00:06.994267567,0.592223585,15.63470364,3.7363924980000003,-2.9449790318333338,0.2840012163166667,-4.027660489
0 days 00:00:07.014267567,1.97826614975,17.3844552025,0.7950152902750001,-2.5271475315,0.552374489625,-5.03528213525
0 days 00:00:07.034267567,2.070389837,20.892332555,0.552143842,-2.8066181537499997,0.32299474625,-4.80849850175
0 days 00:00:07.054267567,2.6352953511666666,25.651457153333336,4.85184682435,-2.445291698,0.5835285783,-3.9308385845
0 days 00:00:07.074267567,2.6727829131250003,24.2883462925,2.4191436466000003,-1.75134933,0.8587231636,-3.52461338
0 days 00:00:07.094267567,-1.30289193975,13.960923195,-0.7274180653000001,-2.1677554249999997,0.5736529231,-3.465054035
0 days 00:00:07.114267567,-3.6329030395,8.920443059,1.44705942225,-2.501338482,0.47143488377500004,-3.0849434435000003
0 days 00:00:07.134267567,-2.11106783175,6.0897337195,4.496113777250001,-3.04913145325,0.38637197765,-1.79815685775
0 days 00:00:07.154267567,0.8227321506333335,4.246063947666666,0.5670989950666668,-2.3118177650000002,0.29672757908999997,-1.267468095
0 days 00:00:07.174267567,-0.05922237039999996,3.4707893135,-2.309073776,-2.7666066885,-0.99418238753,-1.6416227220000001
0 days 00:00:07.194267567,0.2404786945,4.48295331,2.7840490935,-2.8619015615000003,-1.0885100863166666,-1.7405828036666666
0 days 00:00:07.214267567,2.95752885975,4.39142763625,3.26859569525,-2.306319952,0.27794347705,-1.64513522375
0 days 00:00:07.234267567,2.23369991775,4.33818733675,1.96091818825,-1.95766899,0.476474545875,-1.6678899525
0 days 00:00:07.254267567,-0.7070790927333332,4.2161536213333335,0.9978070846000001,-1.458745122,0.2735147178,-1.674304008
0 days 00:00:07.274267567,-3.158525944,4.584648132,0.1004985496,-1.458745122,0.2735147178,-1.674304008
0 days 00:00:07.294267567,-2.7792634965,2.59262329325,2.6991040072999994,-1.30867600445,0.061035588333333314,-1.4420735782333332
0 days 00:00:07.314267567,-2.03569385375,-0.919442117375,6.5880390405,-0.42287114962500005,-0.775187382635,-0.22823434509749999
0 days 00:00:07.334267567,-2.5208387075,-2.4705894290000003,6.26082038875,-0.0164933484,-0.09666935354,-0.07017309219
0 days 00:00:07.354267567,-3.995614966,0.9407781166666668,3.6550365685,-0.0164933484,-0.09666935354,-0.07017309219
0 days 00:00:07.374267567,-4.931607365750001,1.029511928575,3.5946179032499996,0.593302421775,-0.14752384090999998,-0.1017853449975
0 days 00:00:07.394267567,-6.141179323,1.64506560565,5.407779217000001,0.8649845322499999,-0.24001894645,-0.09104430597166667
0 days 00:00:07.414267567,-7.149754047,2.309073925,6.644868374,1.22875449075,-0.6667588949000001,0.0822376681025
0 days 00:00:07.434267567,-11.95753323675,0.6239285217549999,11.2211414585,1.29381156,-0.813824594,0.2829067409
0 days 00:00:07.454267567,-14.301901341666666,0.62452671364,13.681761103333335,1.29381156,-0.8138245940000001,0.2829067409
0 days 00:00:07.474267567,-13.33041525075,5.575276881675001,13.3076832275,1.29381156,-0.813824594,0.2829067409
0 days 00:00:07.494267567,-9.970891953,20.09013939,11.62433243,1.2398518725,0.4639009038333333,0.70440344515
0 days 00:00:07.514267567,4.8203413485,13.426726102500002,6.768098951000001,1.453858197,0.512210125075,1.12345670175
0 days 00:00:07.534267567,4.271786749,5.4789656995,-0.5862416024999999,2.06029424075,0.08460476807499998,2.1607051495
0 days 00:00:07.554267567,2.5710879964999998,4.345764676833333,0.8658029639999999,2.1148138645000003,1.308014214,2.1585670710000002
0 days 00:00:07.574267567,2.738585532,6.54496812875,2.115255237,2.373209715,1.949116826,2.057468891
0 days 00:00:07.594267567,3.1178478,17.679370405,2.0494526477,3.608683626,4.680598596833334,1.6344450713333334
0 days 00:00:07.614267567,0.34755747015,19.6971173325,-3.3804600314,2.83364894975,4.991070747749999,1.257694259475
0 days 00:00:07.634267567,-2.64167611295,15.055639742499999,-2.7361927035000004,1.488677472,2.1788020186574997,0.9670753329249999
0 days 00:00:07.654267567,-3.2761729558333337,9.666205882333331,-0.3605186344333333,1.001207352,-0.00565049937,1.119180679
0 days 00:00:07.674267567,-3.122633457,8.178668022,-1.80658114,1.0323614775,0.48502663298250004,2.07304590925
0 days 00:00:07.694267567,-2.224128604,8.7996053695,-2.0350956325,0.9282090363666667,0.6834049721166666,2.6150865553333333
0 days 00:00:07.714267567,-1.0761719645,9.727422476000001,-2.12004077425,0.357661321725,0.75961036235,3.7451355455
0 days 00:00:07.734267567,-1.6319050492500002,9.51206851025,-1.52841544125,0.37827802450000003,0.43310312927500005,3.77109736225
0 days 00:00:07.754267567,-4.685146649833333,10.277173519166666,0.7732805262533334,0.42088583109999994,0.3346011937,3.762392521
0 days 00:00:07.774267567,-6.989434719,9.875179291,6.340980053,0.4208858311,0.3346011937,3.762392521
0 days 00:00:07.794267567,-6.989434718999999,9.875179291,6.340980053,0.42088583109999994,0.3346011937,3.762392521
0 days 00:00:07.814267567,-6.989434719,9.875179291,6.340980053,0.4208858311,0.3346011937,3.762392521
0 days 00:00:07.834267567,-6.989434719,9.875179291,6.340980053,0.4208858311,0.3346011937,3.762392521
0 days 00:00:07.854267567,-5.697709331833334,9.464810133166667,5.168496946533334,0.42088583109999994,0.3346011937,3.762392521
0 days 00:00:07.874267567,0.760917604,7.412964344,-0.6939185858,0.4208858311,0.3346011937,3.762392521
0 days 00:00:07.894267567,-0.03589233755000006,8.480163335999999,-0.70348986985,-0.08816814673333334,0.19410227986666664,0.5609520351083334
0 days 00:00:07.914267567,-0.611964389675,11.0333054095,-0.5874379724250001,-0.1899789423,0.1660024971,-0.07933606207
0 days 00:00:07.934267567,-0.7519444972,11.837293384999999,-0.25842484462500004,-0.22403465585,0.312762755925,-0.1732565201775
0 days 00:00:07.954267567,-0.5120640247749999,12.1627171025,-0.04067798335,-0.08529199705,0.5239692479625,-0.33628106487500004
0 days 00:00:07.974267567,0.4211367965,12.83031464,0.3254238665,-0.011606430635000001,0.09208785744999999,-0.155388733355
0 days 00:00:07.994267567,0.4211367965,12.83031464,0.3254238665,-0.13026691414250002,-0.10186170412500001,-0.050319985484999996
0 days 00:00:08.014267567,2.3401805361666668,14.620146433333332,1.0368898408333331,-0.2342327063277778,0.02020943993333334,-0.11306937163111112
0 days 00:00:08.034267567,3.763910055,16.1754818,1.430907965,-0.6106611564966666,0.32910338540000006,-0.4130718447366667
0 days 00:00:08.054267567,4.6388856175,15.756737706666668,3.623929937333333,-0.9758564828999999,0.6873755753,-0.7024181187000001
0 days 00:00:08.074267567,5.271388054,13.64387512,7.180860519,-1.470504224,1.275180265325,-1.263497471775
0 days 00:00:08.094267567,2.7445674539,12.906885625000001,6.671189308,-1.601687431,1.44026649,-1.415297389
0 days 00:00:08.114267567,0.2177468538,12.16989613,6.161518097,-1.63482683875,1.8958188592499998,-1.8422918617500001
0 days 00:00:08.134267567,-2.7254249155499997,11.776874545,0.14416751299999975,-1.672853172,2.8904593285,-3.1568728090000002
0 days 00:00:08.154267567,-2.6149562596666667,11.993624371666664,-1.1860424078333334,-1.488677502,1.774409413,-3.257665396
0 days 00:00:08.174267567,3.7447674277500003,13.049856665,2.1565314530000004,-0.15500693775000002,0.782059624675,-3.05882895025
0 days 00:00:08.194267567,6.29790926,10.316654682500001,0.08494514250000007,0.03044143806666666,0.3047706112083333,-2.9393030805
0 days 00:00:08.214267567,4.256831527,10.496116396249999,-4.13479742375,-1.28693932325,0.1148425750375,-2.7906593685
0 days 00:00:08.234267567,0.47377888366666676,10.75095208,0.8901300433333329,-1.6801496013111112,0.34681847362222223,-2.930309825888889
0 days 00:00:08.254267567,-2.9659036995,7.942974448249999,-0.5479563921499999,-0.6654353638333333,1.2799144291166666,-2.450305859166667
0 days 00:00:08.274267567,-1.871187269475,6.6813589335,0.7022934407,-0.4344775677,0.86849699925,-1.8144975005
0 days 00:00:08.294267567,-0.62452672425,6.1435720925,-0.12562319660000001,-0.435546577,0.659581244,-1.6394847629999998
0 days 00:00:08.314267567,-0.8979066834,5.363512039,0.31345975387499997,-0.73120512075,0.32330018282499995,-1.59336444725
0 days 00:00:08.334267567,-1.045663476,5.06560564,0.7585247755,-1.618180752,-0.6855430007,-1.4550035
0 days 00:00:08.354267567,-0.41954156758333333,2.4765714358333333,1.6949160499166667,-1.4792090655,-0.5890263617,-0.8597157895499999
0 days 00:00:08.374267567,-0.988235756725,0.05563312025,1.417149245575,-1.340237379,-0.4925097227,-0.2644280791
0 days 00:00:08.394267567,-2.036292076,-0.760917604,0.9810572863,-0.833219558,-0.4578940520333334,0.77506013715
0 days 00:00:08.414267567,-2.7272196415,-0.818345353,1.5589239295750001,-0.25121812535,-0.137444578075,1.13796471055
0 days 00:00:08.434267567,-3.632304847,-0.288335133325,1.0767701714,1.19057548,0.8031344414,1.602985501
0 days 00:00:08.454267567,-4.521238247666667,3.0791638718166667,2.668396085366666,1.9343033429999998,0.9240856767,1.9325470324999998
0 days 00:00:08.474267567,-3.5377881417,4.9184468985,2.08654138435,2.678031206,1.045036912,2.262108564
0 days 00:00:08.494267567,1.3328021986,11.930613518000001,0.7585248351999999,2.678031206,1.045036912,2.262108564
0 days 00:00:08.514267567,2.854637384,15.3355999,2.266003132,2.4594943225,0.049632758,2.4026075002500002
0 days 00:00:08.534267567,1.3633107094999999,30.193233969999998,18.177076933,1.8570289315,-2.3292274026,2.623282492
0 days 00:00:08.554267567,-3.9904306035000006,25.39143753116667,7.542974392166667,2.01646471,-0.5071704984,2.020817041
0 days 00:00:08.574267567,-4.460221291,9.784252167,5.448457241,2.01646471,-0.5071704984,2.020817041
0 days 00:00:08.594267567,-1.2466605309999998,5.5669020415,0.38045883200000014,1.8353432662166664,1.2083414343,2.0623558163333335
0 days 00:00:08.614267567,3.13519582175,6.12323325875,-3.9535412785000004,0.1747073233,0.3590357602,1.835114121
0 days 00:00:08.634267567,5.16849672775,14.008181573249999,-2.3988047245,-0.3556760325249999,0.21746785197500001,1.413006566125
0 days 00:00:08.654267567,1.3104691505000001,14.815560341666666,0.09012966346666669,-2.1310017704999997,0.07620538774999998,-0.08605557685000002
0 days 00:00:08.674267567,-2.21934300625,10.809576515,1.75932288175,-1.5734349785,0.03940078244749999,0.38629562407499995
0 days 00:00:08.694267567,-2.194218397,9.56411171,1.825723648,-1.1524982647666666,-0.14278964449166667,0.8009200890833332
0 days 00:00:08.714267567,-1.9178473352500003,8.07278525825,-0.9074780045,-0.248927407,-0.45585785804999995,1.72103512275
0 days 00:00:08.734267567,-1.825723648,7.575676441,-1.818545222,-0.1435532272,-0.2634354234,1.787466645
0 days 00:00:08.754267567,-1.8169499362166668,7.3523463405,-1.4057832756666668,0.26175557075,-0.22434008124999996,1.741651833
0 days 00:00:08.774267567,-0.48155557722500003,8.9605226515,1.6977075935000001,1.170111462425,-0.36712973562499995,1.4360667765
0 days 00:00:08.794267567,-2.234896421,9.497113228,-1.529013634,1.7250821390000002,-0.8952732088166667,1.0122793018999998
0 days 00:00:08.814267567,-1.71266281625,9.3822574615,1.220339477,1.694538951,-0.4326449931,0.8852193952
0 days 00:00:08.834267567,-0.3541377495175,9.313463687999999,0.74775705485,1.471878722375,-0.022296570324999987,0.9148463459
0 days 00:00:08.854267567,0.3050848897583333,9.464410941666666,0.3988037754833333,0.8038980365,1.208748698,1.003727198
0 days 00:00:08.874267567,1.1958131343425,10.8508524925,0.8566304892000001,0.30543239045000004,0.318107838215,0.8708641082749999
0 days 00:00:08.894267567,-0.489332228915,13.65464258,1.15692973155,0.06536253545000001,0.06520981683333334,0.8474476237833333
0 days 00:00:08.914267567,-0.8805587292,14.71585941,1.794616938,-0.31474807855,0.357355907575,0.8152754083
0 days 00:00:08.934267567,-0.9379864782,14.523835417499999,4.1276189685,-0.3802633211,0.6786707937500001,0.17569998652500002
0 days 00:00:08.954267567,-0.7545367379333334,15.087943074999998,4.2943189938333335,-0.481972307,0.9925025702,-0.5142717957
0 days 00:00:08.974267567,-1.397408366,14.43829155,5.192425251,-1.8119775875,0.81978055835,-1.9354487804249998
0 days 00:00:08.994267567,0.9762716890000002,14.325829030000001,6.8614189625,-2.255312681,0.7622065544,-2.409174442
0 days 00:00:09.014267567,2.8456642629999997,12.881760597500001,2.67637209595,-2.255312681,0.7622065544,-2.409174442
0 days 00:00:09.034267567,1.3782657981750002,13.29033518,-2.5591237395999995,-2.255312681,0.7622065544,-2.409174442
0 days 00:00:09.054267567,1.39342037865,14.359727544999998,-3.8668014205,-1.35764692715,0.7625119686,-2.976973176
0 days 00:00:09.074267567,3.004787028,13.5565369125,-4.66361129275,-0.4599811733,0.7628173828,-3.54477191
0 days 00:00:09.094267567,5.106283665,12.662816999999999,-6.300302029,-0.44012806815,0.4925097227,-3.4609816473333335
0 days 00:00:09.114267567,0.7884351165000001,11.444272282500002,5.8331035377500005,-0.38133233042500003,-0.0824667215999999,-3.2086436745
0 days 00:00:09.134267567,-0.4983052984,9.898508788500001,1.6402800082500002,-0.5027416945,2.247218847,-3.708483696
0 days 00:00:09.154267567,0.5678965796833334,8.811968247166666,-2.7353950737833332,-0.7577777507499999,0.7884737251999999,-2.9464298485
0 days 00:00:09.174267567,0.9068797827,7.058826923,0.5623133183,-0.9106466771499999,-0.16218460327025,-1.9818744064999998
0 days 00:00:09.194267567,1.31126677985,5.443671584,0.79202431465,-0.8765909672,0.007177661173000001,-1.914373875
0 days 00:00:09.214267567,0.12741779529999994,4.042075694,0.705882668625,-0.90881407265,-0.13148864334524998,-1.7201188804999998
0 days 00:00:09.234267567,-0.29252256457500003,3.44745922075,0.675972372325,-1.0705404877499998,-0.5250382795749999,-0.9907463341249999
0 days 00:00:09.254267567,-2.3944178073166666,2.289532502166667,2.6161527631,-1.1789690255,-0.42103855315,-0.19540035724999996
0 days 00:00:09.274267567,-3.0963125824999995,1.4117653519500002,2.6207390124999996,-1.092226267,-0.3843866587,0.160122931
0 days 00:00:09.294267567,-2.9336005449999996,0.4666004180999999,-0.3684946895000001,-0.05976294231000001,-0.11611521244,1.1797580621666668
0 days 00:00:09.314267567,-2.726023197,-0.455234527575,0.830907643,1.2438734174250001,-0.392633341225,1.648800403
0 days 00:00:09.334267567,-2.8743781447499996,-1.527219101475,3.668196976,2.12947464,-0.965319097,1.777081966
0 days 00:00:09.354267567,-2.158724765166667,-0.46620164283333326,3.437688390183333,2.4291038515000003,-0.16905683275000002,2.327471137
0 days 00:00:09.374267567,1.703689694,6.020341873,-0.9451649189,2.6086981295000005,1.190269992125,3.25079321875
0 days 00:00:09.394267567,3.2673993704999997,14.5435762415,-6.1830536144499995,2.3259695368333335,0.43447754816666656,3.3867106438333336
0 days 00:00:09.414267567,6.909275293,29.1774807,-8.3611204635,1.0954332947499998,-4.370890140749999,3.36777395
0 days 00:00:09.434267567,2.90727946125,23.66980171,0.7094719407499996,1.5019637945,-3.380983799825,2.9146649835
0 days 00:00:09.454267567,-1.3862419328333333,13.830913784333333,1.0556335821266667,2.8338017465000003,0.97570377585,2.16223228
0 days 00:00:09.474267567,-3.06221473175,6.04606449625,2.425125695725,2.793484688,1.570991516,2.076405764
0 days 00:00:09.494267567,1.627119422,6.746563435,-1.5960127560500001,1.9516111415666666,2.541859309,2.1165191533333334
0 days 00:00:09.514267567,4.5738803145,10.27717304575,-3.55872541625,0.44318240137500003,1.3831505511,1.08054339165
0 days 00:00:09.534267567,1.033699326175,10.6229362475,-2.24267300975,-0.4190532267,0.2405280024,0.4130209386
0 days 00:00:09.554267567,-2.62532529735,10.337791601666668,-0.3102693459,-0.6395754069,-0.19746204465000003,0.7587703913
0 days 00:00:09.574267567,-3.19441825175,9.8799643535,-0.79322071375,-0.730441570275,-0.88743382695,1.603443712
0 days 00:00:09.594267567,-2.8342984915000002,8.688338995,-0.19262221825000003,-0.56555896995,-1.3587159809499998,1.9426263766666665
0 days 00:00:09.614267567,-1.61276245125,7.715656638,-0.412163706475,-0.52855075895,-1.3663518427499999,1.8677954675
0 days 00:00:09.634267567,-0.86799640955,7.991429329000001,-0.53898331525,-0.51083566995,-1.10001479105,1.6181044875000001
0 days 00:00:09.654267567,-0.40319061776666665,8.151947975333334,-0.3625126481,-0.3738492429,-0.6611084342,1.229136348
0 days 00:00:09.674267567,-0.27517459359,7.969894171,0.715453967475,0.6812669412750001,-0.577725350825,0.547411218375
0 days 00:00:09.694267567,1.0325030127200001,8.786444664000001,0.9487541914,1.3232349556666667,-0.17251838743333334,0.2536870539333333
0 days 00:00:09.714267567,2.89830648925,10.164710520499998,-0.2051845342,1.1850777116,0.371558502325,0.189902588725
0 days 00:00:09.734267567,2.52143692975,10.63789105,-1.189232840825,0.5876519084,0.3229947388,0.2041051984
0 days 00:00:09.754267567,0.22333013017666667,13.607583678333334,-1.2119647061666665,0.13805542885000002,-0.19685117900000002,0.56359910965
0 days 00:00:09.774267567,-0.7112665176499999,15.577275275,1.4518451395,-0.3115410507,-0.7166970968,0.9230930209
0 days 00:00:09.794267567,-0.48933223634999995,14.772090435,1.8508483169999999,-0.8367829273000001,-1.0597994923,0.16195552050666667
0 days 00:00:09.814267567,1.9884356373499998,13.4769754375,1.94476658075,-0.9326377958000001,-1.40071293725,-0.356668684625
0 days 00:00:09.834267567,4.426721870750001,12.299108744999998,4.507479667749999,-0.8930843026749999,-1.3275618629000001,-1.0051016509
0 days 00:00:09.854267567,5.890331665833333,13.70728461,6.98464942,-1.028696299,-0.37278023360000007,-1.394527912
0 days 00:00:09.874267567,6.28175783175,15.570096727500001,6.6676002745,-1.9385793805,2.0769402016,-1.89757513975
0 days 00:00:09.894267567,3.0376883745,12.76092291,1.7467605474999999,-1.9028437536666667,4.3646796541666655,-3.166850248833333
0 days 00:00:09.914267567,0.9008977412249999,10.617552045,-3.09870526175,-1.056948766025,4.466337859499999,-3.9674903747499997
0 days 00:00:09.934267567,-1.3944173454250002,11.1140627875,-6.0143595335,-0.37415468133499996,2.856251031,-3.7170357705
0 days 00:00:09.954267567,-1.8145571546666666,12.65523974,0.24526439083333326,0.40989027543,0.149203777,-3.1452664135
0 days 00:00:09.974267567,-0.69212394925,12.850055455,0.7130611835,0.9144645929,-1.286023021,-2.852051258
0 days 00:00:09.994267567,0.14356935050000028,12.284751415,1.350748301,-1.41527191785,-0.6462440019000001,-3.4466263455000004
0 days 00:00:10.014267567,-0.6197410653175,10.757532122499999,-0.30329036725,-1.599854886875,-0.06841685341999999,-3.2036040425000003
0 days 00:00:10.034267567,0.6879364904025,9.788439036,-4.0474596025,-0.8466585875,0.03649916872,-2.389015913
0 days 00:00:10.054267567,2.8175486723166667,7.208378076333333,-2.4805595871666664,-0.8466585875,0.03649916872,-2.389015913
0 days 00:00:10.074267567,3.192025423,6.73100996,-2.031506538,-0.612086489825,0.57024229228,-1.9876776935000002
0 days 00:00:10.094267567,1.5553347281849998,5.060819864,-1.18205444495,-0.7346666952333334,0.20295982558333336,-1.828649163
0 days 00:00:10.114267567,-1.3124632331575,2.72662138925,0.7369893565249999,-0.9926552772,-0.389273568975,-1.219515219025
0 days 00:00:10.134267567,-1.4590236545,1.2813564986000001,1.46321103,-1.0377065537499999,-0.567798793275,-0.5512291044000001
0 days 00:00:10.154267567,-2.4514467520000003,1.440878063466667,2.2699910998333332,-0.9422589242,-0.7264709174499999,0.2300669551
0 days 00:00:10.174267567,-3.0741789937500004,2.05782744325,1.82811656625,-0.8381064534,-0.7619010806,0.7135664225
0 days 00:00:10.194267567,-4.1012979744999996,2.8307091,-0.6807580589999999,0.5426515439666667,0.13515383499999997,1.6333251990833333
0 days 00:00:10.214267567,-2.5316063465,3.9822551015000003,-3.833900094,1.123074889,0.24144429715,2.1961352825000002
0 days 00:00:10.234267567,-0.9116654248,4.24546563625,-1.87896400675,1.6091705262499998,-0.5086976438499999,2.7101778982499996
0 days 00:00:10.254267567,1.8983060219333332,6.5407807035,4.321437398833333,2.273027897,-0.7551816105999999,3.059287071
0 days 00:00:10.274267567,5.25224578375,18.3583335875,-7.422535777249999,3.4005314705,-0.763886407,2.94887340075
0 days 00:00:10.294267567,7.312465906,36.4187603,5.8097732075,2.7224206925,-0.8544471261333335,2.0370049871666667
0 days 00:00:10.314267567,-1.4291132690000001,21.77767682,6.60718149,2.728121996,2.685208797,1.331761599
0 days 00:00:10.334267567,-3.9804605242499997,7.16231644125,0.0664008855,2.427881986,2.5011858042500004,1.540677369
0 days 00:00:10.354267567,0.048654039733333265,3.1860434213333337,-4.0618165735,0.5433642269000001,0.6669116318,2.0944262745
0 days 00:00:10.374267567,3.054438114,7.76291477725,-2.4041885735,-1.1940879228,-1.3382520226,1.422627747
0 days 00:00:10.394267567,3.5341989995000005,12.574283125000001,0.26799613215,-1.4805326066666666,-1.3671662854333333,1.0457751004666667
0 days 00:00:10.414267567,-0.1046860068499999,11.090134622499999,0.6233302655749999,-1.5282309947500001,-0.29290965947500003,0.289931707075
0 days 00:00:10.434267567,-1.54695986245,9.70110082675,1.1048858165,-1.142928004,-0.2512181401,0.6811906099
0 days 00:00:10.454267567,-1.8675980371666665,8.5439718565,-0.9411769309999999,-0.7910698949,-0.44791659710000004,1.26273387645
0 days 00:00:10.474267567,-1.994417608,8.08594584475,-0.1220339534999999,-0.4460840076,-1.3208423255250001,2.0907610654999997
0 days 00:00:10.494267567,-1.6534404159999998,7.661818027500001,1.8628124670500001,0.13245585063333334,-1.3792817193333333,2.270151654666667
0 days 00:00:10.514267567,-0.40079780297499995,8.73798990275,-0.8021938169749999,0.317955128825,-1.27365303025,2.1019093095
0 days 00:00:10.534267567,-0.2009970993,8.958727837,-1.117448211,0.5971203446,-0.987615630025,1.3844486328749999
0 days 00:00:10.554267567,-1.2000005717999997,9.292127768333332,-0.0977069295433333,0.94592410305,-0.6097957641,0.8106939196499999
0 days 00:00:10.574267567,-0.557527698575,9.72443127625,0.3152543950050001,1.08123064,-0.4399753511,0.7001274228
0 days 00:00:10.594267567,0.30508487675,10.350154400000001,0.3649054768,1.169602414,0.08149954679999998,0.5180896868
0 days 00:00:10.614267567,0.1627119333,10.54516983,-0.3445664644,1.03480494,0.1916588247,0.4557814896
0 days 00:00:10.634267567,-0.888933639675,11.60758281,-0.507876604825,0.8145881852249999,-0.08246674387499997,0.5455786064249999
0 days 00:00:10.654267567,0.9678967794999999,13.466407138333333,2.58584376195,0.12736530599999998,-0.81535175445,0.692491591
0 days 00:00:10.674267567,3.8626140955,13.564911604999999,4.25384056575,-0.0430659689025,-0.33689191934999996,-0.24824018777500007
0 days 00:00:10.694267567,3.9290149210000003,11.36112213,5.9736816885,-0.09101885557,-0.2072358727,-0.5209913254
0 days 00:00:10.714267567,3.6364921929999996,13.123435735000001,5.197210908,-0.6252200751775001,0.10629047447500006,-0.8948405385500001
0 days 00:00:10.734267567,2.60219454775,15.61615825,6.494718789749999,-2.3573271035000003,1.320689678,-2.133063376
0 days 00:00:10.754267567,2.235694011,15.741582555,5.139783024833334,-2.745837212,2.142150164,-2.48308897
0 days 00:00:10.774267567,2.35812673,14.47358561,-0.6137589812500002,-2.144288093,3.79560846125,-3.591808498
0 days 00:00:10.794267567,1.3615161185,13.073186399999999,-4.457828522,-1.2711077679666667,2.8128795623833334,-3.93939054
0 days 00:00:10.814267567,1.8562321364999999,13.255639555000002,-4.07019138375,-0.06918042152499998,-0.1424842177749999,-3.2799621820000002
0 days 00:00:10.834267567,3.52702051425,13.0187497175,-2.7355944515,0.6230821013,-1.753334641,-2.745760918
0 days 00:00:10.854267567,2.2763719756666667,15.503496961666665,5.166103958833333,-0.04856374860000001,-0.7948877957999999,-3.1055601835
0 days 00:00:10.874267567,1.53260294335,14.76371598,5.324628472,-0.74265888335,1.7652465331,-3.3792276385
0 days 00:00:10.894267567,1.7168502956999998,10.112068655,-1.8927226069999998,-0.28741188596666667,0.38815366994249995,-2.460181594166667
0 days 00:00:10.914267567,4.64865607025,6.82971406,-2.61535507475,-0.40515607962500005,0.10781763284825001,-2.0331870915000003
0 days 00:00:10.934267567,5.163711071,6.02752018,-1.794616938,-0.8857539667000001,0.45203992725,-1.5046362875000001
0 days 00:00:10.954267567,-0.8011968138333333,0.7625128229999999,0.8342974977166667,-0.4349357188,0.5679515004,-2.159330606
0 days 00:00:10.974267567,-2.993421078,1.371087432,-0.4354937077,-0.4349357188,0.5679515004,-2.159330606
0 days 00:00:10.994267567,-2.9934210779999995,1.3710874320000002,-0.4354937077,-0.5014181683666666,0.32747440535,-1.8168390911000003
0 days 00:00:11.014267567,-2.7278178337499996,1.7569300829999999,1.5206388238249997,-0.8338304162,-0.8749110699,-0.1043815166
0 days 00:00:11.034267567,-2.2480569485000004,2.4221346972499997,1.3310076,-0.764191836125,-0.81840607525,0.14378230645
0 days 00:00:11.054267567,-2.117648125,2.600998163,1.050449133,-0.31062474476,-0.55176360905,1.0929134788
0 days 00:00:11.074267567,-2.7559335235000004,2.74277293675,0.617946446,0.46043931134499994,-0.42027497295,1.540830076
0 days 00:00:11.094267567,-3.6861432795,3.5413775445,-1.3339986205,0.714202712,-0.3375536970433333,1.8181117576666666
0 days 00:00:11.114267567,0.14476573449999997,4.81196635925,3.6394832435,1.37032240625,-0.05192350829499999,2.9197044969999997
0 days 00:00:11.134267567,3.66341143875,8.596215367500001,-0.30987048149999996,2.49920058225,-0.004734203225000011,3.26285785425
0 days 00:00:11.154267567,6.731408675833333,18.153148651,-7.895915985166667,2.7669119835,-0.33826634285000007,3.0174429415
0 days 00:00:11.174267567,8.4795649078,30.038896085,-3.3966118099999996,1.4333942235000001,-1.403461784,2.387183249
0 days 00:00:11.194267567,0.5096712112,23.32523537,4.230510235,1.5501711963333333,0.9225585661666665,1.7315726083333332
0 days 00:00:11.214267567,-2.7655048367,12.019147874,0.8709873967,1.7160719035,1.249676644975,1.95209476375
0 days 00:00:11.234267567,-4.03130805475,5.81336259875,-0.29192436115,1.8536692259999998,1.012050211425,2.9584944249999996
0 days 00:00:11.254267567,-0.001994033699999953,7.290132999166667,-2.0929221260666666,0.651487277885,0.9671516419,2.7902011869999996
0 days 00:00:11.274267567,2.92702028125,10.063015460999999,-1.293320611025,-0.03848448023,0.4201222658,2.502789259
0 days 00:00:11.294267567,0.37686952939999996,10.599008085,0.021535396549999957,-0.7850630624883334,-0.32543820141666663,0.6719257930833332
0 days 00:00:11.314267567,-2.0673988315500003,10.225129605,0.480359144475,-0.7438805773499999,-0.3263544999,0.51808968185
0 days 00:00:11.334267567,-2.3353949189999996,9.717252731,0.23090738432500002,-0.3659079969,-0.1339320987,0.9249256253
0 days 00:00:11.354267567,-2.1798614263333334,9.032506545,0.44466620933333334,-0.36590799690000003,-0.1339320987,0.9249256252999999
0 days 00:00:11.374267567,-1.569691658,6.21894598,1.722832322,0.227852568,-1.0960441491750001,1.291902646325
0 days 00:00:11.394267567,-1.11505535245,7.214359998500001,0.21415764099999998,0.31663158036666667,-1.2478440502500001,1.3690243361666667
0 days 00:00:11.414267567,0.568893581625,8.764311074999998,-1.016351401725,-0.2290742993,-0.4033234715,1.143004417
0 days 00:00:11.434267567,0.372083917225,8.37129020675,-0.349352098975,-0.17195844066985,-0.573296591625,0.989219188375
0 days 00:00:11.454267567,0.17028920844999998,8.130013942666666,-0.037886356283333346,0.19730932681029997,-0.6907353401499999,0.6558396816
0 days 00:00:11.474267567,0.7603193969000002,8.308478594250001,0.6053841263499999,0.442876972275,0.229532435575,0.89377154405
0 days 00:00:11.494267567,2.1032910945,10.2771735195,-0.015553355200000007,0.4105011374,0.38947719836666667,0.87422387795
0 days 00:00:11.514267567,1.682154298,10.9806633,-0.7657032609,0.043065965175,0.16539164635,0.628198072325
0 days 00:00:11.534267567,0.573081020275,12.6999063525,-1.2161521464749998,-0.335364759,-0.2671006322,0.7331140637
0 days 00:00:11.554267567,0.009970095625,14.98584922,0.7373881341666667,-0.335364759,-0.2671006322,0.7331140637
0 days 00:00:11.574267567,0.37447675415750004,15.04367566,1.6031911375,-0.265268031525,-0.5451968014249999,0.28504476695
0 days 00:00:11.594267567,1.8281164765,14.35932827,3.1274192335,-0.45061458895,-0.5747728645833333,-0.3916915754666667
0 days 00:00:11.614267567,2.5746772289999997,14.88455343,4.5583270195,-0.7939715087000001,-0.25427247585,-0.751440025875
0 days 00:00:11.634267567,5.025326212333334,13.81057485,6.7589261535,-1.7497203746666667,0.8369356789333334,-1.6673808496666667
0 days 00:00:11.654267567,4.5332024099999995,13.521841049999999,5.1864429715,-1.8567234875,1.895055234,-2.4665955905
0 days 00:00:11.674267567,3.265006483,13.153346540000001,1.7515461447500003,-1.861915827,2.61801362,-2.959563494
0 days 00:00:11.694267567,1.9609181285000001,12.74417353,-1.9692931175000001,-2.0527092613333333,3.2008804476666666,-3.900295218
0 days 00:00:11.714267567,1.615155339,13.28973675,-1.174875975,-1.948658705,2.625954866,-4.132423878
0 days 00:00:11.734267567,2.58604302975,13.55354595,-0.577268473875,-1.3255766185,1.7095050212499998,-3.8256170154999998
0 days 00:00:11.754267567,3.4931223195,10.569097356833334,2.5072793314166666,0.6566796302500001,-0.8309287727000001,-2.856021881
0 days 00:00:11.774267567,1.605584025,9.305686951,2.060220242,-0.08704823999999994,0.45463612675,-2.832961857
0 days 00:00:11.794267567,0.7549355586950001,9.847661495499999,1.9178473355,-0.3726275264999999,0.8135191798,-2.8416666979999996
0 days 00:00:11.814267567,-0.17108681987750002,9.013164997,-1.022333503,-0.402559898775,0.6087267600075,-2.76943188875
0 days 00:00:11.834267567,-0.1962114573,8.554341316,-1.954936147,-0.4923570156,-0.00565049937,-2.552727461
0 days 00:00:11.854267567,-0.27796622615,4.3110688921666664,0.3262214858,-0.4447095543,-0.07773254508500001,-2.286695838
0 days 00:00:11.874267567,-0.5784648880000001,3.1992039085,1.170688464925,-0.397062093,-0.1498145908,-2.020664215
0 days 00:00:11.894267567,-0.94277215,3.357130051,0.6699903607,-0.6507746329,-0.5063559984166667,-1.7461824418333334
0 days 00:00:11.914267567,-0.7401798168666667,2.3776680629999998,0.7672984798333333,-0.695164144,-0.8425352573000001,-1.20943594
0 days 00:00:11.934267567,-2.026720762,1.641476393,1.696511269,-0.695164144,-0.8425352573,-1.20943594
0 days 00:00:11.954267567,-2.0235303241666664,1.6199409765,1.8213368656666666,-0.29321510715000004,-0.8403972387,-0.20700681220000003
0 days 00:00:11.974267567,-2.231905282,1.5631113647500001,2.2737798089999997,0.794582346175,-0.24999641812749998,1.14178267115
0 days 00:00:11.994267567,-3.6670007709999997,1.915454447,0.378066003,1.023198485,-0.05390881747,1.257236123
0 days 00:00:12.014267567,-4.429114819,2.115255117,-1.002592683,1.31962063875,0.2298378701475,1.7045418322499999
0 days 00:00:12.034267567,-0.09870392124999983,3.81296271075,4.6289155185,2.47766757,0.94913114585,3.167868376
0 days 00:00:12.054267567,1.7292131981666667,8.438288848000001,-0.6995019118333335,3.28400898,0.5532907844,3.532096624
0 days 00:00:12.074267567,3.84227502325,26.039892197500002,-2.3401813500000017,2.10061121025,-2.94284094865,3.1742824315
0 days 00:00:12.094267567,1.783849418,31.628329275,19.86760610435,2.458425323333333,-0.2722929466999999,2.7177119651666666
0 days 00:00:12.114267567,-2.1014964285,15.853646037499999,3.426521986675,2.99339020225,1.8177808825000001,2.53363805975
0 days 00:00:12.134267567,-1.5942180455,5.412564753749999,5.2013981345,3.342041254,1.12872541,2.356792688
0 days 00:00:12.154267567,3.3667015035,3.6331023373333338,-4.1714876495,1.7663155347000001,0.7249437871,1.9756130575000002
0 days 00:00:12.174267567,5.676971674,8.446663976,-3.5443687106525,-0.9442442584000001,-1.0079268961999999,0.748691149125
0 days 00:00:12.194267567,4.983053207,11.948559760499998,0.058624155845000005,-1.7475823763333336,-0.32034767294166666,-0.3777434975
0 days 00:00:12.214267567,-0.6675975322500001,14.1260283025,0.8566305038250001,-1.7394374910000001,0.08979711867750001,-0.358348540975
0 days 00:00:12.234267567,-3.2327033875,12.2787694975,-0.021535396699999987,-1.270904138875,0.46746425795,0.5689441935
0 days 00:00:12.254267567,-2.8985058865,10.285149416666668,-1.0771689614,-0.32803438233,-0.072234759105,1.8467205765
0 days 00:00:12.274267567,-2.65543496575,7.3543404345,-4.3722850085000005,0.11041381020999999,-0.2774853203525,2.05792707225
0 days 00:00:12.294267567,-2.804388046,5.484349728000001,-5.120640278,-0.01119918811666667,-1.4404700993833337,2.0352741481666663
0 days 00:00:12.314267567,-0.9433703123500001,5.8576298955,0.8877373337500001,0.373085661845,-1.492189973525,1.8719187379999997
0 days 00:00:12.334267567,-1.17188486445,6.94576609175,0.9254241883500001,1.5958842340000001,-0.895985886425,1.35650163875
0 days 00:00:12.354267567,-1.361914843,8.395218450833333,1.3256237109666669,1.3973531725,0.13942989709999998,1.1625520585
0 days 00:00:12.374267567,-0.02691926065,10.382457729999999,1.282552927475,0.9972367584249999,1.3232857884,1.07214406125
0 days 00:00:12.394267567,0.64486569165,11.925828455000001,-0.54915285105,0.8180497636166667,1.2454005257333334,1.0005710720166667
0 days 00:00:12.414267567,-0.20518454907499997,11.41795158,-1.6342978475,0.18035781385000002,-0.02046396957500002,0.686535656425
0 days 00:00:12.434267567,0.90029948915,12.277573109999999,-0.5503491982250001,-0.33444847915,-0.562911883,0.6060542092
0 days 00:00:12.454267567,2.0247267286666664,13.832509041666667,2.076970015616667,-0.478307128,-0.6385064125,0.3549887836
0 days 00:00:12.474267567,1.563111431725,14.010574582500002,6.7238316535,0.35781404375000003,-0.475863672775,-0.538859091725
0 days 00:00:12.494267567,0.28594231605000003,14.232509135,6.862615346999999,0.5838849345833333,1.4729477216333333,-1.2577960195833333
0 days 00:00:12.514267567,1.4386846050500002,15.2081823325,3.20937329525,-0.8545998335,2.511112452,-1.803807378
0 days 00:00:12.534267567,2.9377880395,15.5354008675,4.0396828055,-1.2701406181250001,2.27547135975,-2.19995316875
0 days 00:00:12.554267567,4.466203530666667,15.015361153333332,5.272584676666667,-2.2922701835,2.359618008,-3.9146506784999997
0 days 00:00:12.574267567,5.26241529,14.9270257975,4.707280338,-1.4566071035,3.8255408407499996,-4.7519934175
0 days 00:00:12.594267567,6.3230338095,14.371292595,1.1330015359,-1.0523164075,2.325002233333333,-3.8278059955
0 days 00:00:12.614267567,6.02153825775,10.00199890175,-5.7684970648,-1.58107075125,0.869871437225,-2.73522338225
0 days 00:00:12.634267567,4.28973281375,9.3559362885,-4.939384103,-2.47491860375,-0.20143267049000002,-2.06739547825
0 days 00:00:12.654267567,-1.1417751463666668,11.732009250833334,7.265407203500001,-2.367711782,0.05238165334,-2.412839413
0 days 00:00:12.674267567,-0.013160519275000004,10.008578775,-2.599801749,-0.75044735885,2.393978988085,-2.731252849
0 days 00:00:12.694267567,-0.14476576445,7.934599638000001,-1.1306087223499999,-0.6166679982666666,1.3486367066666667,-2.4918447331666664
0 days 00:00:12.714267567,0.45583271235,7.454240679750001,0.205782748775,-1.394604325,1.005941629,-2.46965003
0 days 00:00:12.734267567,-0.06879363952500003,6.014957905,-0.01375873012499998,-1.45263648,0.890030026125,-2.48705965275
0 days 00:00:12.754267567,-0.27437698341666666,5.2067820629999995,-0.44865424674999993,-1.6856814025000002,0.23411393164999997,-2.250044048
0 days 00:00:12.774267567,-0.68434728675,2.868396133,-1.7676977215,-1.74462986,-0.0740673542,-1.960799575
0 days 00:00:12.794267567,-1.8041882515,0.32781670965,-0.59222356985,-1.6129884721666665,-0.5868883430833334,-0.8657226364
0 days 00:00:12.814267567,-2.041077614,-0.4737788737,0.2871387303,-1.313970089,-0.5853611827,-0.4214203358
0 days 00:00:12.834267567,-2.04287236925,-1.8556338924250002,0.8883353843249999,-0.9214894846499999,-0.483957625925,-0.18119776249999997
0 days 00:00:12.854267567,-3.934597929166667,-1.9098712606666666,2.6221348641666666,0.41080655154999995,-0.1977674663,0.7505237460499999
0 days 00:00:12.874267567,-5.149354458,-2.165504456,4.814359188,1.106734261175,-0.25564689934999996,1.5640428959250001
0 days 00:00:12.894267567,-7.859225989,0.8111668825000001,1.7694923875,1.28709209,-0.2689332068,1.764864683
0 days 00:00:12.914267567,-8.074579835000002,7.26401168125,3.84825706475,1.6081015172500002,0.10949752489999998,2.22316598875
0 days 00:00:12.934267567,-6.12682223325,16.509279489500003,5.3766726257499995,3.068220973,1.93964836025,3.3996915815
0 days 00:00:12.954267567,-3.7216366928333335,20.681165695,6.051448583833333,3.7922484875,2.0584615057650004,2.2156829234999997
0 days 00:00:12.974267567,5.0344989299,22.402204155249997,6.2279189825,1.1768310071249999,0.2466366458575,1.0371720343000002
0 days 00:00:12.994267567,0.56590254605,3.454039395,-1.4428721070000001,-0.17114396395,-0.7274890393833333,0.8518254955666666
0 days 00:00:13.014267567,0.3254238665,1.488335729,1.3758729700000003,-0.4416552484,-1.331837893,0.8931606412
0 days 00:00:13.034267567,0.9762716293,4.072584152,-0.2536391914,-0.4416552484,-1.331837893,0.8931606412
0 days 00:00:13.054267567,2.07098801905,7.990831375333333,-2.2037897460666667,-0.1359174177,-0.54626581095,0.9142355025
0 days 00:00:13.074267567,2.723630428,10.883155822500001,-2.7667012812500005,0.169820413,0.2393062711,0.9353103638
0 days 00:00:13.094267567,2.5603203175,16.427924155,0.8315057755000002,-0.12186752008333335,-0.1725183874,1.0559561256333334
0 days 00:00:13.114267567,0.91824570295,13.649258615,2.3120648267500004,0.251370847225,0.067500568925,1.2964841427500002
0 days 00:00:13.134267567,0.8590233326,12.98345566,1.433300734,1.49524423475,0.87750726185,1.8885648545
0 days 00:00:13.154267567,1.1238289969666666,10.980264507166666,-0.7074779269999998,1.2867866755000001,0.22220205703999998,1.582216084
0 days 00:00:13.174267567,-0.2721835859,8.570492744750002,2.5214368628,1.230892539,0.03833176568,1.447214961
0 days 00:00:13.194267567,-0.43429730084999996,8.4717884065,-0.9798609169,1.5444697935,1.3931280209466668,1.395596961
0 days 00:00:13.214267567,-1.158126190375,8.681758404,-2.62014085075,1.382387042,1.80189836,1.279227257
0 days 00:00:13.234267567,-2.54057946825,9.27996420875,-1.4685949085,1.33244884,1.62932905525,1.286863059
0 days 00:00:13.254267567,-2.9328029853833333,9.335597674,0.14995021629999997,1.2672389745,1.249982059,1.3458114865
0 days 00:00:13.274267567,-0.801595576125,9.494719982,0.019740775200000005,1.2702932952500001,1.45385816725,1.25173828025
0 days 00:00:13.294267567,-0.5515456051,8.60219717,0.27397817370000005,1.1489348811666666,1.8376339473333332,0.895807763
0 days 00:00:13.314267567,-0.868594616675,7.52482903025,-0.35832518339999997,1.02090780465,1.8657337425,0.7523563504499999
0 days 00:00:13.334267567,-0.7292127161999999,7.0474607945,-0.401395998875,0.649349272225,1.6691880227499998,0.4686096385
0 days 00:00:13.354267567,-0.5710869928333333,6.970691045,-0.8247262092,0.42210756239999997,1.21058124325,0.25816672295
0 days 00:00:13.374267567,-0.5359922647,7.353144169,-0.4881358147,0.3268126547,0.9430224895,0.1705076247
0 days 00:00:13.394267567,-0.58863437175,8.240881204499999,0.67118674515,0.5374591996333333,0.4364119767833334,0.03815359528666667
0 days 00:00:13.414267567,-1.0091729162,8.920443058250001,0.685543678675,0.9627228975,0.4543306828,-0.02985601686
0 days 00:00:13.434267567,-1.03489577775,8.350353002750001,0.8548359049750001,0.81245016305,0.75319626935,0.06818778020499999
0 days 00:00:13.454267567,0.23928226125933336,7.830911080333333,-0.9674979845333334,0.25228715690000003,1.6803362965000002,0.3369682878
0 days 00:00:13.474267567,-0.16809579293299998,7.21256566075,-3.41515618525,-0.33902996402499996,0.8426879793,0.1164461020325
0 days 00:00:13.494267567,-1.1688938439,7.884350538500001,1.7048860789999998,-0.5112938334166667,0.7166971068333333,0.016162466258333338
0 days 00:00:13.514267567,-1.672582984,9.25783062,5.182853699,-0.62705270945,1.7021746935,-0.20105086640000003
0 days 00:00:13.534267567,2.0566310585,15.0688006875,4.73419952375,-0.8229876011749999,2.399171412,-0.6147590429500001
0 days 00:00:13.554267567,6.902495663,18.518851913333332,5.4879386425000005,-0.8912517428000001,2.974147797,-1.4861576560000003
0 days 00:00:13.574267567,12.04307652,17.83370781,4.721039295,-0.609490334975,4.62439906575,-3.5936409835000003
0 days 00:00:13.594267567,8.2013998055,14.992230415,2.73619279255,-1.4547745092833333,4.0062039695000005,-3.6313111785000003
0 days 00:00:13.614267567,4.119244099,13.049856665,1.119242772275,-1.642615438,3.772548199,-3.498346329
0 days 00:00:13.634267567,4.039084435,13.34955788,1.241874933,-1.499978513,3.56363242875,-3.4479499462499996
0 days 00:00:13.654267567,4.2544387975,17.20598952166667,3.5669009288333338,-0.60109096785,3.218188405,-3.3773950340000005
0 days 00:00:13.674267567,4.17308282825,16.1587307475,3.3379875720000003,-0.1301141977,3.499491692,-3.45802927
0 days 00:00:13.694267567,2.883351266,9.765109064,0.3852444589000001,-1.4785982172833334,2.8280494215,-2.058741589333333
0 days 00:00:13.714267567,0.762712232675,7.9603228569999995,-0.27038896082499997,-2.2075126175,2.1508548555000004,-1.4858522715
0 days 00:00:13.734267567,-0.055034913125,7.330412149500001,0.571286395225,-2.419635296,1.702327371,-1.13307786
0 days 00:00:13.754267567,-0.3732803315,5.9932231106666665,1.4321043319833333,-2.022878647,1.7313434484999999,-0.74609500175
0 days 00:00:13.774267567,-0.28654051569999994,5.5848481655,0.0406779833,-1.5454879102499999,1.62016609325,-0.32795803989999994
0 days 00:00:13.794267567,-0.34337005020000005,5.460421085,0.023928225050000012,-1.5705333751666668,1.507257899,-0.48047062253333334
0 days 00:00:13.814267567,-0.9044869992500001,4.652245282999999,0.9332008587499999,-1.580918074,1.494022489,-0.5130500793
0 days 00:00:13.834267567,-0.544965371625,4.10488730675,1.047458112,-1.49722960625,1.444695175,-0.54450960455
0 days 00:00:13.854267567,0.43349969884999995,3.7343985238333333,0.17667007190666664,-1.246164203,1.296713233,-0.6388881803
0 days 00:00:13.874267567,0.23688945174999998,3.096312463,-0.12981062302825,-0.9016364217499999,0.7854193747,0.066660620275
0 days 00:00:13.894267567,-1.149751261,1.8364914054999997,0.4701896549435,-0.6571886852916666,0.44852744041666665,0.39153886339999994
0 days 00:00:13.914267567,-3.349353522,1.8777676525,4.46022154415,0.17653992073749997,-0.32986698302499995,0.9823469223000001
0 days 00:00:13.934267567,-4.41954350475,2.79541510375,8.737989902750002,0.7336485982,-0.1681405306,1.409341455
0 days 00:00:13.954267567,-9.312467258166668,9.221539497333334,7.525028387833333,1.0290017426,1.4747802617,1.9145266415000002
0 days 00:00:13.974267567,-10.652248386250001,14.692529440000001,4.4524446727499996,1.2176062762500002,3.03019469975,2.48568522925
0 days 00:00:13.994267567,-8.106883048999999,14.660824300000002,2.0961126685,0.86844610175,2.2562799850000004,2.2811473213333335
0 days 00:00:14.014267567,-6.9433732035,12.448659895,2.89830645875,0.8057306409,2.107330799,2.235841513
0 days 00:00:14.034267567,-6.781259537,11.86840057,3.223132133,0.859792187925,1.603825498295,1.796629719675
0 days 00:00:14.054267567,2.457827726666667,12.26281722,9.4464651745,1.503643692,0.19135338814,0.06543888149999999
0 days 00:00:14.074267567,5.03748995025,16.247864005,8.2923266905,1.985310555,0.2893971801,-0.3481165767
0 days 00:00:14.094267567,5.292923808,16.341782095,1.8281164159999992,1.4511093099999999,2.76777743285,-1.2946515781166668
0 days 00:00:14.114267567,3.9403806922499998,7.97946548575,-4.099503279,1.607185245,4.540405273,-1.702403784
0 days 00:00:14.134267567,1.6995022295000002,5.944967985,-8.3479601145,1.016479000775,3.14412108025,-1.227303702525
0 days 00:00:14.154267567,0.7852446238,7.770691553833333,-4.726622383,-0.9837976994500001,-1.229212642,0.2862664983
0 days 00:00:14.174267567,1.462014675,9.985248566,-2.723032236,-1.666897297,-1.58504134425,0.5248091817
0 days 00:00:14.194267567,1.617548108,11.406585217999998,-1.5816558002999999,-1.7861686546666666,-1.6016365091666664,0.6447423001166667
0 days 00:00:14.214267567,1.586441368,11.964711192500001,0.577268481225,-1.5609121915,-1.3434443775,1.00296360265
0 days 00:00:14.234267567,1.5044871865,10.503294709999999,1.6181463006249999,-1.2116503118000002,-0.9986112118500001,1.0362557474999998
0 days 00:00:14.254267567,1.14057874655,9.7367939185,1.8755741321666666,-0.7342594862,-0.4644099474,1.055039883
0 days 00:00:14.274267567,-1.0181460380249998,7.767700672,1.326221972725,0.03497199715000002,1.2930480541499998,1.4101049902500002
0 days 00:00:14.294267567,-2.8450660704999997,7.8580296039999995,-3.1166514755500003,0.3275253276166667,1.9508475856666667,1.7275001208333336
0 days 00:00:14.314267567,-4.46022123125,9.174082279,-6.48275470725,0.3200931549,1.426216602,1.967671871
0 days 00:00:14.334267567,-5.60518682,10.755139350250001,-5.91505754025,0.5180133284249999,0.7660244700000001,1.9256749152500001
0 days 00:00:14.354267567,-7.323233365999999,8.881758769500001,6.2847483949999985,1.646280587,-0.55603967995,1.8867322804999997
0 days 00:00:14.374267567,-3.7286158205,7.54038238525,2.2061825099999997,3.4791803357499997,2.568686312275,2.2546255887499997
0 days 00:00:14.394267567,-1.8089739086499999,8.492127657,-0.7274180723499999,3.8319547173333333,3.5919357143333333,2.227187574
0 days 00:00:14.414267567,1.711466312175,10.529616116,3.0293134713250005,3.4910921454999997,4.713738084,1.486921251
0 days 00:00:14.434267567,1.51585307675,11.769098285,0.4079762399500001,3.5917320850000003,4.869050503,0.879263490475
0 days 00:00:14.454267567,-0.6516453625,12.73659627,-1.7954145642000003,3.36036706,4.291783333,0.2713003159
0 days 00:00:14.474267567,-1.704886079175,13.843077184999999,0.38464621815,-0.20219624000000003,0.48365221922499985,0.5654317141
0 days 00:00:14.494267567,-1.0624132158500001,14.019547465,3.0711878534999997,-1.3769910137833332,-0.030186901483333323,0.3603847747333333
0 days 00:00:14.514267567,-1.4231312274999999,15.6514530225,4.1820557115,-0.6585122347,0.751821816,-0.1899025887
0 days 00:00:14.534267567,-0.03529413042499999,14.597414259999999,3.3804602025,-0.54198977725,0.9224057942499999,-0.322612959875
0 days 00:00:14.554267567,2.526421914183333,13.912668545,1.3032907643666667,-0.51221010835,1.6494876145,-0.7799979746500001
0 days 00:00:14.574267567,4.90947401525,14.4699966875,3.6370905040000006,-1.5109740344500002,2.543793589,-1.0903172792250002
0 days 00:00:14.594267567,5.2354960440000005,14.085350515,4.2999024395,-1.737299442,2.7701189519999994,-1.174005747
0 days 00:00:14.614267567,4.82034111025,13.5302159775,5.0865428445,-1.7472259995,3.07478779575,-1.4357613327499998
0 days 00:00:14.634267567,4.697110653,13.43569946,5.32163763,-1.777005672,3.988794327,-2.22102809
0 days 00:00:14.654267567,1.9609181283333335,12.143574711666666,-2.23250340455,-1.8347323535,2.8315109609999998,-2.8838163614999996
0 days 00:00:14.674267567,1.6959129867499998,14.743376735,1.2388838977749999,-1.892459035,1.674227595,-3.546604633
0 days 00:00:14.694267567,2.433500528,16.85743523,5.773880959,-0.9079486529166667,0.7502946555,-3.9472301005
0 days 00:00:14.714267567,4.636492490666666,15.214363736666668,1.7459628980666668,-0.9138536850555555,0.8128404285888889,-3.5728717910000003
0 days 00:00:14.734267567,5.850451469,13.00499153,1.907079697,-1.5375466347333333,0.7703513900333333,-2.8508295219999997
0 days 00:00:14.754267567,5.113063096833334,11.165708225333333,2.7804599801666665,-1.685375929,1.7420336305,-2.7445390224999997
0 days 00:00:14.774267567,3.2117662427500004,7.05284464375,1.0247262715,-0.833525002025,2.68291813125,-3.0528730155000003
0 days 00:00:14.794267567,0.49770709890000003,5.820541143500001,-2.373680055,-0.5701404611166666,1.390277366,-2.632954358833333
0 days 00:00:14.814267567,-4.44706083805,5.0979088545,-2.15772783775,-0.9671516716499999,0.5937605797975,-2.26210859425
0 days 00:00:14.834267567,-6.30867671925,4.61695122725,0.9379864332500001,-1.3970477285,-0.0227547138825,-1.830838144
0 days 00:00:14.854267567,-4.713461696666666,4.921238501666667,2.7373890480000003,-1.5738930704999998,-0.4158461988,-1.47149694
0 days 00:00:14.874267567,-0.8889336433249999,4.110869348,1.8179469407500002,-1.550069392,-0.784197658275,-1.22165325275
0 days 00:00:14.894267567,0.6221339107,3.091526747,1.148554921,-1.3555089635000002,-1.2439752222000002,-0.560290267
0 days 00:00:14.914267567,0.6221339107,3.091526747,1.148554921,-1.318857074,-1.319009781,-0.4385245442
0 days 00:00:14.934267567,-1.088136121325,-1.78444743175,2.3096720275,-0.9676098229125001,-1.197294965475,-0.03794996439999998
0 days 00:00:14.954267567,-2.4247269826666664,-2.9946174425666663,2.881357232333334,0.08613193035,-0.8321505189000001,1.163773775
0 days 00:00:14.974267567,-6.39960420175,-0.41515469554999995,3.23629268975,1.3432916103375,0.31596980992499996,2.2019385102499998
0 days 00:00:14.994267567,-4.713860630999999,1.731207192,5.139782965499999,1.9283982513333333,0.9523890813333332,2.7680065238333333
0 days 00:00:15.014267567,2.5459633472500003,6.6771714095000005,-2.9832516905,2.95078229875,2.0192134677499998,3.8911321759999997
0 days 00:00:15.034267567,6.5371915105,13.7904353165,-11.20080291925,3.22108995875,0.5700895189999999,3.8363071085
0 days 00:00:15.054267567,11.146166877833332,28.168308576666664,-7.4604225154999995,2.302960157,-1.961639524,3.464290619
0 days 00:00:15.074267567,1.37587296975,20.29053712075,2.06799703825,1.3788745107499998,1.24998202925,1.72286775725
0 days 00:00:15.094267567,-4.157529354,7.5553371905,1.04446709175,1.6796745261666668,0.35862852388333333,1.8000912866666665
0 days 00:00:15.114267567,-3.038286567,5.5178489685,-0.614357203375,1.468060784075,0.027336198845,2.1373395325
0 days 00:00:15.134267567,1.1748759747500002,10.046266198,-2.1978076402499997,0.3190241307,0.20097451659999999,2.6296964885000005
0 days 00:00:15.154267567,2.019542336583333,13.304493111666666,-0.2436691150883333,-0.37995789944999997,0.07070759963,1.656130791
0 days 00:00:15.174267567,0.010169506125000005,11.79661583875,-0.010169494897499992,-0.6322450638,-0.03069595434,1.056872368
0 days 00:00:15.194267567,-1.1102696655,9.500702381,0.35294133425,-0.57288936775,-0.12497275353333331,1.0892482201666667
0 days 00:00:15.214267567,-1.083948612,9.064012527,0.4737788737,-0.293367817975,-0.566271655225,1.2657882269999998
0 days 00:00:15.234267567,-1.1054840685,8.837890863,-0.34636109322499997,-0.3451386094,-0.4760163724,1.309770465
0 days 00:00:15.254267567,-0.11565309642499999,8.493324120833334,-0.16909280170833332,-0.3451386094,-0.4760163724,1.309770465
0 days 00:00:15.274267567,-0.0999003369325,8.21814942375,0.0753739140925,-0.19761475547500001,-0.5740601644000001,1.07107505205
0 days 00:00:15.294267567,-0.6209374666,7.666603804,0.4785645306000001,0.03431023657499999,-0.5690714418999999,0.9380592504833333
0 days 00:00:15.314267567,-0.1262213969575,8.17208778875,0.5766702443,0.12079850956749999,-0.4483747445,0.8911753743499999
0 days 00:00:15.334267567,-0.1166501035775,8.064410448,0.503689155,0.32986698299999995,-0.031917683749999995,0.722271248675
0 days 00:00:15.354267567,-0.41515472284999994,7.725227912333334,0.20099709679833333,0.6621774136999999,0.125990858295,0.48876819015
0 days 00:00:15.374267567,-0.44267219304999994,7.786244988249999,0.06759723649249999,1.015562653675,-0.022143847307500002,0.3629300296
0 days 00:00:15.394267567,-0.12442678214499998,8.0195450785,0.7381857633500001,1.1505638365,0.06836594889333332,0.3405316521333333
0 days 00:00:15.414267567,0.08614161611,8.109275818,0.9690931439,1.13071075125,0.18799363261499996,0.39454228427499993
0 days 00:00:15.434267567,0.47018966822749997,10.889137266999999,0.5868397355,1.029918075,0.4775435328,0.5553524494
0 days 00:00:15.454267567,-0.24925235906666668,13.887543674999998,0.8522436618666668,0.7547234597000001,0.3303251266,0.66836243865
0 days 00:00:15.474267567,-0.352941345425,14.722439525,0.90987080335,0.4795288444,0.1831067204,0.7813724279
0 days 00:00:15.494267567,0.1184447184,16.131213665,1.50388905415,-0.1364264736833333,-1.2081378599333334,0.5375355630666667
0 days 00:00:15.514267567,0.668793931625,16.3411841375,2.60757851575,-0.393244199475,-1.361617624775,0.196011237775
0 days 00:00:15.534267567,0.760917604,16.36212158,2.756531715,-0.9494365602500001,-0.895985886425,-0.8053488581499999
0 days 00:00:15.554267567,4.422334979166667,14.952748613333332,4.561916510500001,-1.8075488210000001,-0.47723808885,-1.310228586
0 days 00:00:15.574267567,6.66939508925,13.30828166,5.478965759499999,-2.199723959,-0.3324631453,-1.445840597
0 days 00:00:15.594267567,5.3216376305,12.87936783,5.659025668999999,-2.612159570333333,2.0913464427833333,-2.177554686666667
0 days 00:00:15.614267567,2.658425987,12.312268735,2.9102705122500003,-2.404363871,4.84705925,-2.977278471
0 days 00:00:15.634267567,0.09690931439999995,11.200802565,-3.1794629694999994,-1.8464915867,4.1932812335000005,-2.97834754
0 days 00:00:15.654267567,-1.0811569965833332,12.338191031666668,-2.113261143666666,0.08949168769999999,1.55755245705,-2.9565092325
0 days 00:00:15.674267567,-0.05503492427500001,13.226925615,-3.23808723675,0.0618500569725,-0.11239913105000005,-3.00522571775
0 days 00:00:15.694267567,0.27038895335,11.909078119999998,-0.0035892725000000367,-0.28374670014166664,-0.44740755358333334,-3.018002986666667
0 days 00:00:15.714267567,0.27098717164999997,11.174481632500001,-0.3744767012500001,-1.6377285125,-0.497243940825,-2.97498786425
0 days 00:00:15.734267567,-0.6490531191,9.050851584750001,4.67737022,-1.9225441817500002,-0.575434625125,-2.9972844125
0 days 00:00:15.754267567,0.8055836259833334,7.308876912,3.222334504166667,-1.792888165,-0.5035052896,-2.9198572639999996
0 days 00:00:15.774267567,3.13459759925,6.65443980725,-2.07816654425,-1.22432574625,-0.3312414214,-2.076405704
0 days 00:00:15.794267567,1.6689938380999998,4.575076938,-0.2739781735,-0.9569196798499999,-0.16254093248333332,-1.8434116838333334
0 days 00:00:15.814267567,-0.6311069839000001,2.63569408675,1.56251320275,-0.5674933791,0.3938550651,-2.084194183
0 days 00:00:15.834267567,-1.42073841365,3.21056979925,1.61635166425,-0.5674933791,0.3938550651,-2.084194183
0 days 00:00:15.854267567,-1.9050855831666667,3.3128629526666664,1.3866407076666667,-0.5674933791,0.39385506510000007,-2.084194183
0 days 00:00:15.874267567,-2.9575287105,3.01794755475,1.13718900075,-0.580321535475,-0.5201513544,-1.1170425861250002
0 days 00:00:15.894267567,-3.9014973639999995,2.3844477535,1.8675981165,-0.5538507302666668,-0.9212349852499999,-0.6212749332166666
0 days 00:00:15.914267567,-4.730610251750001,2.09551444625,2.1385853295,-0.270918538775,-1.3031272889999999,0.36980227385
0 days 00:00:15.934267567,-4.62293338775,1.6408781110000001,2.3431715965000004,0.292909665025,-0.8561270015,0.83360137035
0 days 00:00:15.954267567,-4.197010994166667,1.3463615773333333,2.1216360626,1.1893537345,-0.08384119720000001,1.4392737745
0 days 00:00:15.974267567,-3.8189448715000003,2.428116858,0.6705885379500001,1.78067085175,0.548251118475,2.05731621425
0 days 00:00:15.994267567,-2.727817774,2.9503502850000003,1.131805062,2.529183805,1.2719731626833333,3.0379069251666664
0 days 00:00:16.014267567,0.30329030749999986,4.39322245125,4.607978254500001,3.678016901,1.657734275,3.847302675
0 days 00:00:16.034267567,1.313659668,4.87417984,5.766702652,3.58409643175,0.928514451,3.8799839615
0 days 00:00:16.054267567,8.952745911333334,37.931023915000004,17.495521867,2.7644685505,-0.7783944455499999,3.534539938
0 days 00:00:16.074267567,6.6257258625,37.2030076975,16.94477391575,2.226602077,-0.2976438701,3.091052055
0 days 00:00:16.094267567,-3.963710785,9.140582561499999,1.8424737454999998,2.2493059436666667,0.9928079989666667,2.7577234901666667
0 days 00:00:16.114267567,-0.748953501983,2.412563443,-3.247658551,0.6707295476999999,0.27290381492500004,2.3470187785
0 days 00:00:16.134267567,-0.002392822644,2.184647083,-2.806781054,-0.4324922562,-1.392924428,1.797240496
0 days 00:00:16.154267567,3.0053853103926667,9.778668802166665,-0.3094717538283333,-0.9141591191000001,-0.8807142973,1.1704932452999999
0 days 00:00:16.174267567,3.160918713,13.78026581,-0.05503492057,-1.4485130604999998,-0.1284343171875,0.35178174822499997
0 days 00:00:16.194267567,1.20478621145,11.92582798,0.244067914765,-1.1050543686,-0.31199918562499995,0.4820486654833333
0 days 00:00:16.214267567,-1.029511973525,8.447262167249999,-0.165702961425,-0.5439750700749999,-0.79885841905,1.1162790507
0 days 00:00:16.234267567,-0.820738196475,7.0444700715,-0.611964382275,-0.365449853225,-0.9899063856250001,1.50188744075
0 days 00:00:16.254267567,-0.6667999277666666,6.6799634295,-0.4681956271666667,-0.3329212964,-1.038012028,1.5797727109999997
0 days 00:00:16.274267567,-0.422931395475,6.52462923525,0.737587571125,0.01618792112499999,-0.965624526175,1.4313325587499999
0 days 00:00:16.294267567,-0.7334001362499999,7.9824562075,0.4666004403499999,0.17012584206666667,-0.8277726967833333,1.3393974108333333
0 days 00:00:16.314267567,-0.9738788009,8.74576664,-0.2153540403,0.3579667509,-0.2591593862,1.127121925
0 days 00:00:16.334267567,-1.063609644725,8.835497617999998,-0.33918261157499996,0.495258607,-0.31734425577500003,1.0306052712
0 days 00:00:16.354267567,-0.8598209321333333,7.735197941166667,0.9682955490333333,1.0384700896499999,-0.44608400759999994,0.72700542215
0 days 00:00:16.374267567,-0.145962178725,8.05783021425,0.418145775825,1.10566526675,-0.23258676377499998,0.7198278010000001
0 days 00:00:16.394267567,0.24167508820499997,9.3822574615,-0.42831525205,0.6709331671666666,0.09056070944999998,0.7007382710833333
0 days 00:00:16.414267567,0.04067798331,9.755537987,-0.5838487148,0.5882627964,0.1440113783,0.696462214
0 days 00:00:16.434267567,0.2380858482525,13.02891946175,-0.6933203488249999,0.436004746705,-0.09071341155000001,0.676914542925
0 days 00:00:16.454267567,0.51764729125,14.551153505,-0.2879363199166666,-0.02076940238,-0.7948877811,0.6182715297
0 days 00:00:16.474267567,1.7234304847500002,16.01994777,1.94416838875,-0.13164136187,-0.965777218275,0.088193608455
0 days 00:00:16.494267567,2.585444808,13.35434294,2.2600209715,-0.20545419058333336,-0.9918916920166666,-0.13024145736666667
0 days 00:00:16.514267567,2.88753879075,13.678570749999999,2.22592324,-0.54672396925,-0.60918490401,-0.38843362775
0 days 00:00:16.534267567,3.70468777425,14.507085565,2.629113793,-1.017700672,0.07620538026,-0.5368737578
0 days 00:00:16.554267567,5.720441381,14.121641480000001,4.1627137261666665,-1.3942988515,0.41370818393000003,-0.8780417739
0 days 00:00:16.574267567,5.22233545775,13.7013022925,5.063212632999999,-1.770897031,0.7512109876,-1.21920979
0 days 00:00:16.594267567,1.9728822709999998,12.234502315,5.644668579,-1.7708970309999998,2.9966480437666667,-2.430758138333333
0 days 00:00:16.614267567,-0.23928228017500003,10.22393274225,-2.57467711,-1.6966769397500001,3.5905103687499995,-2.79203373175
0 days 00:00:16.634267567,-0.7369893789,9.734002113,-4.881358147,-1.230739772,3.478569329,-3.1316745875
0 days 00:00:16.654267567,0.3908276955166667,13.179666838833333,-0.9583254556333333,-0.50090909,1.839771986,-3.079903841
0 days 00:00:16.674267567,2.2295125125,12.320643422500002,-0.16450655450000018,-0.18845177813,-0.15775583687499994,-2.93054735675
0 days 00:00:16.694267567,3.029313445,10.615757465,3.3224341870000003,-0.40429066867333335,-0.3908007442666666,-2.9899030129999997
0 days 00:00:16.714267567,2.768495798,10.31067276,4.180261135,-0.787404716,0.5807796717,-3.181307316
0 days 00:00:16.734267567,1.38125684855,9.51924657825,-0.11784648874999992,-0.787404716,0.5807796717,-3.181307316
0 days 00:00:16.754267567,0.7525426969,8.29172861575,-1.48295178975,-0.750371046375,0.3998109922,-2.74301186225
0 days 00:00:16.774267567,0.2536391914,5.40060091,-1.280160069,-0.7281508446,0.2912297845,-2.48003459
0 days 00:00:16.794267567,0.2727817744,4.1730828285,0.08374878775000005,-0.7281508446,0.2912297845,-2.48003459
0 days 00:00:16.814267567,0.1818545163,3.668197155,1.060020447,-0.69562229515,0.2057087151425,-2.322278768
0 days 00:00:16.834267567,0.1818545163,3.668197155,1.060020447,-0.5980366468,-0.05085449293,-1.849011302
0 days 00:00:16.854267567,-1.2291132556166666,4.110470533166667,1.2414761186666665,-0.517402485,-0.320551300415,-1.36581727865
0 days 00:00:16.874267567,-2.7678975460000004,2.8827530145,1.3794622125,-0.4367683232,-0.5902481079,-0.8826232553
0 days 00:00:16.894267567,-3.9074792859999996,1.208375454,2.029113531,-0.2835430602,-0.8371392885666666,0.19249875345
0 days 00:00:16.914267567,-4.02412962925,-0.06759724019999996,1.801197201,0.10033456230000004,-0.7406735569,0.64835658665
0 days 00:00:16.934267567,-4.94955360925,1.07198449935,0.734596543,1.160032272,-0.3031416535,1.370856881
0 days 00:00:16.954267567,-5.458028376000001,3.2011978623333337,0.6476573397,1.602603793,0.47845986475,1.9743912815
0 days 00:00:16.974267567,-0.553340256,4.9722853895,3.5982070562499997,2.72231882825,1.1029163894999998,3.2601088879999995
0 days 00:00:16.994267567,3.2207393050000004,12.208181143500001,-3.0855448234999994,3.9422157605000003,-0.08261945850000003,3.6178210975
0 days 00:00:17.014267567,6.906882644,31.344181060000004,7.317251447500001,3.75529116375,-0.3104720265,3.350669563
0 days 00:00:17.034267567,-1.768295884,26.3336105375,6.46899598925,2.7603452202499996,0.0010690093000000345,2.4731623532500002
0 days 00:00:17.054267567,-3.7603207627666664,15.714862827,4.648058136166667,3.2473571299999997,0.9466876984,2.479576588
0 days 00:00:17.074267567,0.2919243574,5.943771362,-4.292723656,3.24735713,0.9466876984,2.479576588
0 days 00:00:17.094267567,0.5844469368,6.637091636499999,-3.4492537083499997,2.074344039,0.56856240335,2.061745062725
0 days 00:00:17.114267567,1.9302102723333334,9.830512683333334,-1.1836495796,-1.444695234,-0.5658134818,0.8082504869
0 days 00:00:17.134267567,2.6325036683333334,11.500703018333333,-1.5808581509,-1.525023937,-0.59956376255,0.82443839315
0 days 00:00:17.154267567,2.4323041686333333,11.529815834166667,-1.4975081680000002,-1.3497057259,-0.7286089659,0.88369226455
0 days 00:00:17.174267567,0.09451650085000002,8.79123067875,-0.6215356887500001,-0.457385011,-0.455399707,1.0707696227999999
0 days 00:00:17.194267567,-0.6939185708500001,8.03390193,-1.08753788495,-0.2961676071,-0.302530793515,1.185968538
0 days 00:00:17.214267567,-1.9112670269249998,6.66460931325,-1.715055644225,-0.257479496325,-0.07819069084250001,1.52510029075
0 days 00:00:17.234267567,-3.81595391025,6.060421586,2.1056839824999996,-0.1795942485,-0.1931859851,1.696447849
0 days 00:00:17.254267567,-2.5001008563516667,8.207381646499998,0.8813563684666667,0.5012145787500001,-0.9796743690499999,1.8409173484999999
0 days 00:00:17.274267567,-0.5276173875825,11.222338203,-0.13818551599999995,1.251661956,-2.0593778195,1.6655991375
0 days 00:00:17.294267567,-1.852044702,9.765109062,1.730010748,1.2268200717,-1.3348922777833334,0.9745075007333334
0 days 00:00:17.314267567,-1.41415816575,7.6977102757499996,1.9812572005,0.92591829595,0.46624252947499994,0.7384591848
0 days 00:00:17.334267567,0.75074806825,7.06600523025,1.5571293835,0.8961386233749999,1.2475385667499999,0.5446623266
0 days 00:00:17.354267567,1.6418751476666664,7.9541411396666675,-0.6963113443166667,0.9566142559,1.246622324,0.39347326759999995
0 days 00:00:17.374267567,1.3052847977500002,8.844470739,-0.44685961674999997,0.5873464942,0.352774415165,0.24228424205
0 days 00:00:17.394267567,0.7357929793999999,11.362318514999998,-0.35174492744999997,0.4257727588333333,-0.001069016749999994,0.29644759245
0 days 00:00:17.414267567,0.2847459018,12.41396427,-0.8829515576,0.148898294225,-0.40851583327499996,0.868573367525
0 days 00:00:17.434267567,-0.29850462825,14.088341475,-1.0606186244,-0.1044578776,-0.7924443483,1.016555309
0 days 00:00:17.454267567,0.12123635528666667,15.284951848333334,2.5212374724999997,-0.13072505965,-0.9387464521500001,0.6158280371
0 days 00:00:17.474267567,1.6360925432500002,14.9060883525,5.11346209025,-0.108886644235,-0.6731729655750001,-0.15920662135
0 days 00:00:17.494267567,2.9431718585,15.18963814,2.928814888,-0.8085813497633333,0.014915287483333336,-0.9640718750333334
0 days 00:00:17.514267567,4.12283337075,14.132608415,4.581059098500001,-0.9517273307,0.1250745654,-1.1000911
0 days 00:00:17.534267567,5.324628591250001,14.0763776325,6.68853747825,-1.2953387647749999,0.7002037315500002,-1.46905341775
0 days 00:00:17.554267567,5.186443090166667,14.066607,5.9254264083166674,-2.326173067,2.42559123,-2.575940371
0 days 00:00:17.574267567,2.4472593365,13.5020995125,-0.40677984055,-1.6481131315000002,4.404334962,-3.8615054492499996
0 days 00:00:17.594267567,1.3316057925,13.966905595,-1.7706887274499998,-0.35216353339166667,2.3387467065666665,-3.6725445586666665
0 days 00:00:17.614267567,3.1519456210000003,11.732607605,-5.1517472264999995,-0.2429714649875,0.04978546505000003,-3.0293547515
0 days 00:00:17.634267567,4.040280938,10.387841465000001,-3.91405975775,-0.8637627959,-1.609170556,-2.503858328
0 days 00:00:17.654267567,0.4283152421333334,10.273982524166668,5.631507953166666,-0.99876388895,0.031612217499999984,-2.8554110529999996
0 days 00:00:17.674267567,-1.7718851116,8.140382528499998,3.602992654,-0.891404420075,2.2203407887499997,-3.092426658
0 days 00:00:17.694267567,0.2775674164,6.9511499405,-5.706882,-0.8370883861833333,0.8305216034999999,-2.3619341055
0 days 00:00:17.714267567,1.1102696658000002,7.639086366,-1.722234115075,-0.811992019375,0.50365802645,-2.1362704635
0 days 00:00:17.734267567,0.5276173726250001,4.64865612975,0.8344968707249999,-0.70371621845,0.50136725605,-1.9091815355000001
0 days 00:00:17.754267567,0.0023928035833333436,3.670589844166667,1.1174481412666666,-0.7055488229,0.37033676359999995,-2.0362414120000003
0 days 00:00:17.774267567,-1.5840486292500002,3.886542082,0.76929245895,-0.7586940527,0.134848401,-2.059759617
0 days 00:00:17.794267567,-1.755135417,2.58305198,1.6797614694999998,-0.7170534332833333,-0.4280634845,-1.3079887231333334
0 days 00:00:17.814267567,-2.351546526,1.200598761525,1.5619149507499999,-0.47800168395000003,-0.824362009775,-0.36812238765
0 days 00:00:17.834267567,-2.55194544825,0.795015320175,1.6450655162499999,-0.158519413325,-0.842993393575,0.271605748675
0 days 00:00:17.854267567,-2.642872651333333,0.5224329431,1.9310079016666666,0.3949240819,-0.6821832358999999,0.7731257379
0 days 00:00:17.874267567,-3.850051561777778,1.4428721,1.5058831112222222,1.0559815765,-0.14166972538666667,1.2112175625
0 days 00:00:17.894267567,-3.4767713543333336,2.1116660635,-1.7862420873333336,1.676823854,1.190422773,2.31647563
0 days 00:00:17.914267567,-1.28016011405,2.6626133320000003,1.534995735,1.9483532305,1.037248417475,2.6222134235
0 days 00:00:17.934267567,1.06360970415,6.262016952250001,-5.263013303,3.0298892852500003,0.59177523855,3.60188776275
0 days 00:00:17.954267567,4.700699965166667,25.4763824165,-13.345967732333335,3.2342236045000003,-1.42163506125,3.517741203
0 days 00:00:17.974267567,6.270391866475,34.663624282499995,-2.48973196735,2.637714148,-3.477195024,3.246211767
0 days 00:00:17.994267567,-2.67278280855,18.0538468335,3.7160534858,2.834107161,-2.742222884883333,3.174231529
0 days 00:00:18.014267567,-4.4913281199999995,5.03150784975,4.791028976749999,3.816072226,0.9326378107,2.814330339
0 days 00:00:18.034267567,-0.6406782715999999,2.3072791995,-2.280359864,2.70093858275,0.24083343152500003,2.54936775525
0 days 00:00:18.054267567,2.9168507155333336,8.159126380666665,-1.8245272635166667,-0.9040798545,-1.815032005,1.5241839885
0 days 00:00:18.074267567,3.6167513727499996,12.4773735975,0.79082787035,-1.49173179275,-0.9314160792749999,0.6744710729250001
0 days 00:00:18.094267567,1.3818551003,13.000205515,0.2775674313,-1.601076603,-0.6433933377,0.46799877289999997
0 days 00:00:18.114267567,-0.2679961324,12.76570892,0.3852444589,-1.39552059775,-0.5175551921,0.6491201744249999
0 days 00:00:18.134267567,-0.6376872360999999,9.119047283,-1.515255011525,-0.76556627455,-0.273056566725,1.26120668675
0 days 00:00:18.154267567,-1.3579268355,7.1633135475,-1.8173487981666667,-0.7257073522,-0.672104001,1.46737361
0 days 00:00:18.174267567,-2.610569477,5.998806477,-2.23728919,-0.7257073522,-0.672104001,1.46737361
0 days 00:00:18.194267567,-1.60678037995,8.0662052635,-1.7371892329999998,0.10028363267666666,-1.5810708008333334,1.6658027968333335
0 days 00:00:18.214267567,-0.42711883785,10.72403264,-1.2622139752500001,0.9462295175,-1.810755968,1.243186235
0 days 00:00:18.234267567,-1.2191431073749999,9.8907322885,1.13778716325,0.9462295175,-1.810755968,1.243186235
0 days 00:00:18.254267567,-1.1098708508333335,8.6839524905,1.958525340166667,0.8069523573,-0.8229875936500001,0.8852194545500001
0 days 00:00:18.274267567,-0.5096711812500001,8.455637216500001,1.61336067355,0.7299834043,0.49693849312499994,0.45990481969999997
0 days 00:00:18.294267567,1.21555388,8.8558363915,-0.0023928284499999952,0.7018836537833334,0.49821113543333334,0.2755763729
0 days 00:00:18.314267567,1.436890006,10.395618199,-0.34217363594999994,0.579557981325,0.42164941874999995,0.2367864586
0 days 00:00:18.334267567,1.457229018,10.71984577,-0.2656033039,0.2419024557,0.2576322258,0.2175442129
0 days 00:00:18.354267567,1.04486589135,12.383655069999998,-0.6005984892166667,0.003054328249999997,0.06979130210000001,0.4945713952000001
0 days 00:00:18.374267567,0.646660320575,13.573884490000001,0.47497529535000005,-0.28848090027499995,-0.24495677652500003,0.8128319531499999
0 days 00:00:18.394267567,1.387837172,14.03869057,0.6867401004000001,-0.3645844658,-0.6400335729166667,0.46871146561666666
0 days 00:00:18.414267567,1.55832579725,14.498112204999998,3.2961130588500005,-0.46105019745,-0.501214552675,0.0834594071
0 days 00:00:18.434267567,2.99701038,14.6961185975,4.94117867975,-0.827110931225,0.212428223325,-0.9156099558499999
0 days 00:00:18.454267567,4.368895530333334,13.983256655,6.4797639055000005,-1.575114846,0.6910407692000001,-1.340160966
0 days 00:00:18.474267567,3.7154555317500004,13.604991195,6.07836794875,-1.95614173975,2.2064435182000004,-2.15688723325
0 days 00:00:18.494267567,1.0743773878,12.435499195,1.4273188115,-1.9083415665,2.838230411,-2.5256459315
0 days 00:00:18.514267567,0.9403793216,11.96411324,-1.251446247,-1.5086832645250001,3.606240213,-3.52186447375
0 days 00:00:18.534267567,2.5834508538666667,14.875380833333333,-0.9451649585999999,-0.8686497211,2.9002332689999997,-3.8104982379999996
0 days 00:00:18.554267567,4.6534417865,13.6953203675,-0.5461617503575,-0.8686497211,2.900233269,-3.810498238
0 days 00:00:18.574267567,5.182853699,10.61216831,-0.08135596663,-0.02565632762500003,-0.4140136245000001,-2.96842104175
0 days 00:00:18.594267567,2.2002003492499997,11.99282694,1.646261971685,0.11759146051666665,-1.0113375786666667,-2.8627413904999996
0 days 00:00:18.614267567,-1.954337879875,10.3980109705,1.6384853127499999,-0.5711585879,1.525787473,-3.737805128
0 days 00:00:18.634267567,-0.54675996858,8.25942552075,-2.9365915057499996,-0.6695078163999999,1.03007071485,-3.3754096030000005
0 days 00:00:18.654267567,1.57288205476,7.2183483441666665,-0.004386842266666561,-0.94897845385,-0.268933214265,-2.015166521
0 days 00:00:18.674267567,1.23050905775,5.08654290475,1.959721669425,-0.5325213745,0.39889468626749996,-2.052276552
0 days 00:00:18.694267567,0.342173636,3.893122435,0.8255237937,-0.41182466841666665,0.45779223120999996,-2.127158383833333
0 days 00:00:18.714267567,-1.369890973,3.54855603025,0.5204389244250001,-0.4984656572,-0.13637555948,-1.8216751217499998
0 days 00:00:18.734267567,-1.6390835049999999,2.71585363125,0.8440681994,-0.5644390583,-0.4039343297,-1.332830548
0 days 00:00:18.754267567,-1.9290138285000002,0.8099704383666667,0.8398807446333333,-0.38606654105,-0.58230684695,-0.518853247
0 days 00:00:18.774267567,-2.04227414725,-1.40458691125,0.7459624708500001,-0.2076940238,-0.7606793642,0.295124054
0 days 00:00:18.794267567,-3.1058837175,-0.506082018845,0.93080803775,0.51210833095,-0.40535968544999995,1.0159444806666666
0 days 00:00:18.814267567,-4.89631336925,1.0743774073274999,-0.567697152125,0.893542468675,-0.09376774729999998,1.48386692975
0 days 00:00:18.834267567,-4.27178657075,2.65543490625,-2.2666012645,1.5972586574999998,0.623998358875,2.57594048975
0 days 00:00:18.854267567,-0.7262216607333333,4.442275245833334,2.79641211,1.571144223,0.6125446558,2.938335896
0 days 00:00:18.874267567,2.1266210677500004,8.4191462995,4.5445685385,2.8370087445000003,0.080634148795,3.24208837775
0 days 00:00:18.894267567,6.8865437510000005,26.18106842,-5.4903314854500005,3.0021967491666666,-0.3564905039499999,3.2078290385
0 days 00:00:18.914267567,9.695717812,35.490345,0.4809573591,1.71836257,-1.655596256,2.530278206
0 days 00:00:18.934267567,0.925424248,20.1625218375,0.579661287375,2.04212093375,-1.0149518249499998,2.46934443725
0 days 00:00:18.954267567,-2.493720082033333,6.987042109,2.2376880544666666,3.013396025,0.9069814682,2.286543131
0 days 00:00:18.974267567,-0.1292124242,5.8983078,-4.740181446,0.90728692715,0.1652389168775,2.209574282
0 days 00:00:18.994267567,1.4105689304,8.35573673,-1.8927226066000002,-0.0697404046666667,-0.19797109564166668,1.9262348610000002
0 days 00:00:19.014267567,1.625922948,10.84546876,-0.2997010499,-1.44759684775,-0.7121156156249999,0.6143008769
0 days 00:00:19.034267567,-0.46839502425,10.676774502499999,-1.2436696141999999,-1.4738640485,-0.558788567775,0.637666463875
0 days 00:00:19.054267567,-0.9256235406666667,10.298309644166666,-1.0237293342833333,-1.526551127,-0.6898190379,0.9194278717
0 days 00:00:19.074267567,-0.429511673725,8.679964065250001,0.358923390475,-0.67805992055,-0.03191768002499999,1.356043487425
0 days 00:00:19.094267567,-1.00498554095,7.785048485000001,-3.2530424595,-0.19354232149999998,0.4517854241066666,1.3947824436666665
0 days 00:00:19.114267567,-1.663011789,6.965506554,-5.084748268,-0.3384190798,0.07070759684,1.351920128
0 days 00:00:19.134267567,-0.7621140181499999,7.36929559725,1.610967755,0.041080653649999965,-0.4677697141200001,1.2923608125000001
0 days 00:00:19.154267567,-0.7298108936333333,9.232307592666666,0.42033914706666664,1.28189975,-2.20995605,1.0034217536
0 days 00:00:19.174267567,-1.275374413,8.915657043,1.751546144,1.2298235592500002,-1.37505662425,0.720438629425
0 days 00:00:19.194267567,-1.275374413,8.915657043,1.751546144,1.178358197,-1.054505348,0.6628646255
0 days 00:00:19.214267567,0.546161741,7.71146929275,0.848853841325,1.0665699391,-0.4728093444999999,0.5501600765
0 days 00:00:19.234267567,1.153340459,7.310073376,0.5479564071,0.7312051654,1.272278666,0.2120464295
0 days 00:00:19.254267567,1.3866407275,7.373482942666667,-1.0273185274833334,0.59589859845,0.8150463549000001,0.1958585158
0 days 00:00:19.274267567,2.608774841,9.909875392,-1.2891332208250001,0.4605920315,0.3578140438,0.1796706021
0 days 00:00:19.294267567,0.9810573196500001,13.383057115,-0.76331043245,0.04113155976166666,-0.23686281345000001,0.5552506298000001
0 days 00:00:19.314267567,-0.8512466381749999,14.3114719375,-0.4133601114,0.07941242307,-0.5395463109,0.8693369627
0 days 00:00:19.334267567,-1.2693923715,13.920844075000002,0.116650111975,0.07941242307,-0.5395463109,0.8693369627
0 days 00:00:19.354267567,0.9308080274333334,14.572688898333332,1.9393827417166667,-0.021685697165,-0.3660607189,0.5147299468500001
0 days 00:00:19.374267567,4.175475597,15.708880905000001,3.63051015125,-0.11957677825,0.0016798768150000018,-0.36583165827499997
0 days 00:00:19.394267567,5.0859446525,14.189438345,3.280559778,-0.5125155585333333,0.50269078587,-0.6577231784500001
0 days 00:00:19.414267567,5.62313318275,12.5084803075,2.5609183907500004,-0.5913171172,0.5899426341,-0.6810378432
0 days 00:00:19.434267567,4.7659043075,12.9960176925,3.2189446685,-0.84207712115,0.859792158075,-0.8303942829
0 days 00:00:19.454267567,2.50608286275,13.754343348333334,4.4630130135,-1.594357133,1.66934073,-1.278463602
0 days 00:00:19.474267567,-0.7824530005,13.80658627,3.936193228,-1.594357133,1.66934073,-1.278463602
0 days 00:00:19.494267567,-1.97168585675,13.974083905,2.44785755885,-1.808872461,2.4911574521666666,-2.861214319666667
0 days 00:00:19.514267567,-1.97826615,14.452050445000001,-0.20338992772500003,-1.207679629,1.305265307,-3.400607824
0 days 00:00:19.534267567,3.00837627025,14.062020775,0.62931232145,-0.974176577975,0.9918916781025,-3.3547929522500004
0 days 00:00:19.554267567,8.692725658166667,9.986445187833334,6.780461689500001,-0.21441353855,0.549014739705,-3.1806964875
0 days 00:00:19.574267567,7.4715886112500005,7.59960472575,-3.760918975,-0.99311344355,1.4100286364999999,-2.78943765175
0 days 00:00:19.594267567,3.00658160425,8.8761754035,-4.493720889,-1.2842414183333333,1.37235863015,-2.6450699568333333
0 days 00:00:19.614267567,-3.4450665413749997,8.779864549500001,1.6863418225000002,-0.9937242723749999,0.884837612425,-2.53394347425
0 days 00:00:19.634267567,-4.828716278,8.482556343,2.859423161,0.09193515125,1.8651228842499998,-2.5044691560000003
0 days 00:00:19.654267567,-2.8709884782666664,6.116453647499999,0.6408776641666667,0.2028071135,2.041968346,-2.238743067
0 days 00:00:19.674267567,-0.9236295372000001,6.07059109175,-1.339382492025,-0.7377719173749999,0.367435194625,-2.07976549875
0 days 00:00:19.694267567,-0.87218382945,4.006781578,0.061016991750000006,-1.4298307898333331,-0.6894117941666668,-1.7503566938333333
0 days 00:00:19.714267567,-0.5353940427749999,2.01475665,0.6771688014,-1.455690742,-0.8419243693,-1.267468095
0 days 00:00:19.734267567,-0.5288137794,1.744367719,0.70348984,-1.3632974627499999,-0.860097601975,-1.0235803202999998
0 days 00:00:19.754267567,-2.2496521774000002,0.7314061026666666,1.5629119775,-0.7134900837,-0.77442383765,-0.022831067400000005
0 days 00:00:19.774267567,-2.46939307475,0.1627119184,1.77607259175,-0.3408625424,-0.6342303753,0.2462548614
0 days 00:00:19.794267567,-2.451446891,-0.9391829073000001,1.5876377824999999,1.1367175334333333,0.29204426206666667,1.2916481395666668
0 days 00:00:19.814267567,-4.74676185875,1.61635172375,-0.7902297080000001,1.8170172872500001,0.6339249313249999,1.828241885
0 days 00:00:19.834267567,-4.858626485,3.580260813,-2.435295314,2.2320998905000002,0.7771727442749999,2.32075160775
0 days 00:00:19.854267567,-2.1443679529999997,5.6482580501666675,-0.4119642571666667,2.9822418690000005,0.9292780758500001,2.861977816
0 days 00:00:19.874267567,-1.348953753975,17.9066889275,-5.5280182325,3.623802662,0.12202025215000006,2.99820065525
0 days 00:00:19.894267567,0.8925228120499998,42.19264221,10.685149670000001,3.9464918771666664,1.3017019778666665,2.3840780259999996
0 days 00:00:19.914267567,1.147358462275,26.92882633,5.0578289625,4.579653263,3.756665707,1.81556654
0 days 00:00:19.934267567,0.6699903607,20.0039978,3.21356082,3.673282638125,3.10410940675,1.7059162857499999
0 days 00:00:19.954267567,1.0448658767833334,6.301099776666667,-3.085544864166667,0.9541707635,1.146440506,1.376965523
0 days 00:00:19.974267567,1.8358931842500001,5.831907034,-3.5581273435000003,0.9541707635,1.146440506,1.376965523
0 days 00:00:19.994267567,4.3082771300000005,15.01974726,-1.295713484,-1.5251256924166665,0.5456549624333333,1.0159444908666666
