"Time (s)","Acceleration x (m/s^2)","Acceleration y (m/s^2)","Acceleration z (m/s^2)"
6.096724000E-3,2.148754835E0,3.954438448E0,1.083141041E1
2.044266100E-2,1.506580949E0,3.853940010E0,1.055474091E1
3.710932700E-2,0.000000000E0,0.000000000E0,0.000000000E0
5.377599300E-2,0.000000000E0,0.000000000E0,0.000000000E0
7.044265900E-2,0.000000000E0,0.000000000E0,0.000000000E0
8.710932500E-2,1.557727575E0,4.274478436E0,8.480163574E0
1.037759910E-1,1.425225019E0,4.305585384E0,8.420342445E0
1.204426570E-1,1.234696507E0,4.416253090E0,8.392526627E0
1.371093230E-1,1.234696507E0,4.416253090E0,8.392526627E0
1.537759890E-1,1.123131156E0,4.354937077E0,8.960223198E0
1.704426550E-1,1.123131156E0,4.354937077E0,8.960223198E0
1.871093210E-1,1.432403445E0,4.404289246E0,9.114261627E0
2.037759870E-1,1.505085468E0,4.341477394E0,9.151051521E0
2.204426530E-1,1.482054472E0,4.172185421E0,9.274580956E0
2.371093190E-1,1.482054472E0,4.172185421E0,9.274580956E0
2.537759850E-1,1.482054472E0,4.172185421E0,9.274580956E0
2.704426510E-1,1.474876046E0,4.458725929E0,9.146863937E0
2.871093170E-1,1.474876046E0,4.458725929E0,9.146863937E0
3.037759830E-1,1.113559842E0,4.256831646E0,9.216255188E0
3.204426490E-1,1.054337502E0,4.172185421E0,9.297013283E0
3.371093150E-1,1.054337502E0,4.172185421E0,9.297013283E0
3.537759810E-1,1.054337502E0,4.172185421E0,9.297013283E0
3.704426470E-1,1.054337502E0,4.172185421E0,9.297013283E0
3.871093130E-1,1.432403445E0,4.318147659E0,8.892625809E0
4.037759790E-1,1.432403445E0,4.318147659E0,8.892625809E0
4.204426450E-1,1.369591832E0,4.254438877E0,9.028120041E0
4.371093110E-1,1.369591832E0,4.254438877E0,9.028120041E0
4.537759770E-1,1.369591832E0,4.254438877E0,9.028120041E0
4.704426430E-1,1.620838284E0,4.289433479E0,8.931509972E0
4.871093090E-1,1.620838284E0,4.289433479E0,8.931509972E0
5.037759750E-1,1.455733418E0,4.165904045E0,8.705088615E0
5.204426410E-1,1.331904888E0,4.158725739E0,8.705088615E0
5.371093070E-1,1.331904888E0,4.158725739E0,8.705088615E0
5.537759730E-1,1.331904888E0,4.158725739E0,8.705088615E0
5.704426390E-1,1.666900039E0,4.290330887E0,9.202795982E0
5.871093050E-1,1.839183331E0,4.416253090E0,9.305686951E0
6.037759710E-1,1.839183331E0,4.416253090E0,9.305686951E0
6.204426370E-1,1.850549221E0,4.390829563E0,9.310472488E0
6.371093030E-1,1.690828323E0,4.329513550E0,9.148657799E0
6.537759690E-1,1.690828323E0,4.329513550E0,9.148657799E0
6.704426350E-1,1.259521961E0,4.163511276E0,8.641978264E0
6.871093010E-1,1.259521961E0,4.163511276E0,8.641978264E0
7.037759670E-1,1.570588946E0,4.451547623E0,8.750552177E0
7.204426330E-1,1.601695657E0,4.294219494E0,8.828020096E0
7.371092990E-1,1.659123421E0,4.160221100E0,8.972187996E0
7.537759650E-1,1.659123421E0,4.160221100E0,8.972187996E0
7.704426310E-1,1.659123421E0,4.160221100E0,8.972187996E0
7.871092970E-1,1.659123421E0,4.160221100E0,8.972187996E0
8.037759630E-1,1.671685696E0,3.929014683E0,9.473184586E0
8.204426290E-1,1.340878010E0,3.621836185E0,9.497113228E0
8.371092950E-1,1.069591761E0,3.383451223E0,9.431011200E0
8.537759610E-1,1.069591761E0,3.383451223E0,9.431011200E0
8.704426270E-1,1.770688742E-1,2.355434895E0,9.557830811E0
8.871092930E-1,1.770688742E-1,2.355434895E0,9.557830811E0
9.037759590E-1,1.033699393E0,3.200699329E0,9.192327499E0
9.204426250E-1,1.497009635E0,3.380161047E0,8.883054733E0
9.371092910E-1,2.059323072E0,3.490231037E0,8.753842354E0
9.537759570E-1,2.726322412E0,3.805485249E0,8.976374626E0
9.704426230E-1,2.726322412E0,3.805485249E0,8.976374626E0
9.871092890E-1,3.227020502E0,3.711267948E0,9.336793900E0
1.003775955E0,3.404089212E0,3.648157120E0,9.446864128E0
1.020442621E0,3.767200232E0,3.519842148E0,9.678967476E0
1.037109287E0,3.945764542E0,3.428017616E0,9.765109062E0
1.053775953E0,3.945764542E0,3.428017616E0,9.765109062E0
1.070442619E0,3.945764542E0,3.428017616E0,9.765109062E0
1.087109285E0,3.945764542E0,3.428017616E0,9.765109062E0
1.103775951E0,2.929712296E0,1.647757530E0,7.703393459E0
1.120442617E0,2.929712296E0,1.647757530E0,7.703393459E0
1.137109283E0,3.166601658E0,2.052144527E0,7.204789162E0
1.153775949E0,3.779762506E0,2.181356907E0,7.428816795E0
1.170442615E0,3.779762506E0,2.181356907E0,7.428816795E0
1.187109281E0,5.905486107E0,3.206382275E0,7.742276669E0
1.203775947E0,5.905486107E0,3.206382275E0,7.742276669E0
1.220442613E0,6.424728870E0,2.208575249E0,7.169794083E0
1.237109279E0,6.608976364E0,1.749153376E0,7.650751114E0
1.253775945E0,6.825227261E0,1.234696507E0,8.605487823E0
1.270442611E0,6.087340832E0,1.504188180E0,1.056999493E1
1.287109277E0,6.087340832E0,1.504188180E0,1.056999493E1
1.303775943E0,4.515256405E0,2.201396823E-1,1.031456089E1
1.320442609E0,4.515256405E0,2.201396823E-1,1.031456089E1
1.337109275E0,3.767798424E0,-9.690931439E-1,1.120887852E1
1.353775941E0,4.974678040E0,2.847459018E-1,1.090020466E1
1.370442607E0,4.974678040E0,2.847459018E-1,1.090020466E1
1.387109273E0,4.974678040E0,2.847459018E-1,1.090020466E1
1.403775939E0,3.918546200E0,7.863413692E-1,9.353543282E0
1.420442605E0,5.966802597E0,1.282552958E0,8.177770615E0
1.437109271E0,6.084948063E0,1.797907114E0,8.806484222E0
1.453775937E0,5.026422977E0,1.359123230E0,8.424231529E0
1.470442603E0,5.026422977E0,1.359123230E0,8.424231529E0
1.487109269E0,5.026422977E0,1.359123230E0,8.424231529E0
1.503775935E0,2.934497833E0,-3.819543123E-1,1.088106155E1
1.520442601E0,2.934497833E0,-3.819543123E-1,1.088106155E1
1.537109267E0,1.593619823E0,-1.332802176E0,1.107248783E1
1.553775933E0,3.548556089E0,-7.456633449E-1,7.159325123E0
1.570442599E0,3.548556089E0,-7.456633449E-1,7.159325123E0
1.587109265E0,3.548556089E0,-7.456633449E-1,7.159325123E0
1.603775931E0,3.548556089E0,-7.456633449E-1,7.159325123E0
1.620442597E0,3.548556089E0,-7.456633449E-1,7.159325123E0
1.637109263E0,4.789533615E0,-2.096112728E0,9.268898010E0
1.653775929E0,4.019941986E-1,-7.187440991E-1,7.856534004E0
1.670442595E0,4.019941986E-1,-7.187440991E-1,7.856534004E0
1.687109261E0,4.019941986E-1,-7.187440991E-1,7.856534004E0
1.703775927E0,5.127819061E0,-6.230311990E-1,6.984649181E0
1.720442593E0,5.127819061E0,-6.230311990E-1,6.984649181E0
1.737109259E0,8.545666695E0,8.503493667E-1,7.808677673E0
1.753775925E0,8.641978264E0,6.469594240E-1,7.335496902E0
1.770442591E0,9.008079529E0,5.048855543E-1,6.332305908E0
1.787109257E0,9.008079529E0,5.048855543E-1,6.332305908E0
1.803775923E0,9.008079529E0,5.048855543E-1,6.332305908E0
1.820442589E0,1.230718422E1,-2.178365946E0,4.882255554E0
1.837109255E0,1.230718422E1,-2.178365946E0,4.882255554E0
1.853775921E0,1.255663586E1,-2.388934374E0,3.085245609E0
1.870442587E0,1.232871914E1,-1.204487085E0,2.233999014E0
1.887109253E0,1.232871914E1,-1.204487085E0,2.233999014E0
1.903775919E0,1.232871914E1,-1.204487085E0,2.233999014E0
1.920442585E0,8.804690361E0,4.953143001E-1,-4.800600410E-1
1.937109251E0,8.940483093E0,7.561319470E-1,1.049551845E0
1.953775917E0,9.131908417E0,5.703890920E-1,1.645364642E0
1.970442583E0,1.000917721E1,4.713860750E-1,3.945764542E0
1.987109249E0,9.877572060E0,-3.589234129E-2,3.704089403E0
2.003775915E0,9.497113228E0,-9.332008362E-1,2.804388046E0
2.020442581E0,9.322437286E0,-1.117448211E0,1.462014675E0
2.037109247E0,9.848857880E0,-1.296909928E0,1.689332843E0
2.053775913E0,9.504291534E0,-1.619940877E0,2.060220242E0
2.070442579E0,9.946963310E0,-8.829515576E-1,2.065006018E0
2.087109245E0,9.183652878E0,-1.603191197E-1,2.782852650E0
2.103775911E0,8.831908226E0,1.818545163E-1,5.039284706E0
2.120442577E0,8.764909744E0,3.134597540E-1,4.498506546E0
2.137109243E0,8.851051331E0,1.136590719E0,3.658625841E0
2.153775909E0,7.956135273E0,7.417750359E-2,2.160718918E0
2.170442575E0,8.008777618E0,-2.249253243E-1,9.044869542E-1
2.187109241E0,8.336593628E0,2.057827413E-1,5.958128572E-1
2.203775907E0,9.805787086E0,1.722832322E-1,1.134197950E0
2.220442573E0,9.894321442E0,-4.115654826E-1,2.120040894E0
2.237109239E0,9.473184586E0,-8.973084688E-1,2.340180635E0
2.253775905E0,9.628718376E0,-8.757730722E-1,2.230110645E0
2.270442571E0,9.860821724E0,-6.245267391E-1,2.624926329E0
2.287109237E0,8.544769287E0,-1.655833244E0,2.256431818E0
2.303775903E0,8.544769287E0,-1.655833244E0,2.256431818E0
2.320442569E0,1.063131142E1,-5.407779217E-1,5.321637630E0
2.337109235E0,1.097348499E1,-4.498506486E-1,7.542177200E0
2.353775901E0,7.680960655E0,-1.155733347E0,8.231309891E0
2.370442567E0,3.024527788E0,-4.694717884E0,1.162911797E1
2.387109233E0,4.917250633E0,-2.318645239E0,3.065205812E0
2.403775899E0,3.436093330E0,6.795616150E-1,-1.756331801E0
2.420442565E0,2.926422119E0,2.569891453E0,1.146162033E0
2.437109231E0,8.164310455E0,2.754138947E0,5.106283665E0
2.453775897E0,8.109275818E0,-1.789831281E0,5.982056618E0
2.470442563E0,5.836094379E0,-1.720439434E0,1.560838223E1
2.487109229E0,4.689932346E0,1.490728498E0,8.980263710E0
2.503775895E0,5.190032482E0,2.206182480E0,4.634897232E0
2.520442561E0,5.190032482E0,2.206182480E0,4.634897232E0
2.537109227E0,5.190032482E0,2.206182480E0,4.634897232E0
2.553775893E0,5.190032482E0,2.206182480E0,4.634897232E0
2.570442559E0,5.190032482E0,2.206182480E0,4.634897232E0
2.587109225E0,8.122137070E0,-1.211366430E-1,4.819144726E0
2.603775891E0,7.289434910E0,2.425723970E-1,2.611466885E0
2.620442557E0,7.672286510E0,1.325623751E0,2.577069998E0
2.637109223E0,7.672286510E0,1.325623751E0,2.577069998E0
2.653775889E0,7.672286510E0,1.325623751E0,2.577069998E0
2.670442555E0,7.672286510E0,1.325623751E0,2.577069998E0
2.687109221E0,1.000289631E1,-9.002995491E-2,6.562615395E0
2.703775887E0,1.000289631E1,-9.002995491E-2,6.562615395E0
2.720442553E0,1.181964684E1,1.312762380E0,4.640580177E0
2.737109219E0,1.273220921E1,1.824228168E0,3.059522867E0
2.753775885E0,1.273220921E1,1.824228168E0,3.059522867E0
2.770442551E0,1.268764305E1,3.393022537E0,1.478764415E0
2.787109217E0,1.218096256E1,4.292723656E0,1.234696507E0
2.803775883E0,1.218096256E1,4.292723656E0,1.234696507E0
2.820442549E0,1.218096256E1,4.292723656E0,1.234696507E0
2.837109215E0,1.218096256E1,4.292723656E0,1.234696507E0
2.853775881E0,7.768597603E0,4.571188450E0,-2.129612118E-1
2.870442547E0,7.768597603E0,4.571188450E0,-2.129612118E-1
2.887109213E0,7.557431221E0,5.008177757E0,-2.814557552E-1
2.903775879E0,8.720941544E0,5.471487999E0,-3.221337497E-1
2.920442545E0,8.720941544E0,5.471487999E0,-3.221337497E-1
2.937109211E0,8.720941544E0,5.471487999E0,-3.221337497E-1
2.953775877E0,8.720941544E0,5.471487999E0,-3.221337497E-1
2.970442543E0,1.157647610E1,3.693920076E-1,-1.813759565E0
2.987109209E0,1.251206970E1,1.372881979E-1,-1.771586061E0
3.003775875E0,1.229193020E1,-4.752743840E-1,-1.948654890E0
3.020442541E0,1.229193020E1,-4.752743840E-1,-1.948654890E0
3.037109207E0,1.229193020E1,-4.752743840E-1,-1.948654890E0
3.053775873E0,1.157258797E1,-2.864208698E0,-4.411467552E0
3.070442539E0,1.157258797E1,-2.864208698E0,-4.411467552E0
3.087109205E0,1.133390331E1,-2.551347017E-1,-4.142873287E0
3.103775871E0,1.042463112E1,3.000001311E-1,-4.749752998E0
3.120442537E0,1.042463112E1,3.000001311E-1,-4.749752998E0
3.137109203E0,1.042463112E1,3.000001311E-1,-4.749752998E0
3.153775869E0,1.042463112E1,3.000001311E-1,-4.749752998E0
3.170442535E0,8.817551613E0,1.624726534E0,-2.707179785E0
3.187109201E0,9.237791061E0,1.563410521E0,1.618146300E-1
3.203775867E0,1.044945621E1,1.889432549E0,2.768495798E0
3.220442533E0,9.738788605E0,3.022135019E0,3.487838030E0
3.237109199E0,9.738788605E0,3.022135019E0,3.487838030E0
3.253775865E0,9.738788605E0,3.022135019E0,3.487838030E0
3.270442531E0,4.151547432E0,2.029113531E0,3.383451223E0
3.287109197E0,4.441078663E0,2.230110645E0,5.192425251E0
3.303775863E0,4.632504463E0,2.665604353E0,7.879564762E0
3.320442529E0,4.680361271E0,3.469592810E0,8.743373871E0
3.337109195E0,4.529613495E0,3.742374659E0,1.068634605E1
3.353775861E0,3.627519131E0,1.555334687E0,1.093280697E1
3.370442527E0,6.391229153E0,-5.024927482E-2,7.537391186E0
3.387109193E0,6.628118515E0,1.117448211E0,6.491727829E0
3.403775859E0,4.898108006E0,1.811366796E0,5.237888813E0
3.420442525E0,5.479563713E0,2.323430777E0,7.597211838E0
3.437109191E0,5.127819061E0,2.356930256E0,6.455835342E0
3.453775857E0,6.549155712E0,3.000599623E0,5.388636589E0
3.470442523E0,6.549155712E0,3.000599623E0,5.388636589E0
3.487109189E0,8.054241180E0,3.414557934E0,6.556334019E0
3.503775855E0,1.031785107E1,4.017549038E0,4.429114819E0
3.520442521E0,1.031785107E1,4.017549038E0,4.429114819E0
3.537109187E0,1.105244732E1,5.048855543E-1,3.457628727E0
3.553775853E0,1.210050392E1,3.756731451E-1,3.883551121E0
3.570442519E0,1.141376400E1,8.685946465E-1,3.754338741E0
3.587109185E0,1.141376400E1,8.685946465E-1,3.754338741E0
3.587109185E0,1.240917778E1,1.500299811E0,2.701496840E0
3.620442517E0,1.149272728E1,-1.627119333E-1,1.416550994E0
3.637109183E0,1.057866859E1,8.446664214E-1,-4.450650215E-1
3.653775849E0,9.348757744E0,1.663011789E0,-1.332802176E0
3.670442515E0,8.855836868E0,2.127219439E0,-1.732403636E0
3.687109181E0,8.824729919E0,3.180061340E0,-1.093519926E0
3.703775847E0,9.951749802E0,2.677568436E0,-5.982056633E-2
3.720442513E0,9.279366493E0,3.225524902E0,8.231309652E-1
3.737109179E0,8.451449394E0,1.473978758E0,-1.124626622E-1
3.753775845E0,6.771687984E0,-5.359922647E-1,-2.502892494E0
3.770442511E0,7.310073376E0,4.546363056E-1,-2.852244616E0
3.787109177E0,7.310073376E0,4.546363056E-1,-2.852244616E0
3.803775843E0,9.793823242E0,2.823530674E0,-2.287538528E0
3.820442509E0,9.635896683E0,2.885744095E0,-4.833501875E-1
3.837109175E0,8.427521706E0,1.976471543E0,-1.000199914E0
3.853775841E0,9.066405296E0,1.696511269E0,-1.904686809E0
3.870442507E0,9.568898201E0,2.266003132E0,-1.007378340E0
3.887109173E0,1.203829098E1,-8.638089895E-1,-2.799602449E-1
3.903775839E0,1.161236858E1,-1.536192179E0,3.010170937E0
3.920442505E0,1.161236858E1,-1.536192179E0,3.010170937E0
3.937109171E0,1.404586887E1,3.378665686E0,3.622733593E0
3.953775837E0,1.195932770E1,4.632504463E0,1.459621787E0
3.970442503E0,1.128455162E1,4.804787636E0,2.371287346E0
3.987109169E0,7.999206066E0,9.954141974E-1,1.160519004E0
4.003775835E0,6.168696880E0,4.402793646E-1,-4.785645287E-3
4.020442501E0,5.216353416E0,2.974278450E0,-1.086341500E0
4.037109167E0,6.125626087E0,6.288337708E0,-5.742774159E-2
4.053775833E0,8.001599312E0,8.219346046E0,2.529213428E0
4.070442499E0,7.917850018E0,8.432307243E0,3.254238844E0
4.087109165E0,7.039684296E0,6.635297298E0,3.816552162E0
4.103775831E0,7.027719975E0,4.007977962E0,2.392822742E0
4.120442497E0,5.979663849E0,5.300102234E0,1.375872970E0
4.137109163E0,6.807580471E0,5.661418438E0,9.092726111E-1
4.153775829E0,9.951749802E0,8.152346611E0,2.713460922E0
4.170442495E0,1.036092186E1,3.708875179E0,-6.556333899E-1
4.187109161E0,1.036092186E1,3.708875179E0,-6.556333899E-1
4.203775827E0,1.015992451E1,2.658426046E0,-1.229910851E0
4.220442493E0,4.216153622E0,2.464607239E0,-8.530412674E0
4.237109159E0,-3.373879790E-1,5.434100151E0,-9.114261627E0
4.253775825E0,2.569891453E0,8.264809608E0,1.658226132E0
4.270442491E0,7.759923935E0,1.031545830E1,5.237888813E0
4.287109157E0,7.841279984E0,7.032505512E0,6.388836503E-1
4.303775823E0,4.180261135E0,3.503092289E0,1.684547186E0
4.320442489E0,4.029513359E0,3.089133978E0,2.529213428E0
4.337109155E0,3.938585997E0,3.117847919E0,2.352144718E0
4.353775821E0,1.969292998E0,1.756331801E0,3.072384357E0
4.370442487E0,1.265803218E0,3.196810961E0,2.452643156E0
4.387109153E0,5.814558864E-1,4.283152580E0,2.213361025E0
4.403775819E0,-3.340380430E0,4.630111694E0,-9.573683739E0
4.420442485E0,-1.660140419E1,-3.684946895E-1,6.867401123E0
4.437109151E0,-1.660140419E1,-3.684946895E-1,6.867401123E0
4.453775817E0,-2.729492760E1,5.819344521E0,3.261417150E0
4.470442483E0,-2.249253273E0,1.932204247E1,-5.386243820E0
4.487109149E0,6.259624004E0,2.586162758E1,1.213161111E0
4.503775815E0,-2.256431818E0,1.548156261E1,4.331009090E-1
4.520442481E0,-6.812366009E0,9.425328255E0,-2.021935225E0
4.537109147E0,-5.611168861E0,5.606383324E0,-1.184447169E0
4.553775813E0,-2.531606436E0,8.161917686E0,2.687139750E0
4.570442479E0,-2.531606436E0,8.161917686E0,2.687139750E0
4.587109145E0,-4.371686935E0,9.430113792E0,6.771687865E-1
4.603775811E0,-4.768895626E0,9.817750931E0,-7.034898400E-1
4.620442477E0,-4.278367043E0,8.805587769E0,1.493121386E0
4.637109143E0,-4.280759811E0,7.946564198E0,1.117448211E0
4.653775809E0,-4.204189301E0,8.049455643E0,8.470591903E-1
4.670442475E0,-3.902693748E0,8.489734650E0,1.000199914E0
4.687109141E0,-3.802195072E0,8.346165657E0,1.165304661E0
4.703775807E0,-3.000599623E0,8.817551613E0,7.393822074E-1
4.720442473E0,-2.866601467E0,9.174081802E0,7.537391186E-1
4.737109139E0,-1.452443361E0,1.226800156E1,1.397408366E0
4.753775805E0,-1.452443361E0,1.226800156E1,1.397408366E0
4.770442471E0,-4.974678040E0,9.324830055E0,1.339980721E0
4.787109137E0,-4.197010994E0,7.759923935E0,1.794617027E-1
4.803775803E0,1.426122308E0,7.633104324E0,2.502892494E0
4.820442469E0,-6.417550564E0,6.508477688E0,-2.854637384E0
4.837109135E0,-9.461220741E0,3.823730469E0,-2.734996319E0
4.853775801E0,-4.926821709E0,3.225524902E0,3.996013701E-1
4.870442467E0,-2.785245657E0,6.498906136E0,3.900300860E-1
4.887109133E0,-2.785245657E0,6.498906136E0,3.900300860E-1
4.903775799E0,-3.522234917E0,1.516810226E1,-6.771687865E-1
4.920442465E0,-7.269395351E0,1.255992603E1,-2.629712105E0
4.937109131E0,-6.113661766E0,8.985049248E0,-1.875972986E0
4.953775797E0,-2.971885681E0,8.958727837E0,-5.934200287E-1
4.970442463E0,-2.467000246E0,9.324830055E0,-1.131805062E0
4.987109129E0,-3.330809116E0,1.036092186E1,-1.823330879E0
5.003775795E0,-3.601198196E0,1.239721394E1,-2.706282377E0
5.020442461E0,-3.964907169E0,1.083470058E1,-2.297109842E0
5.037109127E0,-3.996013880E0,9.839286804E0,-2.632104874E0
5.053775793E0,-4.795216560E0,8.822337151E0,-1.404586911E0
5.070442459E0,-5.091926575E0,7.566105366E0,-2.129612118E-1
5.087109125E0,-2.301895380E0,8.865407944E0,-3.323630571E0
5.103775791E0,-1.600798368E0,8.949156761E0,-4.472185612E0
5.120442457E0,-1.895115495E0,8.961120605E0,-3.321237803E0
5.137109123E0,-1.241874933E0,9.138189316E0,-2.598605394E0
5.153775789E0,-9.260223508E-1,9.111868858E0,-2.065006018E0
5.170442455E0,-1.323230863E0,8.372486115E0,-2.184647083E0
5.187109121E0,-2.189432621E0,6.539584160E0,-3.641875982E0
5.203775787E0,-1.710868239E0,6.273981094E0,-3.991228104E0
5.220442453E0,-7.154539824E-1,7.190432072E0,-3.689732552E0
5.237109119E0,-7.609176040E-1,7.173682213E0,-3.515056372E0
5.253775785E0,-8.350951076E-1,6.927221775E0,-3.089133978E0
5.270442451E0,-1.794617027E-1,6.616154671E0,-3.041277647E0
5.287109117E0,-1.794617027E-1,6.616154671E0,-3.041277647E0
5.303775783E0,-7.417750359E-1,6.168696880E0,-3.481556892E0
5.320442449E0,-9.810572863E-1,6.123233318E0,-3.579662561E0
5.337109115E0,-1.021735311E0,5.869594097E0,-3.885943890E0
5.353775781E0,-8.087740541E-1,5.510670662E0,-4.242474556E0
5.370442447E0,-1.914258115E-2,5.398207664E0,-4.386044025E0
5.387109113E0,5.718846321E-1,5.728417397E0,-4.252045631E0
5.403775779E0,1.462014675E0,7.405786037E0,-3.728017569E0
5.420442445E0,1.842473388E0,8.815158844E0,-3.907479286E0
5.437109111E0,2.600998163E0,1.250249863E1,-4.197010994E0
5.453775777E0,5.726024628E0,1.792942047E1,-3.617947817E0
5.470442443E0,7.788637638E0,2.174118614E1,-4.223331928E0
5.487109109E0,6.927221775E0,1.967857361E1,-7.099504948E0
5.503775775E0,1.414158225E0,9.915857315E0,-4.795216560E0
5.520442441E0,-1.071984529E0,3.316452265E0,-4.484149456E0
5.537109107E0,-4.007977962E0,1.153340459E0,-5.520241737E0
5.553775773E0,-5.611168861E0,2.136790514E0,-3.979264021E0
5.570442439E0,-5.462814331E0,8.640482903E0,7.274180651E-1
5.587109105E0,-4.634897232E0,1.646022606E1,1.624726534E0
5.603775771E0,-1.227517962E0,1.799641991E1,-2.431107759E0
5.620442437E0,-2.665604353E0,1.299302673E1,-2.988635540E0
5.637109103E0,-3.134597778E0,6.230910301E0,-5.814558864E-1
5.653775769E0,-2.124826431E0,4.414757729E0,1.184447169E0
5.670442435E0,-4.809573591E-1,4.120440483E0,8.159525394E-1
5.687109101E0,2.392822653E-1,5.694917679E0,8.015955687E-1
5.703775767E0,-1.328016520E0,8.611768723E0,2.007578135E0
5.720442433E0,-2.187039852E0,1.074138069E1,2.584248543E0
5.737109099E0,-1.550549030E0,1.278006554E1,3.086741269E-1
5.753775765E0,-1.655833244E0,1.287099266E1,-7.800601721E-1
5.770442431E0,-2.866601467E0,1.043509960E1,4.594219327E-1
5.787109097E0,-1.832902193E0,8.798408508E0,1.732403636E0
5.803775763E0,-1.832902193E0,8.798408508E0,1.732403636E0
5.820442429E0,-2.751746178E-1,9.777072906E0,1.253839016E0
5.837109095E0,0.000000000E0,1.000678444E1,9.571290575E-3
5.853775761E0,-1.098305583E0,8.898907661E0,-3.230310678E-1
5.870442427E0,-1.320838094E0,9.013762474E0,1.196411371E0
5.887109093E0,-1.418943882E0,9.116654396E0,1.229910851E0
5.903775759E0,-1.584048629E0,9.229117393E0,1.184447169E0
5.920442425E0,-1.438086390E0,9.655039787E0,1.174875975E0
5.937109091E0,-1.749153376E0,9.590433121E0,8.207381964E-1
5.953775757E0,-2.376072884E0,9.102297783E0,2.057827413E-1
5.970442423E0,-2.799602509E0,8.786444664E0,3.684946895E-1
5.987109089E0,-2.799602509E0,8.786444664E0,3.684946895E-1
6.003775755E0,-2.890529871E0,9.530612946E0,5.982056856E-1
6.020442421E0,-2.486142635E0,9.662218094E0,4.067798555E-1
6.037109087E0,-2.421536446E0,8.965906143E0,1.196411327E-1
6.053775753E0,-1.682154298E0,8.930013657E0,3.900300860E-1
6.070442419E0,-1.473978758E0,9.061619759E0,8.662018180E-1
6.087109085E0,-1.335195065E0,9.712467194E0,6.987041831E-1
6.103775751E0,-1.395015597E0,1.007617569E1,3.397808075E-1
6.120442417E0,-1.098305583E0,9.973284721E0,1.100698411E-1
6.137109083E0,-1.107876897E0,9.872786522E0,4.618147612E-1
6.153775749E0,-1.031306505E0,1.004985523E1,1.127019525E0
6.170442415E0,-7.058826685E-1,9.968499184E0,9.451649189E-1
6.187109081E0,-6.508477330E-1,9.439684868E0,1.265803218E0
6.203775747E0,-7.154539824E-1,9.111868858E0,1.409372568E0
6.220442413E0,-5.790630579E-1,8.793622971E0,1.356730461E0
6.237109079E0,-1.385444283E0,9.413364410E0,1.083948612E0
6.253775745E0,-2.053041935E0,1.083230782E1,-2.560320199E-1
6.270442411E0,-1.974078655E0,1.160279655E1,3.373879790E-1
6.287109077E0,-2.115255117E0,1.211964703E1,1.572084427E0
6.303775743E0,-1.268195987E0,1.148794174E1,6.604190469E-1
6.320442409E0,-5.359922647E-1,1.082991505E1,-7.968099117E-1
6.337109075E0,-6.484549642E-1,1.056909752E1,-9.044869542E-1
6.353775741E0,-1.292124271E0,1.069352436E1,-5.599204898E-1
6.370442407E0,-1.115055323E0,1.045663452E1,-1.837687731E0
6.387109073E0,-1.775474429E0,1.052841949E1,-5.180460930E0
6.403775739E0,-2.467000246E0,1.107876873E1,-3.668197155E0
6.420442405E0,-2.818745136E0,1.173440266E1,-2.222932339E0
6.437109071E0,-3.335594654E0,1.250728416E1,3.589234129E-2
6.453775737E0,-4.687539577E0,1.207896900E1,1.196411371E0
6.470442403E0,-4.878965378E0,1.142572784E1,1.502692580E0
6.487109069E0,-3.917050600E0,9.719645500E0,-6.221339107E-1
6.503775735E0,-1.555334777E-1,8.463413239E0,1.603191197E-1
6.520442401E0,1.272981644E0,8.468199730E0,1.170090318E0
6.537109067E0,3.256631613E0,8.260024071E0,-3.924229145E-1
6.553775733E0,3.256631613E0,8.260024071E0,-3.924229145E-1
6.570442399E0,3.684946895E-1,9.621540070E0,-2.986242771E0
6.587109065E0,-5.024927482E-2,9.734002113E0,-2.352144718E0
6.603775731E0,-9.092726111E-1,9.068798065E0,-1.636690736E0
6.620442397E0,-1.643869162E0,7.546962738E0,-1.852044702E0
6.637109063E0,-2.555534601E0,5.927021503E0,-1.794616938E0
6.653775729E0,-3.120240688E0,4.936393261E0,-1.751546144E0
6.670442395E0,-3.814159393E0,4.161118507E0,-1.816152334E0
6.687109061E0,-2.794816732E0,3.701696634E0,-1.615155339E0
6.703775727E0,-2.282752752E0,3.701696634E0,-1.249053478E0
6.720442393E0,-2.091326952E0,4.354937077E0,-1.172483087E0
6.737109059E0,-6.125625968E-1,6.647261143E0,-1.706082582E0
6.753775725E0,-6.125625968E-1,6.647261143E0,-1.706082582E0
6.770442391E0,3.570091486E0,1.065045357E1,-2.734996319E0
6.787109057E0,4.424329281E0,1.063848972E1,-2.732603550E0
6.803775723E0,4.744967461E0,9.233902931E0,-2.536391973E0
6.820442389E0,2.952743053E0,7.089933395E0,-1.818545222E0
6.837109055E0,2.392822644E-3,5.694917679E0,-8.566305041E-1
6.853775721E0,-1.289731383E0,5.630311489E0,-7.082754970E-1
6.870442387E0,-2.294716835E0,7.130611420E0,-1.335195065E0
6.887109053E0,-2.938386202E0,9.741181374E0,-1.550549030E0
6.903775719E0,-8.781659007E-1,1.093280697E1,-3.079562664E0
6.920442385E0,1.004985496E-1,1.022453117E1,-4.201796532E0
6.937109051E0,1.677368641E0,8.750552177E0,-5.484349728E0
6.953775717E0,2.280359983E0,8.279166222E0,-4.366901398E0
6.970442383E0,2.280359983E0,8.279166222E0,-4.366901398E0
6.987109049E0,1.514656782E0,8.006384850E0,-1.071984529E0
7.003775715E0,-9.547362328E-1,8.831908226E0,-2.280359983E0
7.020442381E0,-4.204189301E0,1.109551907E1,1.067198873E0
7.037109047E0,-4.204189301E0,1.109551907E1,1.067198873E0
7.053775713E0,-2.868994236E0,1.335912895E1,3.517449200E-1
7.070442379E0,-2.249253273E0,1.004267693E1,-2.493321180E0
7.087109045E0,-2.249253273E0,1.004267693E1,-2.493321180E0
7.103775711E0,-3.017349243E0,1.257188988E1,-1.988435626E0
7.120442377E0,-4.804787636E0,1.628315735E1,9.858429432E-1
7.137109043E0,-1.406979680E0,1.643390656E1,2.333002090E0
7.153775709E0,3.187239647E0,1.077488041E1,-5.989234924E0
7.170442375E0,1.715653777E0,7.920242786E0,-3.783052683E0
7.187109041E0,8.901300430E-1,6.649653912E0,1.112662554E0
7.203775707E0,-1.607976794E0,9.753145218E0,6.843472719E-1
7.220442373E0,-1.607976794E0,9.753145218E0,6.843472719E-1
7.237109039E0,-8.805587292E-1,1.071745300E1,-3.972085714E-1
7.253775705E0,2.871387079E-2,7.980063438E0,1.043270707E0
7.270442371E0,-4.378865361E-1,8.377271652E0,1.095912814E0
7.287109037E0,-4.378865361E-1,8.377271652E0,1.095912814E0
7.303775703E0,3.828516230E-2,9.255437851E0,-2.871387079E-2
7.320442369E0,-2.297109663E-1,7.420143127E0,2.273181528E-1
7.337109035E0,-5.359922647E-1,5.603990555E0,8.135597110E-1
7.353775701E0,-5.359922647E-1,5.603990555E0,8.135597110E-1
7.370442367E0,4.235295951E-1,8.303094864E0,-2.376072884E0
7.387109033E0,8.039883971E-1,1.030588722E1,-2.407179594E0
7.403775699E0,2.440679073E-1,8.379665375E0,-3.852444410E0
7.420442365E0,2.440679073E-1,8.379665375E0,-3.852444410E0
7.437109031E0,-6.149554253E-1,3.890729666E0,-3.160918713E0
7.453775697E0,1.837687731E0,4.931607246E0,-3.062812984E-1
7.470442363E0,2.912065268E0,8.006384850E0,-2.988635540E0
7.487109029E0,4.331009090E-1,1.119123173E1,-2.591426849E0
7.503775695E0,-5.647061467E-1,1.311984634E1,-4.977070987E-1
7.520442361E0,-1.564906001E0,1.545045567E1,3.531806231E0
7.537109027E0,-2.723032236E0,1.550309753E1,4.711467743E0
7.553775693E0,-5.974878311E0,1.077727318E1,1.383051515E0
7.570442359E0,-6.527620316E0,7.960920811E0,-9.762716293E-1
7.587109025E0,-4.835894585E0,5.771488190E0,-3.617947817E0
7.603775691E0,-5.479564071E-1,1.240917778E1,-7.939385414E0
7.620442357E0,7.106683254E-1,1.334477234E1,-7.700103283E0
7.637109023E0,1.854437590E0,1.162433243E1,-4.663611412E0
7.653775689E0,1.902294040E0,8.647661209E0,-7.106683254E-1
7.670442355E0,8.111668825E-1,6.345765591E0,9.906286001E-1
7.687109021E0,6.077769399E-1,5.690132141E0,1.438086390E0
7.703775687E0,-6.149554253E-1,5.084748268E0,1.071984529E0
7.720442353E0,-2.321037948E-1,6.376872540E0,-3.395415306E0
7.737109019E0,-2.321037948E-1,6.376872540E0,-3.395415306E0
7.753775685E0,-2.703889608E-1,6.032305717E0,1.411765367E-1
7.770442351E0,-2.703889608E-1,4.453042984E0,1.828116536E0
7.787109017E0,1.907079697E0,4.603790760E0,-1.241874933E0
7.803775683E0,1.907079697E0,4.603790760E0,-1.241874933E0
7.820442349E0,-4.773681164E0,1.347398472E1,-1.986042857E-1
7.837109015E0,-5.546562672E0,1.852284050E1,1.043270707E0
7.853775681E0,-2.727817893E-1,1.642433548E1,2.033899277E-1
7.870442347E0,-2.727817893E-1,1.642433548E1,2.033899277E-1
7.887109013E0,2.907279491E0,1.433300781E1,-9.236295223E-1
7.903775679E0,-3.493520916E-1,1.498624802E1,-6.269195080E-1
7.920442345E0,-2.026720762E0,1.110748291E1,2.299502611E0
7.937109011E0,-2.026720762E0,1.110748291E1,2.299502611E0
7.953775677E0,-1.275374413E0,1.200479126E1,-9.786644578E-1
7.970442343E0,-1.416550994E0,9.008976936E0,-2.344966233E-1
7.987109009E0,1.866401732E-1,9.645467758E0,1.057627559E0
8.003775675E0,1.452443361E0,1.106680489E1,2.940778971E0
8.020442341E0,2.644068956E0,1.133240795E1,3.428914785E0
8.037109007E0,1.596012712E0,8.391629219E0,3.871587038E0
8.053775673E0,-1.847259045E0,3.335594654E0,-8.121239662E0
8.070442339E0,-3.129812002E0,2.328216314E0,-5.218746185E0
8.087109005E0,-3.730410576E0,2.756531715E0,-9.427721500E-1
8.103775671E0,-2.785245657E0,5.242674351E0,-4.522434771E-1
8.120442337E0,-1.976471543E0,9.734002113E0,1.076770201E-1
8.137109003E0,-7.704889178E-1,1.608934021E1,7.106683254E-1
8.153775669E0,-6.699903607E-1,1.744367790E1,3.529413462E0
8.170442335E0,-5.749952793E0,1.416551018E1,7.130611539E-1
8.187109001E0,-8.102097511E0,1.135155106E1,-3.905086517E0
8.203775667E0,-7.240681171E0,1.227757263E1,-5.773880959E0
8.220442333E0,5.000999570E-1,1.389033508E1,-6.178267956E0
8.237108999E0,4.823930264E0,1.209811115E1,-5.120640278E0
8.253775665E0,4.433900356E0,8.717052460E0,-7.154539824E-1
8.270442331E0,2.079362869E0,6.613761902E0,1.428515077E0
8.287108997E0,-1.962114573E0,5.022534847E0,2.586641312E0
8.303775663E0,-3.031706333E0,5.493920803E0,-2.871387243E0
8.320442329E0,-2.132004976E0,6.886543751E0,-4.314259052E0
8.337108995E0,7.776673436E-1,7.259823799E0,-2.900100946E0
8.353775661E0,9.379864931E-1,5.266602516E0,1.536192179E0
8.370442327E0,1.395015597E0,3.847658873E0,3.242274761E0
8.387108993E0,1.392622828E0,3.871587038E0,1.828116536E0
8.403775659E0,1.385444283E0,8.267202377E0,5.383850932E-1
8.420442325E0,-1.105484009E0,1.351944828E1,9.547362328E-1
8.437108991E0,-5.235496044E0,1.774517250E1,-1.507478237E0
8.453775657E0,-3.115455151E0,1.720200157E1,6.915257573E-1
8.470442323E0,-1.428515077E0,1.505803299E1,-2.895315289E-1
8.487108989E0,-2.581855536E0,1.433300781E1,1.292124271E0
8.503775655E0,-5.575276852E0,1.085862923E1,2.864208698E0
8.520442321E0,-2.390429735E0,1.028195858E1,1.615155339E0
8.537108987E0,-1.746760488E0,1.038963604E1,1.057627559E0
8.553775653E0,-1.677368641E0,1.162433243E1,7.465606928E-1
8.570442319E0,-1.658226132E0,1.141615677E1,-2.153540403E-2
8.587108985E0,2.177468538E0,1.057866859E1,5.886343718E-1
8.603775651E0,1.205982566E0,9.655039787E0,2.768495798E0
8.620442317E0,1.201196909E0,7.752745152E0,2.754138947E0
8.637108983E0,3.541377544E0,5.276174068E0,-3.912265062E0
8.653775649E0,1.509871125E0,2.794816732E0,-3.208775282E0
8.670442315E0,-4.785645381E-2,2.419143677E0,-1.198804140E0
8.687108981E0,-1.854437590E0,1.811366796E0,-1.335195065E0
8.703775647E0,-2.409572363E0,6.147161484E0,-3.625126362E0
8.720442313E0,-3.445664644E0,1.254556942E1,4.381258488E0
8.737108979E0,-3.684946775E0,1.553899002E1,3.672982693E0
8.753775645E0,-3.378665686E0,1.730489349E1,3.096312523E0
8.770442311E0,-6.443871498E0,1.381615829E1,-3.448057413E0
8.787108977E0,-7.066005230E0,1.393101311E1,-5.603990555E0
8.803775643E0,-5.651846886E0,1.624008751E1,-4.271188259E0
8.820442309E0,-1.746760458E-1,1.146162033E1,-4.412364960E0
8.837108975E0,2.292324066E0,7.511070251E0,-2.215753794E0
8.853775641E0,2.380858421E0,6.226124287E0,-7.968099117E-1
8.870442307E0,-1.938186288E-1,6.183053493E0,2.833101988E0
8.887108973E0,-1.004985452E0,8.374878883E0,6.029912829E-1
8.903775639E0,-1.603191197E-1,1.066002464E1,-3.237488985E0
8.920442305E0,-6.053841114E-1,1.037527943E1,-4.778466702E0
8.937108971E0,1.880758643E0,7.200003147E0,-1.842473447E-1
8.953775637E0,3.938585997E0,5.467599869E0,1.387837172E0
8.970442303E0,1.909472466E0,4.041477680E0,4.536791801E0
8.987108969E0,-2.359323025E0,5.206781864E0,9.523434043E-1
9.003775635E0,-4.153940201E0,1.205982590E1,-6.723831892E-1
9.020442301E0,-6.221339107E-1,1.300977707E1,2.471785784E0
9.037108967E0,-3.445664644E0,1.034417248E1,-6.003592014E0
9.053775633E0,-4.622933388E0,1.310309696E1,-1.184447169E0
9.070442299E0,-4.074976921E0,2.152343941E1,5.070391178E0
9.087108965E0,3.565305769E-1,1.671147346E1,1.387837172E0
9.103775631E0,-2.342573404E0,9.631111145E0,2.158325911E0
9.120442297E0,-2.361716032E0,8.805587769E0,2.402393818E0
9.137108963E0,-2.191825628E0,1.025085258E1,2.316252232E0
9.153775629E0,-2.344966173E0,9.877572060E0,-3.421736360E-1
9.170442295E0,-2.344966173E0,9.877572060E0,-3.421736360E-1
9.187108961E0,-8.446664214E-1,7.879564762E0,7.441678643E-1
9.203775627E0,4.323830605E0,6.814758778E0,3.668197155E0
9.220442293E0,2.548356056E0,4.185046673E0,-4.378865361E-1
9.237108959E0,-3.924229145E-1,-3.349951655E-2,-7.994420528E0
9.253775625E0,-1.019342422E0,-6.388836503E-1,-3.290131092E0
9.270442291E0,-1.548156261E0,-3.828516304E-1,3.460021496E0
9.287108957E0,-2.093719721E0,1.131805062E0,1.718046665E0
9.303775623E0,-3.881158352E0,3.517449379E0,3.110669367E-2
9.320442289E0,-4.965106964E0,1.221296692E1,8.805587292E-1
9.337108955E0,-4.460221291E0,2.365544510E1,-1.430907965E0
9.353775621E0,-2.122433662E0,1.974078751E1,-1.519442320E0
9.370442287E0,-2.134397745E0,1.682154274E1,-3.988835335E0
9.387108953E0,1.347159147E0,1.261017513E1,-4.283152580E0
9.403775619E0,7.657032609E-1,9.004191399E0,-2.222932339E0
9.420442285E0,-4.584648132E0,7.580461979E0,1.663011789E0
9.437108951E0,-5.804987907E0,7.649854183E0,1.713261008E0
9.453775617E0,-6.463014126E0,5.582455158E0,-2.344966173E0
9.470442283E0,-1.100698471E0,5.273781300E0,2.167897224E0
9.487108949E0,2.033899307E0,4.689932346E0,1.229910851E0
9.503775615E0,9.798608780E0,8.358129501E0,-9.537791252E0
9.520442281E0,-3.340380430E0,1.127976608E1,-6.546762943E0
9.537108947E0,-5.458028316E0,1.150469112E1,5.948556900E0
9.553775613E0,-1.256231904E0,1.124626637E1,-3.711267948E0
9.570442279E0,-4.345366001E0,1.124148083E1,-7.601997375E0
9.587108945E0,-4.453042984E0,1.807298851E1,1.603191137E0
9.603775611E0,2.002792597E0,3.071187782E1,4.398007870E0
9.620442277E0,-4.067798331E-2,1.965943146E1,1.160519004E0
9.637108943E0,-2.713460922E0,1.330409431E1,3.213560820E0
9.653775609E0,4.235295951E-1,9.530612946E0,2.672782898E0
9.670442275E0,1.462014675E0,8.300702095E0,6.699903607E-1
9.687108941E0,5.192425251E-1,6.879364967E0,4.735395908E0
9.703775607E0,2.414358139E0,6.367300987E0,4.048655987E0
9.720442273E0,3.507878065E0,4.218546391E0,-7.133004189E0
9.737108939E0,3.605983734E0,1.304088354E0,-8.903693199E0
9.753775605E0,6.125625968E-1,-2.048256159E0,1.060020447E0
9.770442271E0,-7.920243144E-1,-2.428714991E0,2.679961443E0
9.787108937E0,-1.127019525E0,1.842473447E-1,4.390829563E0
9.803775603E0,-1.138983607E0,1.232303619E0,5.967699528E0
9.820442269E0,-3.797409534E0,5.426921844E0,4.730610371E0
9.837108935E0,-7.202396393E0,1.032742214E1,-1.111466122E1
9.853775601E0,-5.395814896E0,2.098266220E1,8.327022791E-1
9.870442267E0,-3.316452265E0,1.947996902E1,6.340979934E-1
9.887108933E0,-3.711267948E0,1.545763397E1,-1.471585870E0
9.903775599E0,-2.421536446E0,9.997213364E0,-5.429314613E0
9.920442265E0,2.153540403E-1,7.357929707E0,-2.979064226E0
9.937108931E0,2.153540403E-1,7.357929707E0,-2.979064226E0
9.953775597E0,-1.342373490E0,9.791430473E0,-5.570491314E0
9.970442263E0,-4.575077057E0,1.292602825E1,2.512463808E0
9.987108929E0,-3.979264021E0,9.394221306E0,3.632304668E0
1.000377560E1,1.055713367E1,1.757288933E1,-1.798445511E1
1.002044226E1,3.134597540E-1,1.748435593E1,-3.028595543E1
1.003710893E1,-3.737588882E0,8.702695847E0,1.083230782E1
1.005377559E1,-2.383251429E0,7.044469833E0,2.730210543E0
1.007044226E1,-2.383251429E0,7.044469833E0,2.730210543E0
1.008710892E1,-1.909472466E0,2.220778656E1,8.879764557E0
1.010377559E1,9.726823807E0,3.272185135E1,-6.805187702E0
1.012044226E1,-1.021735311E0,1.801795387E1,3.644268990E0
1.013710892E1,-1.021735311E0,1.801795387E1,3.644268990E0
1.015377559E1,-1.555334777E-1,8.506484032E0,1.820937991E0
1.017044226E1,-1.265803218E0,8.267202377E0,2.644068956E0
1.018710892E1,-3.594019651E0,9.927821159E0,4.591826439E0
1.020377559E1,-3.594019651E0,9.927821159E0,4.591826439E0
1.022044225E1,-2.507678032E0,1.436650753E1,1.674975827E-2
1.023710892E1,7.393822074E-1,1.707757568E1,-6.221338749E0
1.025377559E1,-1.641476393E0,1.180618668E1,-8.374878883E0
1.027044225E1,-4.156332970E0,8.109275818E0,2.449532509E1
1.028710892E1,-6.297909260E0,4.984249592E0,-3.510031509E1
1.030377558E1,3.747160196E0,6.556334019E0,-2.964707375E0
1.032044225E1,3.986442566E0,5.852844238E0,-2.909672260E0
1.033710892E1,-1.880758643E0,5.197210789E0,1.512263894E0
1.035377558E1,-1.466800332E0,6.805187702E0,1.844866276E0
1.037044225E1,2.847459018E-1,1.843669891E1,5.467599869E0
1.038710891E1,5.592026711E0,2.441636276E1,3.591626883E0
1.040377558E1,-9.092726111E-1,1.688614845E1,7.881958008E0
1.042044224E1,-1.897508383E0,1.686700630E1,1.082752228E1
1.043710891E1,-1.387837082E-1,2.064048767E1,5.843272686E0
1.045377558E1,-1.627119422E0,1.891526222E1,5.125426292E0
1.047044224E1,-3.259024382E0,1.580698681E1,3.371487141E0
1.048710891E1,-5.754738331E0,9.915857315E0,-1.735992813E1
1.050377558E1,-1.299302697E0,8.630910873E0,1.179661512E0
1.052044224E1,-3.098705292E0,6.898507595E0,5.316852093E0
1.053710891E1,-3.912265062E0,6.503692150E0,2.407179594E0
1.055377557E1,-4.675575256E0,6.695117950E0,2.416750938E-1
1.057044224E1,-4.826323509E0,5.970092297E0,2.222932339E0
1.058710891E1,-4.560719967E0,4.953142643E0,3.287738323E0
1.060377557E1,-4.500899315E0,4.431507587E0,2.746960402E0
1.062044224E1,-4.536791801E0,4.735395908E0,1.926222205E0
1.063710890E1,-5.702096462E0,6.984649181E0,1.777867198E0
1.065377557E1,-7.159325123E0,9.171689034E0,-2.373680115E0
1.067044224E1,-7.401000500E0,1.004746246E1,-5.599205017E0
1.068710890E1,-9.877572060E0,9.056833267E0,-9.846465111E0
1.070377557E1,-2.916850805E0,8.898907661E0,-7.436892986E0
1.072044223E1,5.670989752E-1,7.515855789E0,-2.438286304E0
1.073710890E1,5.240281820E-1,7.070790768E0,1.366301775E0
1.075377557E1,1.378265858E0,7.539783955E0,6.561119556E0
1.077044223E1,3.292523861E0,1.163629627E1,5.096712112E0
1.078710890E1,1.261017561E0,2.052084732E1,4.204189301E0
1.080377556E1,-2.598605394E0,2.081516457E1,1.988435626E0
1.082044223E1,-2.220539331E0,1.501017666E1,-2.001835442E1
1.083710890E1,-2.366501570E0,4.855037212E0,4.505684853E0
1.085377556E1,-2.304288149E0,5.067998409E0,8.121239662E0
1.087044223E1,-2.770888567E0,5.503491879E0,8.812766075E0
1.088710889E1,-3.089133978E0,6.664011002E0,6.283552170E0
1.090377556E1,-2.947957516E0,8.551948547E0,3.180061340E0
1.092044222E1,-1.842473388E0,1.295474148E1,-9.987641335E0
1.093710889E1,-9.020941257E-1,1.133480072E1,-1.363908947E-1
1.095377556E1,-1.112662554E0,8.776873589E0,3.876372576E0
1.097044222E1,-2.833101988E0,7.499105930E0,2.438286304E0
1.098710889E1,-4.005585194E0,8.532805443E0,1.923829436E0
1.100377556E1,-4.060619831E0,9.456435204E0,1.450050473E0
1.102044222E1,-3.629911900E0,9.678967476E0,-4.546362907E-2
1.103710889E1,-3.629911900E0,9.678967476E0,-4.546362907E-2
1.105377555E1,-1.787438512E0,8.583054543E0,-7.274180651E-1
1.107044222E1,3.110669367E-2,1.041117096E1,-5.659025669E0
1.108710889E1,1.603191137E0,1.084187984E1,-1.452443361E0
1.110377555E1,4.041477680E0,8.867800713E0,-1.488096428E1
1.112044222E1,3.127419233E0,6.900900364E0,-3.914657831E0
1.113710888E1,5.603990555E0,6.513263226E0,1.294517040E0
1.115377555E1,2.397608280E0,9.408578873E0,2.230110645E0
1.117044222E1,2.397608280E0,9.408578873E0,2.230110645E0
1.118710888E1,-6.364908218E-1,1.735753632E1,-2.057827473E0
1.120377555E1,-9.260223508E-1,1.798684692E1,2.213361025E0
1.122044221E1,-3.314059258E0,1.601755524E1,6.362515450E0
1.123710888E1,-3.314059258E0,1.601755524E1,6.362515450E0
1.125377554E1,-6.403193474E0,1.440718555E1,-1.136590719E0
1.127044221E1,-6.561119556E0,9.925428391E0,-3.050848961E0
1.128710888E1,-4.342973232E0,1.160758305E1,4.991427898E0
1.130377554E1,-4.342973232E0,1.160758305E1,4.991427898E0
1.132044221E1,2.871387079E-2,1.179661560E1,-2.627319336E0
1.133710888E1,-9.355936646E-1,8.989834785E0,-1.916650891E0
1.135377554E1,-1.718046665E0,6.183053493E0,-9.547362328E-1
1.137044221E1,-1.718046665E0,6.183053493E0,-9.547362328E-1
1.138710887E1,-1.856830359E0,2.962314367E0,-1.464407444E0
1.140377554E1,-3.038884640E0,1.957328916E0,-9.236295223E-1
1.142044220E1,-4.060619831E0,1.361516118E0,-5.455635786E-1
1.143710887E1,-4.060619831E0,1.361516118E0,-5.455635786E-1
1.145377554E1,-2.234896421E0,5.252245903E0,-2.153540403E-1
1.147044220E1,-1.395015597E0,9.817750931E0,-2.086541414E0
1.148710887E1,-1.505085468E0,1.127498055E1,-8.662018180E-1
1.150377554E1,-1.505085468E0,1.127498055E1,-8.662018180E-1
1.152044220E1,9.427721500E-1,1.013599682E1,-2.895315289E-1
1.153710887E1,3.723232031E0,5.544169903E0,3.684946895E-1
1.155377553E1,2.376072884E0,1.758724689E0,1.725225091E0
1.157044220E1,2.199003935E0,9.427721500E-1,6.317051649E-1
1.158710887E1,3.483949661E0,1.093519926E0,-4.149154663E0
1.160377553E1,2.175075769E0,3.984049797E0,3.182454109E0
1.162044220E1,-9.403793216E-1,8.243273735E0,-1.332802176E0
1.163710886E1,-3.414557934E0,1.297149181E1,-1.519442320E0
1.165377553E1,-1.073659515E1,2.281317139E1,7.106683254E-1
1.167044220E1,-1.770688772E0,1.329691505E1,-2.457428932E0
1.168710886E1,2.727817893E-1,1.359123230E1,3.175275564E0
1.170377553E1,1.914258152E-1,1.598405552E1,5.190032482E0
1.172044219E1,2.871387079E-2,1.762792397E1,1.682154298E0
1.173710886E1,-6.771687865E-1,1.136590767E1,-1.356730461E0
1.175377552E1,1.287338614E0,7.628318787E0,1.555334687E0
1.177044219E1,3.041277647E0,7.719245911E0,2.806781054E0
1.178710886E1,3.603590965E0,9.260223389E0,-4.857429862E-1
1.180377552E1,3.493520975E0,9.205188751E0,-1.777867198E0
1.182044219E1,2.153540373E0,6.154339790E0,-1.579262912E-1
1.183710886E1,9.308080077E-1,5.441278458E0,-1.536192179E0
1.185377552E1,-2.079362869E0,6.345765591E0,-9.714859724E-1
1.187044219E1,-2.187039852E0,1.181336498E1,3.950550079E0
1.188710885E1,-7.085147858E0,1.654876137E1,-5.096712112E-1
1.190377552E1,-7.200003147E0,1.975753593E1,1.095912814E0
1.192044218E1,-7.549355507E0,1.416551018E1,-4.331009090E-1
1.193710885E1,-4.677968502E0,8.618947029E0,-2.792423964E0
1.195377552E1,-1.684547186E0,1.049252701E1,-3.481556892E0
1.197044218E1,1.316052526E-1,1.097587776E1,-6.020341873E0
1.198710885E1,1.203589797E0,8.104490280E0,-3.483949661E0
1.200377552E1,1.256231904E0,6.546762943E0,6.484549642E-1
1.202044218E1,6.699903309E-2,4.694717884E0,-3.708875179E-1
1.203710885E1,-8.087740541E-1,4.529613495E0,-1.473978758E0
1.205377551E1,-1.481157184E0,6.936792850E0,-3.852444589E-1
1.207044218E1,2.057827413E-1,7.336394310E0,2.179861546E0
1.208710885E1,4.333401680E0,1.002831936E1,-5.862415433E-1
1.210377551E1,7.008577347E0,1.024128056E1,-7.726424217E0
1.212044218E1,1.749153376E0,1.095434189E1,2.007578135E0
1.213710884E1,-2.921636343E0,1.192104244E1,9.188439369E0
1.215377551E1,-1.715653777E0,1.350748348E1,9.262616158E0
1.217044218E1,5.065605640E0,1.798206139E1,-7.039684296E0
1.218710884E1,-1.485942841E0,7.891529083E0,-5.000999451E0
1.220377551E1,-4.311866283E0,1.233739376E1,6.807580471E0
1.222044217E1,-8.003992081E0,1.627119446E1,6.977470875E0
1.223710884E1,-4.409972191E0,1.986999893E1,-9.140582681E-1
1.225377550E1,1.543370605E0,1.318923855E1,-1.868794441E0
1.227044217E1,3.507878065E0,9.458827972E0,2.892922640E0
1.228710884E1,3.249453068E0,7.133004189E0,1.174875975E0
1.230377550E1,3.467200041E0,3.515056372E0,-3.780659735E-1
1.232044217E1,1.739582062E0,6.077769399E-1,-7.680960894E-1
1.233710884E1,-5.264210105E-1,-6.675975323E-1,1.380658627E0
1.235377550E1,-8.159525394E-1,-5.982056856E-1,1.569691658E0
1.237044217E1,-1.119840980E0,9.571290612E-1,5.048855543E-1
1.238710883E1,-5.355136871E0,5.694917679E0,2.658426046E0
1.240377550E1,-1.116491032E1,1.584048557E1,-2.285145521E0
1.242044216E1,-8.886942863E0,2.192064857E1,-4.522434711E0
1.243710883E1,4.481756687E0,3.070470047E1,-6.144768715E0
1.245377550E1,4.625326157E0,1.583330727E1,1.356730461E0
1.247044216E1,-6.221338734E-2,6.726224422E0,-3.421736360E-1
1.248710883E1,-1.562513232E0,5.840879917E0,-3.828516230E-2
1.250377550E1,-2.148754835E0,3.361915827E0,-2.799602449E-1
1.252044216E1,-1.040877819E0,1.478764415E0,-9.954141974E-1
1.253710883E1,1.414158225E0,6.484549642E-1,-1.004985496E-1
1.255377549E1,1.871187329E0,1.141376376E0,1.593619823E0
1.257044216E1,4.302295208E0,6.410371780E0,-1.244267747E-1
1.258710883E1,8.877372146E-1,1.061695385E1,-6.039484501E0
1.260377549E1,8.877372146E-1,1.061695385E1,-6.039484501E0
1.262044216E1,-7.317251682E0,1.640279961E1,5.259424210E0
1.263710882E1,3.278166950E-1,2.142054749E1,-8.135596663E-2
1.265377549E1,3.069991350E0,1.930529404E1,-7.633104324E-1
1.267044216E1,-5.742774159E-2,1.419661713E1,1.148554921E0
1.268710882E1,-3.017349243E0,1.304566860E1,2.256431818E0
1.270377549E1,-3.089133978E0,1.133480072E1,2.407179594E0
1.272044215E1,-4.402793646E-1,1.026042366E1,1.313659668E0
1.273710882E1,1.548156261E0,9.714859962E0,2.194218397E0
1.275377548E1,1.921436548E0,8.446663857E0,-1.555334687E0
1.277044215E1,3.582055569E0,6.391229153E0,-2.955136061E0
1.278710882E1,3.917050600E0,4.156332970E0,5.527420044E-1
1.280377548E1,2.455035925E0,3.280559778E0,-4.067798331E-2
1.282044215E1,-2.799602449E-1,2.589034081E0,-2.153540403E-1
1.283710882E1,-3.062813044E0,5.280959606E0,-2.215753794E0
1.285377548E1,-5.592026711E0,1.238046455E1,4.347758770E0
1.287044215E1,-7.259823799E0,1.532602882E1,2.713460922E0
1.288710881E1,-8.666803360E0,1.758963966E1,-1.086341500E0
1.290377548E1,-4.795216560E0,1.743649864E1,-3.292523861E0
1.292044214E1,-4.795216560E0,1.743649864E1,-3.292523861E0
1.293710881E1,3.297309637E0,1.439282799E1,-6.032305717E0
1.295377548E1,3.297309637E0,1.439282799E1,-6.032305717E0
1.297044214E1,1.852044702E0,5.639883041E0,-4.833501875E-1
1.298710881E1,1.852044702E0,5.639883041E0,-4.833501875E-1
1.300377548E1,-8.518448472E-1,5.015356064E0,1.519442320E0
1.302044214E1,-3.101098061E0,6.333801746E0,1.555334777E-1
1.303710881E1,1.031306505E0,7.884350777E0,-3.948157430E-1
1.305377547E1,7.628318787E0,9.805787086E0,-2.699103832E0
1.307044214E1,1.055234814E1,9.956535339E0,-6.731009960E0
1.308710881E1,5.809773445E0,7.520641804E0,4.256831646E0
1.310377547E1,-8.853443861E-1,8.475378036E0,8.137989998E0
1.312044214E1,-4.579862595E0,1.449571991E1,3.431307554E0
1.313710880E1,-6.726224422E0,1.894636917E1,-9.099904060E0
1.315377547E1,-1.564906001E0,1.325862980E1,-1.823330879E0
1.317044214E1,-1.124626622E-1,1.366541004E1,2.976671457E0
1.318710880E1,-1.141376376E0,1.559402561E1,3.445664644E0
1.320377547E1,-2.538784742E0,1.743410492E1,3.546163082E0
1.322044213E1,-6.001199245E0,1.452204037E1,-1.476371527E0
1.323710880E1,-1.119840980E0,1.008814049E1,-9.260223508E-1
1.325377546E1,4.819144726E0,7.393822193E0,1.648654819E0
1.327044213E1,4.670789719E0,6.087340832E0,3.069991350E0
1.328710880E1,2.354537487E0,3.148954630E0,2.356930256E0
1.330377546E1,9.762716293E-1,1.069591761E0,-1.806581140E0
1.332044213E1,7.250252366E-1,-2.392822644E-3,-5.491528034E0
1.333710880E1,-2.751746178E-1,-4.450650215E-1,2.919243574E-1
1.335377546E1,-8.159525394E-1,6.125625968E-1,2.146361828E0
1.337044213E1,-6.506084919E0,4.314259052E0,1.246660590E0
1.338710879E1,-7.537391186E0,7.846065521E0,-4.618147612E-1
1.340377546E1,-6.723831654E0,2.080798531E1,5.623133183E-1
1.342044213E1,8.925228715E-1,2.955614471E1,-1.909472466E0
1.343710879E1,-5.838487148E-1,1.746042633E1,-7.511070251E0
1.345377546E1,2.400001049E0,1.330409431E1,-5.501099110E0
1.347044212E1,1.813759565E0,9.128618240E0,-3.646661758E0
1.348710879E1,-1.813759565E0,7.752745152E0,-5.670989752E-1
1.350377546E1,-1.471585870E0,7.128218651E0,1.162911773E0
1.352044212E1,-5.407779217E-1,5.560919762E0,9.571290761E-2
1.353710879E1,3.708875179E-1,3.357130051E0,-2.806781054E0
1.355377545E1,2.050648928E0,2.658426046E0,2.282752752E0
1.357044212E1,8.224131584E0,4.993820667E0,-1.397408366E0
1.358710879E1,4.481756687E0,5.881557941E0,-8.341380119E0
1.360377545E1,-6.439085960E0,9.430113792E0,1.875972986E0
1.362044212E1,-4.340580463E0,1.123669529E1,3.486342669E0
1.363710878E1,-2.292324066E0,1.611565971E1,-1.634297848E0
1.365377545E1,-5.527420044E-1,1.701536179E1,-2.914458036E0
1.367044212E1,1.241874933E0,2.329173470E1,2.246860504E0
1.368710878E1,-1.897508383E0,2.176272202E1,3.409772158E0
1.370377545E1,-1.387837172E0,1.481875038E1,6.556333899E-1
1.372044211E1,1.086341500E0,1.379701519E1,-2.679961324E-1
1.373710878E1,1.840080619E0,1.136112213E1,1.146162033E0
1.375377544E1,2.378465652E0,9.616754532E0,3.582055569E0
1.377044211E1,2.378465652E0,9.616754532E0,3.582055569E0
1.378710878E1,3.103491068E0,6.104090691E0,-3.086741209E0
1.380377544E1,3.543770313E0,3.476771355E0,-9.662218094E0
1.382044211E1,1.713261008E0,-9.020941257E-1,-1.270588875E0
1.383710878E1,1.086341500E0,-1.813759565E0,7.920243144E-1
1.385377544E1,-5.024927258E-1,-1.339980662E-1,2.596212626E0
1.387044211E1,-7.274180651E-1,1.450050473E0,4.182653904E0
1.388710877E1,-3.074777126E0,7.037291527E0,7.087540627E0
1.390377544E1,-3.828516245E0,1.118166065E1,1.485942841E0
1.392044211E1,-6.565905571E0,2.334198570E1,-3.699303865E0
1.393710877E1,-3.991228104E0,2.036770630E1,1.189232826E0
1.395377544E1,-3.854837179E0,1.220818138E1,-5.869594097E0
1.397044210E1,-2.773281336E0,9.142974854E0,-6.934400082E0
1.398710877E1,9.308080077E-1,4.402793884E0,-3.036491871E0
1.400377544E1,3.823730469E0,2.541177750E0,-3.237488985E0
1.402044210E1,1.706082582E0,4.905286312E0,-5.529813290E0
1.403710877E1,-3.014956415E-1,8.630910873E0,-1.957328916E0
1.405377543E1,-3.414557934E0,1.005942631E1,3.079562664E0
1.407044210E1,2.488535494E-1,9.298508644E0,1.629512191E0
1.408710877E1,8.659625053E0,1.270110226E1,1.464407444E0
1.410377543E1,-2.220539331E0,1.286620712E1,-6.178267956E0
1.412044210E1,-7.264609337E0,1.476610851E1,6.460621357E-1
1.413710876E1,-6.912864685E0,1.255035496E1,-1.550549030E0
1.415377543E1,-6.912864685E0,1.255035496E1,-1.550549030E0
1.417044210E1,-1.270588875E0,2.056631088E1,2.395215511E0
1.418710876E1,4.953142643E0,2.448096848E1,4.517649174E0
1.420377543E1,2.943171859E-1,1.718525314E1,3.259024382E0
1.422044209E1,-6.987041831E-1,1.421575928E1,3.421736360E-1
1.423710876E1,-5.264210105E-1,1.344527054E1,1.306481123E0
1.425377542E1,-2.301895380E0,1.161476135E1,5.867201328E0
1.427044209E1,-4.254438877E0,9.657432556E0,5.489135265E0
1.428710876E1,-2.543570518E0,1.194257736E1,1.220339537E-1
1.430377542E1,-7.130611539E-1,1.416311741E1,-4.287938118E0
1.432044209E1,2.974278450E0,1.426361561E1,-1.043270683E1
1.433710876E1,8.135597110E-1,9.351150513E0,-1.366301775E0
1.435377542E1,2.562713146E0,6.783652306E0,-2.860380173E1
1.437044209E1,2.648854733E0,8.784051895E0,-7.106683254E0
1.438710875E1,2.866601467E0,4.278367043E0,3.282952785E0
1.440377542E1,-6.005984545E-1,2.907279491E0,-7.896314561E-2
1.442044209E1,-1.524227977E0,2.682354212E0,4.833501875E-1
1.443710875E1,-1.524227977E0,5.422136307E0,1.737189293E0
1.445377542E1,2.443071842E0,1.723071671E1,6.656832695E0
1.447044208E1,4.187439442E0,2.897947502E1,8.585447311E0
1.448710875E1,-7.896314859E-1,2.541656303E1,9.836894035E0
1.450377542E1,-1.835294962E0,2.058306122E1,7.958528042E0
1.452044208E1,7.585247755E-1,2.237049866E1,-4.235295951E-1
1.453710875E1,-2.773281336E0,1.753699684E1,-1.674975902E-1
1.455377541E1,-3.548556089E0,1.349791241E1,-2.921636343E0
1.457044208E1,-2.976671457E0,9.032905579E0,-6.788437843E0
1.458710874E1,-3.247060299E0,7.357929707E0,4.539184570E0
1.460377541E1,-3.649054527E0,6.518048763E0,-4.546362907E-2
1.462044208E1,-3.960121393E0,5.852844238E0,-3.708875179E-1
1.463710874E1,-4.063013077E0,6.496513367E0,2.679961443E0
1.465377541E1,-3.986442566E0,5.268995285E0,4.005585194E0
1.467044208E1,-3.294916868E0,3.866801500E0,3.419343472E0
1.468710874E1,-3.809373617E0,3.237488985E0,3.074777126E0
1.470377541E1,-5.130211830E0,4.898108006E0,3.153740168E0
1.472044207E1,-5.986842155E0,8.611768723E0,5.862415433E-1
1.473710874E1,-6.592226505E0,1.186122227E1,-8.063812256E0
1.475377540E1,-6.288337708E0,1.152144146E1,-5.213960648E0
1.477044207E1,-4.601397991E0,9.561718941E0,-6.173482537E-1
1.478710874E1,-5.082355499E0,5.781059742E0,-7.104290485E0
1.480377540E1,1.612762451E0,6.221338749E0,-6.163911343E0
1.482044207E1,1.892722726E0,5.903093338E0,-4.283152521E-1
1.483710874E1,-6.532405615E-1,4.608576298E0,4.139583111E0
1.485377540E1,-1.818545163E-1,8.410771370E0,2.900100946E0
1.487044207E1,-8.135597110E-1,2.018824387E1,3.747160196E0
1.488710873E1,-1.873580098E0,2.465325165E1,1.107876897E0
1.490377540E1,-6.084948063E0,1.819023705E1,-8.472985268E0
1.492044207E1,-1.261017561E0,7.310073376E0,4.522434711E0
1.493710873E1,-2.024327993E0,5.766702652E0,6.467799664E0
1.495377540E1,-1.287338614E0,5.644668579E0,6.005984783E0
1.497044206E1,-1.129412293E0,6.915257454E0,-2.981456995E0
1.498710873E1,7.920243144E-1,1.278245831E1,-3.560520172E0
1.500377540E1,9.475577474E-1,1.302174091E1,1.052841991E-1
1.502044206E1,-1.794617027E-1,1.010488987E1,2.651247501E0
1.503710873E1,-6.364908218E-1,7.479963779E0,2.711068153E0
1.505377539E1,-1.445264935E0,6.448657036E0,3.321237803E0
1.507044206E1,-2.096112728E0,6.443871498E0,2.665604353E0
1.508710872E1,-3.096312523E0,7.568498135E0,8.063812256E-1
1.510377539E1,-3.182454109E0,1.030110168E1,8.015955687E-1
1.512044206E1,-3.598805189E0,1.204068375E1,7.896314859E-1
1.513710872E1,-3.632304668E0,1.200718403E1,-2.895315289E-1
1.515377539E1,-1.835294962E0,1.103091240E1,-1.861616015E0
1.517044206E1,5.264209956E-2,9.439684868E0,-4.687539577E0
1.518710872E1,-7.800601721E-1,1.105005455E1,-4.570291340E-1
1.520377539E1,-9.212366939E-1,1.050209904E1,9.930213690E-1
1.522044205E1,1.560120344E0,9.635896683E0,-7.532605648E0
1.523710872E1,1.103091240E0,8.207381248E0,-6.314659119E0
1.525377538E1,3.014956415E-1,8.630910873E0,3.203989506E0
1.527044205E1,2.177468538E-1,9.095118523E0,3.938585997E0
1.528710872E1,1.028913707E-1,1.274178028E1,6.963114142E-1
1.530377538E1,4.067798555E-1,1.459382534E1,1.464407444E0
1.532044205E1,4.067798555E-1,1.459382534E1,1.464407444E0
1.533710872E1,-1.395015597E0,1.780977821E1,2.785245657E0
1.535377538E1,-1.864008784E0,1.840798378E1,2.545963287E0
1.537044205E1,-4.187439442E0,1.330409431E1,1.892722726E0
1.538710871E1,-4.187439442E0,1.330409431E1,1.892722726E0
1.540377538E1,-5.477170944E0,8.638090134E0,-5.180460930E0
1.542044205E1,-3.101098061E0,1.067438221E1,-2.292324066E0
1.543710871E1,-1.261017561E0,1.031545830E1,-1.454836130E0
1.545377538E1,4.067798331E-2,9.265008926E0,1.962114573E-1
1.547044204E1,4.211367965E-1,8.324629784E0,6.891329288E-1
1.548710871E1,-1.316052526E-1,5.338387489E0,-3.302095234E-1
1.550377538E1,-1.088734269E0,2.912065268E0,-7.752745152E-1
1.552044204E1,-1.902294040E0,1.887937069E0,-8.470591903E-1
1.553710871E1,-2.452643156E0,1.514656782E0,1.268195957E-1
1.555377537E1,-3.012563705E0,1.596012712E0,1.351944804E0
1.557044204E1,-2.562713146E0,2.251646042E0,-9.738788009E-1
1.558710870E1,-2.275574446E0,2.679961443E0,-2.172683001E0
1.560377537E1,-1.636690736E0,4.613361835E0,-3.912265062E0
1.562044204E1,-2.239681959E0,7.666603565E0,-2.794816732E0
1.563710870E1,-9.762716293E-1,9.760323524E0,-2.560320139E0
1.565377537E1,-1.052841991E-1,1.017667484E1,-2.945564747E0
1.567044204E1,5.982056633E-2,1.178225899E1,-1.698904037E-1
1.568710870E1,-6.149554253E-1,1.080838013E1,1.100698471E0
1.570377537E1,-8.374879509E-2,8.879764557E0,1.942971945E0
1.572044203E1,1.040877819E0,7.642675400E0,6.293123364E-1
1.573710870E1,7.824530005E-1,4.366901398E0,-6.582654953E0
1.575377537E1,-1.768295884E0,5.405386448E0,-4.187439680E-1
1.577044203E1,-2.273181528E-1,1.371565914E1,6.149554253E0
1.578710870E1,2.416750938E-1,1.868076706E1,-4.522434711E0
1.580377536E1,-2.050648928E0,2.193500519E1,8.590233326E-1
1.582044203E1,5.814558864E-1,1.592901993E1,3.290131092E0
1.583710870E1,5.814558864E-1,1.592901993E1,3.290131092E0
1.585377536E1,6.436693072E-1,6.520441532E0,-1.488335729E0
1.587044203E1,-1.423729420E0,5.893522263E0,-2.464607358E-1
1.588710869E1,-3.050848961E0,1.509153271E1,2.354537487E0
1.590377536E1,-9.092726111E-1,2.156172562E1,-2.194218397E0
1.592044203E1,4.713860750E-1,1.745324898E1,-2.763710260E0
1.593710869E1,-1.426122308E0,8.669196129E0,8.303094506E-1
1.595377536E1,-1.426122308E0,8.669196129E0,8.303094506E-1
1.595377536E1,-1.466800332E0,5.237888813E0,1.636690736E0
1.598710869E1,-6.460621357E-1,7.200003147E0,1.770688772E0
1.600377536E1,-2.615355253E0,1.053559780E1,-7.298108935E-1
1.602044202E1,-5.431707501E-1,1.243789196E1,-2.323430777E0
1.603710869E1,-6.819544435E-1,8.243273735E0,-2.033899277E-1
1.605377535E1,-1.794617027E-1,7.044469833E0,1.292124242E-1
1.607044202E1,9.188438654E-1,5.967699528E0,4.905286431E-1
1.608710868E1,1.241874933E0,5.252245903E0,5.838487148E-1
1.610377535E1,1.720439434E0,6.367300987E0,9.020941257E-1
1.612044202E1,1.741974831E0,7.058826923E0,1.062413216E0
1.613710868E1,2.730210543E0,8.494520187E0,-2.270788670E0
1.615377535E1,1.823330879E0,8.463413239E0,-1.103091240E0
1.617044202E1,2.304288149E0,8.403593063E0,5.670989752E-1
1.618710868E1,2.215753794E0,6.845865726E0,-1.689332843E0
1.620377535E1,-3.780659735E-1,8.920442581E0,-3.211168051E0
1.622044201E1,-2.500499725E0,1.155972576E1,-2.629712105E0
1.623710868E1,-1.210768223E0,1.360798264E1,-3.672982693E0
1.625377534E1,5.766702294E-1,1.635972786E1,-3.601198196E0
1.627044201E1,-5.383850932E-1,1.792463493E1,-1.251446247E0
1.628710868E1,-2.572284460E0,1.836491394E1,2.041077614E0
1.630377534E1,-4.850251675E0,1.997289085E1,3.596412420E0
1.632044201E1,-9.308079720E0,2.069313049E1,-1.622333765E0
1.633710868E1,-5.091926575E0,1.746999741E1,-3.522234917E0
1.635377534E1,2.220539331E0,1.190429306E1,-3.488735437E0
1.637044201E1,2.849851847E0,9.303294182E0,-2.495713949E0
1.638710867E1,2.012363911E0,5.941378593E0,-3.381058455E0
1.640377534E1,6.005984545E-1,4.610969067E0,-1.667797327E0
1.642044200E1,-1.103091240E0,4.721039295E0,8.518448472E-1
1.643710867E1,-1.677368641E0,4.474578381E0,1.500299811E0
1.645377534E1,-1.433300734E0,2.971885681E0,-9.427721500E-1
1.647044200E1,-4.929214716E-1,2.002792597E0,-1.148554921E0
1.648710867E1,8.159525394E-1,2.380858421E0,1.794617027E-1
1.650377534E1,1.062413216E0,2.445464849E0,3.134597540E-1
1.652044200E1,1.804188251E0,4.871787071E0,-4.424329281E0
1.653710867E1,7.034898400E-1,8.166703224E0,-4.833501875E-1
1.655377533E1,7.034898400E-1,8.166703224E0,-4.833501875E-1
1.657044200E1,-1.227517962E0,7.664210796E0,3.637090325E-1
1.658710867E1,7.824530005E-1,6.331408501E0,6.628118753E-1
1.660377533E1,6.532405615E-1,6.664011002E0,2.201396823E-1
1.662044200E1,-1.091127157E0,5.625525951E0,-3.187239647E0
1.663710866E1,-3.452843189E0,5.359922886E0,-3.294916868E0
1.665377533E1,-4.153940201E0,8.879764557E0,-2.206182480E0
1.667044200E1,-3.134597778E0,1.714457512E1,-9.810572863E-2
1.668710866E1,-1.962114573E0,1.914018822E1,-6.101697683E-1
1.670377533E1,-1.442872047E0,1.580220032E1,1.172483116E-1
1.672044199E1,-7.465606928E-1,1.096391296E1,1.651047587E0
1.673710866E1,-7.465606928E-1,1.096391296E1,1.651047587E0
1.675377532E1,-1.098305583E0,1.195214939E1,3.637090445E0
1.677044199E1,6.963114142E-1,1.213161087E1,1.849651933E0
1.678710866E1,1.832902193E0,1.296431351E1,-3.756731510E0
1.680377532E1,3.637090325E-1,1.540259933E1,-2.261217356E0
1.682044199E1,-1.203589797E0,1.441675663E1,6.699903309E-2
1.683710866E1,1.196411371E0,1.141376400E1,1.502692580E0
1.685377532E1,-3.948157430E-1,7.204789162E0,1.696511269E0
1.687044199E1,-2.213361025E0,5.221138954E0,1.421336651E0
1.688710865E1,-2.179861546E0,5.955735683E0,1.332802176E0
1.690377532E1,-5.216353536E-1,9.262616158E0,5.312066078E-1
1.692044198E1,6.867401004E-1,1.158126163E1,-1.617548108E0
1.693710865E1,-1.387837082E-1,9.757930756E0,-2.512463629E-1
1.695377532E1,-4.833501875E-1,8.425128937E0,6.053841114E-1
1.697044198E1,-9.571290575E-3,6.860222340E0,9.403793216E-1
1.698710865E1,9.882357717E-1,7.472784996E0,-1.083948612E0
1.700377532E1,2.062613010E0,8.788837433E0,3.469592929E-1
1.702044198E1,1.225125194E0,8.173882484E0,2.656033039E-1
1.703710865E1,7.992027402E-1,6.144768715E0,-2.981456995E0
1.705377531E1,3.708875179E-1,4.718646049E0,-2.572284460E0
1.707044198E1,-3.589234129E-2,7.467999458E0,-1.873580098E0
1.708710864E1,-4.019941986E-1,9.958928108E0,-2.931207657E0
1.710377531E1,-3.517449200E-1,1.463928890E1,-1.122233868E0
1.712044198E1,1.251446247E0,1.790549278E1,-3.251846075E0
1.713710864E1,-5.623133183E-1,1.668276024E1,4.331009090E-1
1.715377531E1,-2.459821701E0,1.622333717E1,4.376472473E0
1.717044198E1,-6.118447304E0,1.694118500E1,-5.527420044E-1
1.718710864E1,-7.932207108E0,1.234457207E1,-2.797209740E0
1.720377531E1,-2.706282377E0,1.139940739E1,-1.060020447E0
1.722044197E1,-9.260223508E-1,1.113619614E1,-1.442872047E0
1.723710864E1,-4.259224236E-1,8.166703224E0,-3.682554007E0
1.725377530E1,9.332008660E-2,6.161518097E0,-2.076970100E0
1.727044197E1,5.527420044E-1,5.295316696E0,-1.615155339E0
1.728710864E1,6.221339107E-1,3.701696634E0,-1.227517962E0
1.730377530E1,1.060020447E0,3.002992392E0,-8.374879509E-2
1.732044197E1,2.474178553E0,3.053241730E0,1.287338614E0
1.733710864E1,3.067598581E0,3.352344513E0,1.282552958E0
1.735377530E1,1.636690736E0,5.864808083E0,-9.571290761E-2
1.737044197E1,-1.866401732E-1,9.020941734E0,-3.268595695E0
1.738710863E1,-1.428515077E0,1.147837067E1,-6.963114142E-1
1.740377530E1,-1.392622828E0,1.028195858E1,1.464407444E0
1.742044197E1,9.906286001E-1,8.903693199E0,1.509871125E0
1.743710863E1,-4.067798555E-1,1.128694439E1,-2.871387243E0
1.745377530E1,-5.175675392E0,1.562513161E1,3.531806231E0
1.747044196E1,-2.203789711E0,1.589552116E1,2.943171740E0
1.748710863E1,1.184447169E0,9.449256897E0,-2.754138947E0
1.750377530E1,-1.268195957E-1,1.245464230E1,-2.392822742E0
1.752044196E1,-7.609176040E-1,1.309352589E1,1.043270707E0
1.753710863E1,-1.227517962E0,1.215314579E1,8.279166222E-1
1.755377529E1,-2.191825628E0,1.423968792E1,1.730010748E0
1.757044196E1,-2.103291035E0,1.736232185E1,1.342373490E0
1.758710863E1,3.134597540E-1,1.334716511E1,2.009970993E-1
1.760377529E1,-8.518448472E-1,9.884750366E0,1.674975872E0
1.762044196E1,-1.988435626E0,5.678168297E0,1.988435626E0
1.763710862E1,-1.562513232E0,4.955535889E0,1.622333765E0
1.765377529E1,-8.757730722E-1,7.609176159E0,1.117448211E0
1.767044196E1,-1.083948612E0,9.351150513E0,3.996013701E-1
1.768710862E1,-1.727617979E0,1.226082325E1,-1.471585870E0
1.770377529E1,-9.930213690E-1,9.946963310E0,-1.718046665E0
1.772044195E1,6.939185858E-1,8.015955925E0,-9.571290612E-1
1.773710862E1,1.129412293E0,7.860422611E0,-9.092726111E-1
1.775377528E1,6.508477330E-1,7.281359196E0,9.379864931E-1
1.777044195E1,1.268195957E-1,6.752545357E0,2.928814888E0
1.778710862E1,1.268195957E-1,6.752545357E0,2.928814888E0
1.780377528E1,2.818745136E0,5.548955917E0,1.579262972E0
1.782044195E1,1.402194023E0,4.445864677E0,-7.506284714E0
1.783710862E1,1.143769264E0,4.689932346E0,-2.155933142E0
1.785377528E1,2.136790514E0,5.977271080E0,-2.084148407E0
1.787044195E1,7.322037220E-1,1.066002464E1,-1.483550072E-1
1.788710861E1,9.427721500E-1,1.708714676E1,5.000999570E-1
1.790377528E1,-1.689332843E0,2.355016136E1,3.017349243E0
1.792044194E1,-3.163311481E0,2.448814774E1,2.921636343E0
1.793710861E1,-6.984649181E0,1.311266804E1,-1.957328916E0
1.795377528E1,-4.998606682E0,5.125426292E0,-1.732403636E0
1.797044194E1,-4.998606682E0,5.125426292E0,-1.732403636E0
1.798710861E1,-2.641676188E0,9.621540070E0,-4.316651821E0
1.800377528E1,-3.050848961E0,1.054277611E1,-2.770888567E0
1.802044194E1,-1.911865234E0,9.396614075E0,-1.988435626E0
1.803710861E1,-1.411765337E0,9.559326172E0,-1.526620865E0
1.805377527E1,-8.183453679E-1,1.033938694E1,-1.146162033E0
1.807044194E1,4.522434771E-1,1.046381378E1,1.127019525E0
1.808710860E1,-4.977070987E-1,8.085348129E0,2.687139750E0
1.810377527E1,1.244267821E0,6.376872540E0,-3.208775282E0
1.812044194E1,2.895315409E0,4.744967461E0,-5.757131100E0
1.813710860E1,4.926821709E0,4.776073933E0,-1.947757602E0
1.815377527E1,7.570890903E0,4.101297855E0,5.934200287E-1
1.817044194E1,2.962314367E0,3.864408493E0,3.424129248E0
1.818710860E1,1.414158225E0,4.445864677E0,3.148954630E0
1.820377527E1,-3.730410576E0,7.877171993E0,2.947957516E0
1.822044193E1,-3.455235958E0,1.024845982E1,1.241874933E0
1.823710860E1,4.115654826E-1,1.134915733E1,-2.691925526E0
1.825377526E1,1.019342422E0,1.186600780E1,-3.474378586E0
1.827044193E1,1.440479279E0,1.719721603E1,3.393022537E0
1.828710860E1,-2.586641312E0,2.397847557E1,7.652246952E0
1.830377526E1,-2.586641312E0,2.397847557E1,7.652246952E0
1.832044193E1,-4.031906128E0,1.321316624E1,-1.495514154E0
1.833710860E1,-7.537391186E-1,8.985049248E0,2.239681959E0
1.835377526E1,3.445664644E-1,8.307880402E0,2.139183521E0
1.837044193E1,3.445664644E-1,8.307880402E0,2.139183521E0
1.838710859E1,8.039883971E-1,8.848658562E0,-2.177468538E0
1.840377526E1,-4.163511395E-1,5.395814896E0,-4.039084435E0
1.842044193E1,-4.163511395E-1,5.395814896E0,-4.039084435E0
1.843710859E1,-4.115654826E-1,7.441678643E-1,-1.086341500E0
1.845377526E1,-2.055434704E0,1.354337573E0,6.221338734E-2
1.847044192E1,-2.199003935E0,6.850651264E0,7.896314859E-1
1.848710859E1,-2.199003935E0,6.850651264E0,7.896314859E-1
1.850377526E1,-3.345165968E0,2.745046043E1,-1.272981644E0
1.852044192E1,-2.845066071E0,2.103769684E1,2.342573404E0
1.853710859E1,-1.483550072E0,1.070548820E1,-4.907679081E0
1.855377525E1,-1.483550072E0,1.070548820E1,-4.907679081E0
1.857044192E1,-6.197410822E-1,1.299302673E1,-5.309673309E0
1.858710859E1,5.192425251E-1,1.400279808E1,-2.600998163E0
1.860377525E1,1.304088354E0,9.432506561E0,-1.591227055E0
1.862044192E1,3.661018610E-1,5.175675392E0,3.828516230E-2
1.863710858E1,-3.182454109E-1,4.256831646E0,1.897508383E0
1.865377525E1,6.245267391E-1,3.739981890E0,1.619940877E0
1.867044192E1,-2.871387303E-1,3.629911900E0,-1.203589797E0
1.868710858E1,2.234896421E0,4.847858906E0,-1.411765337E0
1.870377525E1,3.646661758E0,4.979464054E0,-1.651047587E0
1.872044191E1,4.539184570E0,3.878765583E0,-9.762716293E-1
1.873710858E1,8.037490845E0,3.062813044E0,1.390229940E0
1.875377524E1,5.024927258E-1,4.156332970E0,2.005185366E0
1.877044191E1,-2.538784742E0,6.989434719E0,-4.115654826E-1
1.878710858E1,-7.326822758E0,1.361516094E1,3.378665686E0
1.880377524E1,-2.141576290E0,1.320598793E1,2.146361828E0
1.882044191E1,4.345366001E0,1.679282951E1,-6.400800705E0
1.883710858E1,6.049055576E0,2.211925316E1,-2.928814888E0
1.885377524E1,-6.436693072E-1,2.939343262E1,6.955935478E0
1.887044191E1,-6.611369133E0,1.851805496E1,1.143769264E0
1.888710857E1,-2.031506538E0,9.188439369E0,2.708675146E0
1.890377524E1,-1.179661512E0,7.460821152E0,3.531806231E0
1.892044190E1,8.733802438E-1,8.463413239E0,1.828116536E0
1.893710857E1,1.538584948E0,1.198564816E1,-8.183453679E-1
1.895377524E1,-7.848458290E-1,9.504291534E0,-2.431107759E0
1.897044190E1,-1.880758643E0,6.946363926E0,-3.378665686E0
1.898710857E1,-2.292324066E0,5.036891460E0,-6.245267391E-1
1.900377524E1,-9.379864931E-1,4.304687977E0,3.921836376E0
1.902044190E1,-4.546362907E-2,3.393022537E0,5.201996326E0
1.903710857E1,8.542376757E-1,2.696711063E0,3.553341627E0
1.905377523E1,-5.455635786E-1,3.014956415E-1,-1.118405342E1
1.907044190E1,-4.019941807E0,2.586641312E0,3.062812984E-1
1.908710856E1,-4.402793884E0,5.130211830E0,-3.613162339E-1
1.910377523E1,-2.347358942E0,1.261735344E1,1.052842021E0
1.912044190E1,2.720639229E0,2.488056946E1,-2.277967215E0
1.913710856E1,-6.915257573E-1,1.763031769E1,3.457628727E0
1.915377523E1,-2.589034081E0,1.278485107E1,3.505485058E0
1.917044190E1,-4.823930264E0,6.106483459E0,-2.392822742E0
1.918710856E1,-2.701496840E0,7.692924976E0,-3.476771355E0
1.920377523E1,1.316052526E-1,1.144008541E1,-2.924029350E0
1.922044189E1,9.427721500E-1,1.125105190E1,-1.995614052E0
1.923710856E1,1.517049551E0,8.776873589E0,1.375872970E0
1.925377523E1,1.703689694E0,5.718846321E0,3.158525825E-1
1.927044189E1,2.787638426E0,3.316452265E0,-3.584448338E0
1.928710856E1,2.677568436E0,3.883551121E0,-4.682754040E0
1.930377522E1,3.148954630E0,5.723631859E0,-4.488935471E0
1.932044189E1,1.931007862E0,5.953342915E0,-2.263610125E0
1.933710856E1,4.335794449E0,5.659025669E0,2.615355253E0
1.935377522E1,5.757131100E0,7.312466145E0,3.359523058E0
1.937044189E1,-5.960521221E0,1.551266956E1,-7.369893789E-1
1.938710855E1,-4.663611412E0,1.568255997E1,9.068797827E-1
1.940377522E1,-4.876572609E0,1.803948975E1,-1.024128079E0
1.942044189E1,-1.849651933E0,1.807538223E1,4.098905087E0
1.943710855E1,-4.898108006E0,1.941057777E1,7.484749317E0
1.945377522E1,-6.778866768E0,2.922114944E1,6.460621357E-1
1.947044188E1,-2.632104874E0,1.813041687E1,-4.067798555E-1
1.947044188E1,-2.632104874E0,1.813041687E1,-4.067798555E-1
1.950377522E1,-1.462014675E0,8.240880966E0,-3.158525825E-1
1.952044188E1,-3.022135019E0,7.403393269E0,-4.737788737E-1
1.953710855E1,-3.022135019E0,7.403393269E0,-4.737788737E-1
1.955377521E1,-2.510071039E0,7.427321434E0,4.553541660E0
1.957044188E1,-1.423729420E0,7.654639721E0,2.024327993E0
1.958710854E1,-6.819544435E-1,8.090133667E0,-2.371287346E0
1.960377521E1,-8.853443861E-1,7.456035137E0,-2.825923443E0
1.962044188E1,-4.307080805E-1,7.977670670E0,-2.847459018E-1
1.963710854E1,-1.182054400E0,8.803194046E0,4.259224236E-1
1.965377521E1,-5.790630579E-1,1.098544884E1,-2.845066071E0
1.967044188E1,7.824530005E-1,1.241635704E1,-7.745566845E0
1.968710854E1,-6.364908218E-1,1.187797165E1,6.482156754E0
1.970377521E1,2.871387243E0,1.067438221E1,-1.585484314E1
1.972044187E1,5.230710506E0,9.592825890E0,-5.541777134E0
1.973710854E1,5.709274769E0,8.650053978E0,-2.880958557E0
1.975377520E1,2.153540403E-2,7.606783390E0,3.316452265E0
1.977044187E1,-2.895315409E0,8.695517540E0,8.853443861E-1
1.978710854E1,-5.934200287E-1,1.834337807E1,-4.632504463E0
1.980377520E1,2.019542217E0,1.934357834E1,-8.159525394E-1
1.982044187E1,3.708875179E0,1.788395691E1,3.972085476E0
1.983710854E1,2.251646042E0,1.890808487E1,8.573483467E0
1.985377520E1,-1.914258115E-2,1.982214355E1,1.179422283E1
1.987044187E1,9.571290575E-3,1.920957947E1,7.960920811E0
1.988710853E1,1.988435626E0,1.705843353E1,1.107876897E0
1.990377520E1,4.713860750E-1,1.379940796E1,3.651447296E0
1.992044186E1,-3.321237803E0,1.084187984E1,-1.261017561E0
1.993710853E1,-6.350551128E0,9.482755661E0,-5.706882000E0
1.995377520E1,-2.600998163E0,9.329615593E0,1.028913736E0
1.997044186E1,-2.275574446E0,8.975478172E0,2.321037948E-1
1.998710853E1,-3.400201082E0,8.281558990E0,8.757730722E-1
2.000377520E1,-3.074777126E0,7.621140003E0,1.447657704E0
2.002044186E1,-1.864008784E0,6.781259537E0,1.914258122E0
2.003710853E1,-1.959721804E0,6.245266914E0,2.476571321E0
2.005377519E1,-4.223331928E0,5.927021503E0,2.579462767E0
2.007044186E1,-6.154339790E0,6.065805435E0,2.624926329E0
2.008710852E1,-8.616554260E0,6.647261143E0,1.220339537E0
2.010377519E1,-7.410571575E0,5.625525951E0,-2.321037948E-1
2.012044186E1,-5.773880959E0,4.924428940E0,-1.361516118E0
2.013710852E1,-3.024527788E0,3.984049797E0,-4.247260094E0
2.015377519E1,-1.615155339E0,4.247260094E0,-4.460221291E0
2.017044186E1,-1.615155339E0,4.247260094E0,-4.460221291E0
2.018710852E1,1.552941918E0,9.554540634E0,-5.950950146E0
2.020377519E1,5.003392220E0,1.188514996E1,-7.374679565E0
2.022044185E1,7.381857872E0,1.546959877E1,-8.504091263E0
2.023710852E1,7.834101200E0,1.880997849E1,1.521835208E0
2.025377519E1,8.147561073E0,1.548634815E1,1.966900229E0
2.027044185E1,4.811966419E0,8.190631866E0,4.625326157E0
2.028710852E1,4.570291340E-1,1.104766178E1,3.223132133E0
2.030377518E1,-6.195017815E0,2.219342995E1,-5.517848969E0
2.032044185E1,-1.022453117E1,2.351666069E1,4.943571568E0
2.033710852E1,-3.790230989E0,1.158126163E1,-2.266003132E0
2.035377518E1,-1.634297848E0,1.083230782E1,2.014756680E0
2.035377518E1,-1.634297848E0,1.083230782E1,2.014756680E0
2.038710851E1,-3.381058455E0,1.078923702E1,4.869394302E0
2.040377518E1,-5.321637630E0,9.939785004E0,3.373879910E0
2.042044185E1,-6.673582554E0,8.212167740E0,-6.604190469E-1
2.043710851E1,-6.522834301E0,7.073183537E0,-3.366701365E0
2.045377518E1,-5.520241737E0,6.766902447E0,-1.818545163E-1
2.047044184E1,-2.143969059E0,6.522834301E0,9.332008660E-2
2.048710851E1,4.713860750E-1,6.204588890E0,-3.146561861E0
2.050377518E1,4.713860750E-1,6.204588890E0,-3.146561861E0
2.052044184E1,-6.891329288E-1,5.898307800E0,-8.853443861E-1
2.053710851E1,-5.216353536E-1,7.511070251E0,-1.153340459E0
2.055377517E1,-4.785645381E-2,1.125823021E1,6.005984783E0
2.057044184E1,-4.785645381E-2,1.125823021E1,6.005984783E0
2.058710850E1,3.555734396E0,1.247856998E1,-1.312463188E1
2.060377517E1,4.153940201E0,9.379864693E0,-1.143769264E0
2.062044184E1,3.110669374E0,7.188039303E0,1.938186288E-1
2.063710850E1,3.110669374E0,7.188039303E0,1.938186288E-1
2.065377517E1,-1.201196909E0,7.838887215E0,-2.871387079E-2
2.067044184E1,-5.742774159E-2,9.317651749E0,1.196411371E0
2.068710850E1,-5.000999570E-1,7.487142086E0,4.307080805E-2
2.070377517E1,-1.127019525E0,6.628118515E0,1.531406492E-1
2.072044183E1,-2.703889608E-1,6.680760860E0,1.263410330E0
2.073710850E1,3.637090325E-1,7.781459332E0,1.060020447E0
2.075377516E1,3.278166950E-1,9.384650230E0,-7.417750359E-2
2.077044183E1,2.057827413E-1,9.942177773E0,-1.028913707E-1
2.078710850E1,-1.674975827E-2,1.066002464E1,6.915257573E-1
2.080377516E1,4.283152521E-1,1.239960670E1,1.454836130E0
2.082044183E1,1.354337573E0,1.164586735E1,3.364308596E0
2.083710850E1,1.593619823E0,9.619147301E0,-1.294517040E0
2.085377516E1,-3.900300860E-1,5.797809124E0,-1.241396427E1
2.087044183E1,2.390429735E0,5.745167255E0,-5.053641319E0
2.088710849E1,3.603590965E0,3.912265062E0,1.852044702E0
2.090377516E1,1.332802176E0,2.778067112E0,1.581655741E0
2.092044182E1,-3.558127165E0,4.835894585E0,-4.558327198E0
2.093710849E1,2.632105052E-1,1.168893814E1,-1.895115495E0
2.095377516E1,-9.332008660E-2,1.721875191E1,1.050209904E1
2.097044182E1,2.033899277E-1,1.945125580E1,1.123669529E1
2.098710849E1,-1.636690736E0,2.344009018E1,3.876372576E-1
2.100377516E1,-6.216553211E0,1.363908863E1,-6.326622963E0
2.102044182E1,-6.216553211E0,1.363908863E1,-6.326622963E0
2.103710849E1,-2.964707375E0,1.622094536E1,-9.250652313E0
2.105377515E1,-1.548156261E0,1.127258778E1,-1.495514154E0
2.107044182E1,7.058826685E-1,5.613562107E0,-1.476371527E0
2.108710848E1,1.672582984E0,3.620340586E0,-1.165304661E0
2.110377515E1,2.100898266E0,3.002992392E0,-1.799402595E0
2.112044182E1,2.447857618E0,2.313859463E0,-2.187039852E0
2.113710848E1,-2.321037948E-1,1.076770186E0,-8.805587292E-1
2.115377515E1,-1.356730461E0,4.950749874E0,-1.208375454E0
2.117044182E1,-1.555334777E-1,8.126026154E0,-1.411765367E-1
2.118710848E1,4.905286431E-1,1.496710587E1,6.364908218E-1
2.120377515E1,-1.962114573E-1,1.460578918E1,5.910272002E-1
2.122044181E1,-1.962114573E-1,1.460578918E1,5.910272002E-1
2.123710848E1,4.764110088E0,4.924428940E0,-9.678967476E0
2.125377515E1,3.680161238E0,5.503491879E0,8.604590416E0
2.127044181E1,-1.540977836E0,8.609375954E0,7.104290485E0
2.128710848E1,-5.352744102E0,1.059781170E1,-3.653840065E0
2.130377514E1,-2.596212626E0,1.327538013E1,3.613162339E-1
2.132044181E1,1.100698471E0,1.265324593E1,-4.259224415E0
2.133710848E1,-1.880758643E0,1.545763397E1,3.747160196E0
2.135377514E1,-1.478764415E0,1.774517250E1,4.759324074E0
2.137044181E1,4.426721931E-1,1.576391602E1,1.198804140E0
2.138710847E1,-1.158126116E0,1.072223854E1,1.064806104E0
2.140377514E1,-6.867401004E-1,1.022453117E1,1.016949654E0
2.142044181E1,-1.524227977E0,8.915657043E0,9.355936646E-1
2.143710847E1,-2.715853691E0,6.132804394E0,1.423729420E0
2.145377514E1,-1.579262972E0,6.582654953E0,1.756331801E0
2.147044180E1,1.847259045E0,7.661818027E0,3.605983734E0
2.148710847E1,3.282952785E0,8.059026718E0,3.426522017E0
2.150377514E1,2.390429735E0,5.828916073E0,-9.176474571E0
2.152044180E1,-3.084348440E0,3.859622955E0,-3.811766386E0
2.153710847E1,-3.340380430E0,7.262216568E0,-2.213361025E0
2.155377513E1,-2.112862349E0,9.152546883E0,8.781659007E-1
2.157044180E1,-4.737788737E-1,1.510588932E1,5.333601475E0
2.158710846E1,-1.552941918E0,2.290888405E1,-5.216353536E-1
2.160377513E1,-5.706882000E0,1.859462547E1,-4.338187218E0
2.162044180E1,-6.881757736E0,1.452682590E1,-4.168296814E0
2.163710846E1,-1.533799291E0,1.017428207E1,-4.019941807E0
2.165377513E1,2.007578135E0,7.573283672E0,-6.518048763E0
2.167044180E1,2.007578135E0,7.573283672E0,-6.518048763E0
2.168710846E1,3.345165968E0,7.099504948E0,-9.236295223E-1
2.170377513E1,2.392822653E-1,6.565905571E0,2.359323025E0
2.172044179E1,-3.345165968E0,5.216353416E0,2.926422119E0
2.173710846E1,-3.345165968E0,5.216353416E0,2.926422119E0
2.175377512E1,-1.806581140E0,4.701896667E0,-2.407179594E0
2.177044179E1,1.174875975E0,5.606383324E0,1.210768223E0
2.178710846E1,2.572284460E0,4.893322468E0,1.521835208E0
2.180377512E1,2.572284460E0,4.893322468E0,1.521835208E0
2.182044179E1,5.527420521E0,5.637490273E0,-4.161118507E0
2.183710846E1,1.071984529E0,7.295716286E0,2.584248543E0
2.185377512E1,-6.003592014E0,1.657029724E1,8.039883614E0
2.187044179E1,-3.242274761E0,1.866880226E1,9.442078590E0
2.188710845E1,-2.048256159E0,1.375394440E1,-6.247660160E0
2.190377512E1,-1.990828395E0,1.996092606E1,1.052841991E-1
2.192044178E1,1.036092162E0,1.678325844E1,1.744367719E0
2.193710845E1,4.666004181E-1,1.364866066E1,1.272981644E0
2.195377512E1,3.972085714E-1,9.420542717E0,1.495514154E0
2.197044178E1,3.239881754E0,9.784252167E0,2.431107759E0
2.198710845E1,1.217946768E0,8.853444099E0,-1.722832322E-1
2.200377512E1,1.124626637E0,7.343572617E0,-1.969292998E0
2.202044178E1,2.431107759E0,5.625525951E0,-1.440479279E0
2.203710845E1,9.355936646E-1,3.359523058E0,8.231309652E-1
2.205377511E1,-3.445664644E-1,2.682354212E0,-2.679961324E-1
2.207044178E1,-4.450650215E-1,3.381058455E0,-5.503492057E-2
2.208710845E1,-1.406979680E0,9.540184021E0,2.725425005E0
2.210377511E1,-5.840879917E0,1.740539169E1,-3.046063185E0
2.212044178E1,-5.840879917E0,1.740539169E1,-3.046063185E0
2.213710844E1,-6.197410583E0,2.217189407E1,-1.624726534E0
2.215377511E1,-4.749752998E0,1.769013786E1,-6.271588326E0
2.217044178E1,2.706282377E0,1.158365440E1,-2.275574446E0
2.218710844E1,3.857230186E0,6.128018856E0,-9.379864931E-1
2.220377511E1,2.555534601E0,4.481756687E0,-9.954141974E-1
2.222044177E1,-3.158525825E-1,3.476771355E0,3.215953588E0
2.223710844E1,-1.694118381E0,1.440479279E0,7.704889178E-1
2.225377511E1,4.737788737E-1,-2.536391914E-1,-2.067398787E0
2.227044177E1,1.459621787E0,-9.092725813E-2,-2.648854733E0
2.228710844E1,5.362315655E0,3.199203968E0,-5.158925533E0
2.230377510E1,-1.842473447E-1,9.590433121E0,2.318645239E0
2.232044177E1,-1.842473447E-1,9.590433121E0,2.318645239E0
2.233710844E1,-4.036691666E0,2.252603149E1,4.074976921E0
2.235377510E1,-1.339980721E0,1.889133453E1,-6.302694798E0
2.237044177E1,1.155733347E0,1.855155373E1,2.919243574E0
2.238710843E1,1.155733347E0,1.855155373E1,2.919243574E0
2.240377510E1,-2.794816732E0,1.259342575E1,1.502692580E0
2.242044176E1,-2.493321180E0,9.877572060E0,3.799802303E0
2.243710843E1,7.657032609E-1,9.528220177E0,3.495913982E0
2.245377510E1,2.612962246E0,1.055713367E1,2.608176708E0
2.247044176E1,6.005984783E0,1.029870892E1,-2.907279491E0
2.248710843E1,2.620140791E0,6.558726788E0,-3.866801500E0
2.250377510E1,-1.076770201E-1,2.227717876E0,-3.541377485E-1
2.252044176E1,-1.928615093E0,6.293123364E-1,1.127019525E0
2.253710843E1,-1.928615093E0,6.412764788E-1,3.469592929E-1
2.255377509E1,-1.928615093E0,6.412764788E-1,3.469592929E-1
2.257044176E1,-1.033220863E1,1.425883007E1,3.026920557E0
2.258710842E1,-1.112662506E1,2.301177597E1,-3.629911900E0
2.260377509E1,8.733802438E-1,2.897468948E1,-2.653640270E0
2.262044176E1,-1.737189293E0,1.394058514E1,-4.132404804E0
2.263710842E1,-1.339980662E-1,9.391828537E0,-5.833701611E0
2.265377509E1,-2.727817893E-1,8.090133667E0,-4.352544308E0
2.267044176E1,-5.623133183E-1,7.877171993E0,-6.699903607E-1
2.268710842E1,4.163511395E-1,8.190631866E0,1.871187329E0
2.270377509E1,4.163511395E-1,8.190631866E0,1.871187329E0
2.272044175E1,-5.647061467E-1,5.962913990E0,-4.331009090E-1
2.273710842E1,-3.517449200E-1,5.673382282E0,-1.445264935E0
2.275377508E1,1.785045743E0,5.637490273E0,2.227717876E0
2.277044175E1,6.769295216E0,8.360522270E0,-4.302295208E0
2.278710842E1,5.199603558E0,8.037490845E0,-4.371686935E0
2.280377508E1,3.541377485E-1,9.253045082E0,5.108676434E0
2.282044175E1,-2.780459881E0,1.074377346E1,6.845865726E0
2.283710842E1,-5.412564754E0,1.064566803E1,4.240081787E0
2.285377508E1,-2.524427891E0,1.390469265E1,-1.538584948E0
2.287044175E1,-1.387837172E0,2.245664024E1,-4.608576298E0
2.288710841E1,-7.992027402E-1,1.877169418E1,4.007977962E0
2.290377508E1,-1.892722726E0,1.183250809E1,2.691925526E0
2.292044174E1,-2.347358942E0,1.038006496E1,5.742774606E-1
2.293710841E1,-1.651047617E-1,1.193300629E1,1.794617027E-1
2.295377508E1,8.303094506E-1,8.214560509E0,7.393822074E-1
2.297044174E1,1.636690736E0,4.153940201E0,-1.361516118E0
2.298710841E1,1.299302697E0,2.565105915E0,-2.656033039E0
2.300377508E1,4.498506486E-1,7.274180651E-1,-1.660618901E0
2.302044174E1,6.843472719E-1,1.866401732E-1,1.311266780E0
2.303710841E1,1.148554921E0,6.484549642E-1,2.969492912E0
2.305377507E1,7.824530005E-1,1.694118381E0,4.118047714E0
2.307044174E1,-3.725624800E0,6.101697922E0,-6.652047038E-1
2.308710841E1,-5.374279499E0,1.519681644E1,-5.053641319E0
2.310377507E1,-5.094319344E0,2.167897224E1,-4.158725739E0
2.312044174E1,-7.537391186E-1,2.530410004E1,-2.072184324E0
2.313710840E1,7.944171429E-1,1.842712784E1,-5.285745144E0
2.315377507E1,1.579262972E0,9.434899330E0,-1.921436548E0
2.317044174E1,1.351944804E0,6.865008354E0,-7.633104324E-1
2.318710840E1,3.349951804E-1,5.180460930E0,3.235096216E0
2.320377507E1,-6.604190469E-1,4.158725739E0,1.301695466E0
2.322044173E1,-9.379864931E-1,1.765903115E0,-6.190232277E0
2.323710840E1,1.622333765E0,1.777867198E0,-9.351150513E0
2.325377507E1,5.048855782E0,5.895915031E0,9.018548965E0
2.327044173E1,4.237689018E0,1.016710377E1,-2.529931450E1
2.328710840E1,-6.336194515E0,1.607976723E1,6.355337143E0
2.330377506E1,-5.268995285E0,1.276810169E1,5.769095421E0
2.332044173E1,-2.038684845E0,1.188754272E1,-3.529413462E0
2.333710840E1,-1.849651933E0,1.393101311E1,-2.761317253E0
2.335377506E1,1.722832322E-1,1.812802505E1,1.347159147E0
2.337044173E1,6.771687865E-1,2.067877388E1,1.844866276E0
2.338710839E1,3.349951804E-1,1.647458458E1,1.696511269E0
2.340377506E1,1.284945726E0,1.014556789E1,1.232303619E0
2.342044172E1,1.284945726E0,1.014556789E1,1.232303619E0
2.343710839E1,1.033699393E0,7.958528042E0,2.091326952E0
2.345377506E1,6.963114142E-1,9.030512810E0,7.561319470E-1
2.347044172E1,2.560320199E-1,1.181097221E1,-1.931007862E0
2.348710839E1,1.689332843E0,1.237328625E1,3.761517286E0
2.350377506E1,1.708475351E0,1.002353382E1,3.503092289E0
2.352044172E1,-1.304088354E0,4.551148891E0,2.825923443E0
2.353710839E1,-1.758724689E0,3.732803464E-1,-4.955535889E0
2.355377505E1,-2.459821701E0,-1.232303619E0,-9.209974289E0
2.357044172E1,-4.802394867E0,1.450050473E0,-3.584448338E0
2.358710838E1,-5.221138954E0,7.434499741E0,2.189432621E0
2.360377505E1,2.495713949E0,2.058784676E1,8.350951076E-1
2.362044172E1,7.401000500E0,3.032424164E1,-2.608176768E-1
2.363710838E1,1.359123230E0,3.456432343E1,1.710868239E0
2.365377505E1,-5.673382282E0,3.041756058E1,1.897508383E0
2.367044172E1,-5.077569485E0,2.246621132E1,2.301895380E0
2.368710838E1,-5.563312531E0,1.848216248E1,2.644068956E0
2.370377505E1,-4.637290478E0,1.171765232E1,7.776673436E-1
2.372044171E1,-2.407179594E0,8.075776100E0,1.347159147E0
2.373710838E1,-1.785045743E0,5.529813290E0,9.714859724E-1
2.375377504E1,-2.347358942E0,3.878765583E0,-1.993221283E0
2.377044171E1,-4.414757729E0,3.450450182E0,-4.666004181E-1
2.378710838E1,-3.933800459E0,5.161318302E0,3.481556892E0
2.380377504E1,-3.933800459E0,5.161318302E0,3.481556892E0
2.382044171E1,-5.608776093E0,4.445864677E0,-1.629512191E0
2.383710838E1,-5.852844238E0,4.163511276E0,-3.840480328E0
2.385377504E1,-1.363908887E0,9.248259544E0,8.398807645E-1
2.387044171E1,-1.363908887E0,9.248259544E0,8.398807645E-1
2.388710837E1,-1.954936147E0,9.343972206E0,-7.465606689E0
2.390377504E1,6.317051649E-1,4.711467743E0,3.091526747E0
2.392044170E1,4.139583111E-1,2.967100143E0,3.349951744E0
2.393710837E1,-4.153940201E0,1.067677498E1,6.254838467E0
2.395377504E1,-5.211567879E0,2.322234344E1,7.125825882E0
2.397044170E1,-3.326023519E-1,3.398765182E1,-1.158604717E1
2.398710837E1,-8.901300430E-1,1.295234871E1,-2.835494757E0
2.400377504E1,-4.881358147E-1,7.087540627E0,7.735995770E0
2.402044170E1,-7.896314859E-1,7.740781307E0,6.384050846E0
2.403710837E1,-2.378465652E0,8.145168304E0,4.082155228E0
2.405377503E1,-3.795016766E0,8.537590981E0,2.486142635E0
2.407044170E1,-1.316052526E-1,1.062652493E1,-3.448057413E0
2.408710837E1,1.222732425E0,1.112662506E1,-3.594019651E0
2.410377503E1,-1.624726534E0,8.219346046E0,-2.244467735E0
2.412044170E1,-1.624726534E0,8.219346046E0,-2.244467735E0
2.413710836E1,-3.278166950E-1,8.736195564E0,-4.522434771E-1
2.415377503E1,-5.216353536E-1,9.169296265E0,2.569891453E0
2.417044170E1,-1.627119422E0,8.542376518E0,1.560120344E0
2.418710836E1,-2.048256159E0,7.451249599E0,9.714859724E-1
2.420377503E1,-1.818545222E0,7.197610378E0,1.074377418E0
2.422044169E1,-2.421536446E0,7.735995770E0,9.810572863E-2
2.423710836E1,4.546362907E-2,1.062413216E1,8.901300430E-1
2.425377503E1,1.907079697E0,1.133240795E1,-2.596212626E0
2.427044169E1,2.533999205E0,1.128215885E1,-4.029513359E0
2.428710836E1,3.500699520E0,1.039442158E1,-5.895915031E0
2.430377502E1,3.668197155E0,7.750352383E0,7.657032460E-2
2.432044169E1,4.347758770E0,7.511070251E0,-2.199003935E0
2.433710836E1,2.732603550E0,9.231510162E0,-4.515256405E0
2.435377502E1,-1.272981644E0,1.374437332E1,2.943171859E-1
2.437044169E1,3.708875179E0,1.645544052E1,2.222932339E0
2.438710835E1,1.962114573E0,1.875494385E1,3.029313564E0
2.440377502E1,7.250252366E-1,2.125544357E1,2.421536446E0
2.442044168E1,-3.297309637E0,2.325345039E1,7.219145775E0
2.443710835E1,-5.527420521E0,1.750349808E1,6.484549522E0
2.445377502E1,-7.173682213E0,7.659425259E0,-8.226524353E0
2.447044168E1,-6.783652306E0,5.077569485E0,-5.747560024E0
2.448710835E1,-2.335394859E0,4.986642361E0,-2.459821701E0
2.450377502E1,-1.696511269E0,7.860422611E0,3.132204771E0
2.452044168E1,-1.749153376E0,8.733802795E0,-1.660618901E0
2.453710835E1,-2.589034081E0,8.197810173E0,-5.024927482E-2
2.455377501E1,-2.854637384E0,5.752345562E0,7.896314859E-1
2.457044168E1,-2.854637384E0,5.752345562E0,7.896314859E-1
2.458710834E1,-1.966900229E0,4.051048756E0,6.819544435E-1
2.460377501E1,-1.852044702E0,4.931607246E0,1.615155339E0
2.462044168E1,-1.871187329E0,7.889136314E0,1.842473447E-1
2.463710834E1,-2.311466694E0,1.103809071E1,-5.130211830E0
2.465377501E1,-2.311466694E0,1.103809071E1,-5.130211830E0
2.467044168E1,1.060020447E0,8.743373871E0,-1.567298889E0
2.468710834E1,6.269195080E-1,7.594819069E0,-5.718846321E-1
2.470377501E1,-1.797009826E0,7.458428383E0,3.062813044E0
2.472044167E1,-2.175075769E0,9.195617676E0,2.593819857E0
2.473710834E1,-1.031306505E0,1.506999683E1,-6.805187702E0
2.475377500E1,-1.083948612E0,1.321077347E1,1.864008784E0
2.477044167E1,-1.337587833E0,1.182293701E1,5.541777134E0
2.478710834E1,-1.091127157E0,1.101894855E1,2.364108801E0
2.480377500E1,-2.837887764E0,8.618947029E0,-2.048256159E0
2.482044167E1,-2.005185366E0,7.676175117E0,-1.021735311E0
2.483710834E1,-2.005185366E0,7.676175117E0,-1.021735311E0
2.485377500E1,-8.135596663E-2,9.336793900E0,5.814558864E-1
2.487044167E1,-3.110669367E-2,1.027956581E1,-5.431707501E-1
2.488710833E1,-7.202396393E-1,1.181575775E1,5.024927482E-2
2.490377500E1,4.809573591E-1,1.053081226E1,1.028913707E-1
2.492044167E1,5.838487148E-1,8.975478172E0,-2.632104978E-2
2.493710833E1,-8.446664214E-1,6.479763508E0,5.958128572E-1
2.495377500E1,-4.785645381E-2,6.826723099E0,1.306481123E0
2.497044166E1,-5.814558864E-1,9.262616158E0,3.900300860E-1
2.498710833E1,-1.217946768E0,9.796216011E0,-3.086741269E-1
2.500377500E1,-4.450650215E-1,1.011924744E1,-9.499505758E-1
2.502044166E1,7.848458290E-1,1.073180962E1,-1.651047617E-1
2.503710833E1,6.915257573E-1,1.029870892E1,1.182054400E0
2.505377499E1,5.383850932E-1,9.525827408E0,-2.227717876E0
2.507044166E1,2.926422119E0,7.831708431E0,-4.725824833E0
2.508710833E1,2.321038008E0,3.943371773E0,-2.667997360E0
2.510377499E1,5.228317261E0,1.064806104E0,-2.979064226E0
2.512044166E1,4.357329845E0,1.986042857E-1,-1.797009826E0
2.513710832E1,7.585247755E-1,4.737788737E-1,9.882357717E-1
2.515377499E1,5.814558864E-1,1.749153376E0,-4.091726840E-1
2.517044166E1,7.178468257E-2,5.388636589E0,1.636690736E0
2.518710832E1,-9.355936646E-1,7.951349735E0,3.933800459E0
2.520377499E1,-4.053441525E0,1.485225010E1,-3.876372576E-1
2.522044165E1,-7.994420528E0,2.241596222E1,-3.613162339E-1
2.523710832E1,-6.491727829E0,2.060938072E1,-2.739781857E0
2.525377499E1,-5.087141037E0,1.782892227E1,-3.735196114E0
2.527044165E1,-2.086541414E0,1.234935760E1,-7.508677483E0
2.528710832E1,2.076970100E0,1.212682533E1,-5.888736725E0
2.530377498E1,1.452443361E0,9.999606133E0,-5.324030399E0
2.532044165E1,-3.230310678E-1,7.185646534E0,-1.567298889E0
2.533710832E1,-1.667797327E0,6.197410583E0,3.768695593E0
2.535377498E1,-3.996013701E-1,4.335794449E0,-2.797209740E0
2.537044165E1,1.222732425E0,4.867001057E0,-6.630511761E0
2.538710831E1,3.572484255E0,5.826523304E0,1.124626622E-1
2.540377498E1,5.132604599E0,7.008577347E0,-1.052842021E0
2.542044164E1,2.225325108E0,6.924828529E0,2.512463808E0
2.543710831E1,-4.474578202E-1,7.247859955E0,5.158925533E0
2.545377498E1,-1.579262972E0,1.435693550E1,7.030112743E0
2.547044164E1,-3.725624800E0,2.039641953E1,-7.226324558E0
2.548710831E1,-1.048056364E0,1.282313633E1,-2.452643156E0
2.550377498E1,2.991028428E-1,1.415833187E1,7.776673436E-1
2.552044164E1,-2.452643156E0,1.743410492E1,4.453042984E0
2.553710831E1,-5.850451469E0,1.518006706E1,3.010170937E0
2.555377497E1,0.000000000E0,1.217946720E1,1.562513232E0
2.557044164E1,1.816152334E0,1.183250809E1,3.469592929E-1
2.558710830E1,4.259224415E0,1.031306553E1,-1.560120344E0
2.560377497E1,3.689732552E0,4.910071850E0,-2.368894368E-1
2.562044164E1,2.447857618E0,3.421736360E-1,-5.510670662E0
2.563710830E1,1.438086390E0,-1.272981644E0,-4.426722050E0
2.565377497E1,-1.789831281E0,-1.603191137E0,5.312066078E-1
2.567044164E1,-1.375872970E0,1.395015597E0,3.486342669E0
2.568710830E1,-1.375872970E0,1.395015597E0,3.486342669E0
2.570377497E1,-4.599005222E0,1.215553856E1,2.596212626E0
2.572044163E1,-6.659225464E0,2.728057098E1,-2.809173822E0
2.573710830E1,-1.789831281E0,2.450250435E1,-5.960521221E0
2.575377496E1,-1.732403636E0,1.469193077E1,-5.639883041E0
2.577044163E1,1.172483116E-1,1.298345566E1,-4.089334011E0
2.578710830E1,8.877372146E-1,7.173682213E0,-1.940579176E0
2.580377496E1,8.877372146E-1,7.173682213E0,-1.940579176E0
2.582044163E1,-4.331009090E-1,4.536791801E0,1.694118381E0
2.583710830E1,-1.100698471E0,4.005585194E0,1.215553880E0
2.585377496E1,-9.284151793E-1,3.974478483E0,-3.333201885E0
2.587044163E1,1.150947690E0,5.252245903E0,-2.991028428E-1
2.588710829E1,2.438286304E0,5.596812248E0,1.646261930E0
2.590377496E1,6.439085960E0,5.108676434E0,-6.790830612E0
2.592044163E1,3.651447296E0,8.499305725E0,3.249453068E0
2.593710829E1,-6.742974281E0,1.012881851E1,3.390629768E0
2.595377496E1,-7.891529083E0,1.333998585E1,2.282752752E0
2.597044162E1,-7.393822074E-1,1.314377499E1,-5.410171986E0
2.598710829E1,-1.959721804E0,1.862094498E1,5.414957523E0
2.600377496E1,2.845066071E0,2.026002884E1,1.555334777E-1
2.602044162E1,2.974278450E0,1.754178238E1,-2.091326952E0
2.603710829E1,-8.685946465E-1,1.131326580E1,3.548556089E0
2.605377495E1,3.675375462E0,1.258146191E1,5.647061467E-1
2.607044162E1,2.478964329E0,1.063131142E1,-1.004985496E-1
2.608710829E1,1.610369682E0,8.444271088E0,-9.571290761E-2
2.610377495E1,3.644268990E0,4.902893543E0,2.153540403E-2
2.612044162E1,2.799602509E0,2.452643156E0,-8.135596663E-2
2.613710828E1,9.092725813E-2,8.805587292E-1,-4.689932466E-1
2.615377495E1,-1.505085468E0,4.115654826E-1,-7.537391186E-1
2.617044162E1,-2.270788670E0,5.929414749E0,-2.172683001E0
2.618710828E1,-4.445864677E0,1.711825371E1,3.144168854E0
2.620377495E1,-4.445864677E0,1.711825371E1,3.144168854E0
2.622044161E1,-5.345565796E0,2.373919296E1,-3.383451223E0
2.623710828E1,-5.838487148E0,1.791027832E1,-4.608576298E0
2.625377494E1,-4.441078663E0,1.390469265E1,-3.639483213E0
2.627044161E1,1.682154298E0,9.463613510E0,-9.810572863E-1
2.628710828E1,3.361915827E0,8.183453560E0,1.579262912E-1
2.630377494E1,2.926422119E0,5.324030399E0,2.605783939E0
2.632044161E1,1.459621787E0,3.737588882E0,3.622733593E0
2.633710828E1,1.459621787E0,3.737588882E0,3.622733593E0
2.635377494E1,1.866401672E0,2.902493954E0,-5.934200287E0
2.637044161E1,3.862015724E0,3.634697676E0,-2.658426046E0
2.638710827E1,1.027478027E1,9.595218658E0,1.481157184E0
2.640377494E1,1.027478027E1,9.595218658E0,1.481157184E0
2.642044160E1,-5.623133183E-1,9.171689034E0,3.632304668E0
2.643710827E1,-5.434100151E0,9.322437286E0,3.096312523E0
2.645377494E1,-3.270988464E0,1.396451283E1,-2.560320139E0
2.647044160E1,-9.714859724E-1,1.294756317E1,-1.122233868E0
2.648710827E1,1.581655741E0,1.477567959E1,1.203589797E0
2.650377494E1,3.708875179E-1,1.917129517E1,6.771687865E-1
2.652044160E1,3.708875179E-1,1.917129517E1,6.771687865E-1
2.653710827E1,-4.352544308E0,1.430668640E1,1.617548108E0
2.655377493E1,-3.282952785E0,9.726823807E0,1.964507341E0
2.657044160E1,2.179861546E0,8.154739380E0,-6.412764788E-1
2.658710826E1,2.823530674E0,6.084948063E0,1.552941918E0
2.660377493E1,2.397608280E0,4.943571568E0,1.342373490E0
2.662044160E1,2.622533560E0,2.000399828E0,-9.092726111E-1
2.663710826E1,-1.651047617E-1,1.014556766E0,-3.912265062E0
2.665377493E1,-2.426322222E0,1.816152334E0,-2.612962246E0
2.667044160E1,-4.924428940E0,4.541577339E0,4.498506486E-1
2.668710826E1,-4.926821709E0,1.237089348E1,4.651647091E0
2.670377493E1,-6.534798622E0,2.235853386E1,-1.890329868E-1
2.672044159E1,-5.503492057E-2,2.381097794E1,-2.991028309E0
2.673710826E1,-9.044869542E-1,2.210250282E1,-7.326822758E0
2.675377493E1,-2.239681959E0,1.694836235E1,-4.706682205E0
2.677044159E1,-2.239681959E0,1.694836235E1,-4.706682205E0
2.678710826E1,1.057627559E0,5.836094379E0,-1.332802176E0
2.680377492E1,4.067798555E-1,6.530013084E0,1.507478207E-1
2.682044159E1,-2.584248483E-1,3.919443607E0,7.465606928E-1
2.683710826E1,1.086341500E0,1.060020447E0,-4.785645306E-1
2.685377492E1,2.287538528E0,7.393822074E-1,-5.934200287E-1
2.687044159E1,2.287538528E0,7.393822074E-1,-5.934200287E-1
2.688710825E1,3.859622955E0,4.541577339E0,2.847459018E-1
2.690377492E1,3.220739365E0,1.008574772E1,-2.933600664E0
2.692044159E1,-4.077369690E0,1.185643578E1,5.271388054E0
2.693710825E1,-5.855237007E0,1.348355579E1,6.876972198E0
2.695377492E1,-1.713261008E0,1.814477348E1,-2.182254314E0
2.697044158E1,2.328216314E0,2.215514565E1,-2.170290232E0
2.698710825E1,7.992027402E-1,2.315295219E1,2.122433662E0
2.700377492E1,-3.397808075E0,1.776910019E1,3.074777126E0
2.702044158E1,-3.538984776E0,1.320838070E1,2.426322222E0
2.703710825E1,-3.538984776E0,1.320838070E1,2.426322222E0
2.705377491E1,-4.522434771E-1,1.139701462E1,2.679961324E-1
2.707044158E1,2.048256159E0,7.680960655E0,-9.284151793E-1
2.708710825E1,9.116654396E-1,5.615954876E0,2.892922640E0
2.710377491E1,1.160519004E0,3.000599623E0,1.761117458E0
2.712044158E1,1.423729420E0,1.816152334E0,-8.422735929E-1
2.713710824E1,1.438086390E0,-1.004985496E-1,-4.689932346E0
2.715377491E1,1.196411345E-2,7.178467698E-3,8.039883971E-1
2.717044158E1,4.857429862E-1,1.000199914E0,4.113262177E0
2.718710824E1,-6.939185858E-1,2.172683001E0,4.974678040E0
2.720377491E1,-6.821937561E0,7.752745152E0,-3.464807272E0
2.722044157E1,-5.142175674E0,1.973600197E1,-2.256431818E0
2.723710824E1,-2.266003132E0,3.002274513E1,-2.122433662E0
2.725377490E1,5.934200287E-1,2.818266487E1,-3.393022537E0
2.727044157E1,1.978864312E0,1.370608807E1,-2.110469580E0
2.728710824E1,1.794616938E0,6.381658077E0,-2.002792597E0
2.730377490E1,-1.507478207E-1,5.149354458E0,2.175075769E0
2.732044157E1,-7.298108935E-1,4.740181446E0,2.754138947E0
2.733710824E1,-8.470591903E-1,3.527020693E0,-1.014556766E0
2.735377490E1,1.864008784E0,2.036292076E0,-3.577269793E0
2.737044157E1,1.864008784E0,2.036292076E0,-3.577269793E0
2.738710823E1,5.314459324E0,3.598805189E0,-6.939185858E-1
2.740377490E1,3.206382394E-1,9.801001549E0,-1.009292603E1
2.742044156E1,-1.060020447E1,1.414158154E1,1.231107235E1
2.743710823E1,-9.140582681E-1,1.538345718E1,-4.378865361E-1
2.745377490E1,1.002592683E0,1.485703564E1,-7.432106972E0
2.747044156E1,2.770888567E0,1.778345871E1,-4.036691666E0
2.748710823E1,1.261017561E0,2.223889351E1,6.101697922E0
2.750377490E1,1.261017561E0,2.223889351E1,6.101697922E0
2.752044156E1,4.713860750E-1,1.266042423E1,2.679961443E0
2.753710823E1,1.631905079E0,1.057149029E1,2.014756680E0
2.755377489E1,2.756531715E0,1.210289669E1,1.014556766E0
2.757044156E1,2.988635540E0,1.306959724E1,-4.043870270E-1
2.758710822E1,1.856830359E0,1.377308750E1,1.205982566E0
2.760377489E1,7.345965505E-1,9.872786522E0,2.029113531E0
2.762044156E1,-3.613162339E-1,4.718646049E0,1.064806104E0
2.763710822E1,-1.146162033E0,2.713460922E0,-7.609176040E-1
2.765377489E1,-2.337787628E0,-4.570291340E-1,-1.880758643E0
2.767044156E1,-3.079562664E0,-9.906286001E-1,1.490728498E0
2.768710822E1,-3.656233072E0,-3.637090325E-1,9.236295223E-1
2.770377489E1,-4.457828522E0,1.172483087E0,2.129612207E0
2.772044155E1,-5.974878311E0,7.903493404E0,2.423929453E0
2.773710822E1,5.563312531E0,3.721078491E1,-6.163911343E0
2.775377489E1,3.483949661E0,4.756692123E1,1.129412293E0
2.777044155E1,-2.734996319E0,4.285545349E1,-3.754338741E0
2.778710822E1,-5.180460930E0,2.391626167E1,1.107876897E0
2.780377488E1,-5.180460930E0,2.391626167E1,1.107876897E0
2.782044155E1,-3.034099102E0,5.991627693E0,-2.344966233E-1
2.783710822E1,-2.615355253E0,4.548755646E0,-1.531406492E-1
2.785377488E1,-2.000399828E0,3.543770313E0,1.674975872E0
2.787044155E1,-2.560320139E0,3.378665686E0,1.366301775E0
2.788710821E1,-3.144168854E0,4.728217602E0,1.148554921E0
2.790377488E1,-3.586841106E0,5.539384365E0,1.500299811E0
2.792044155E1,-5.012963295E0,6.731009960E0,1.100698411E-1
2.793710821E1,-5.012963295E0,6.731009960E0,1.100698411E-1
2.795377488E1,-1.359123230E0,7.654639721E0,1.629512191E0
2.797044154E1,-1.119840980E0,7.994420528E0,5.170889854E0
2.798710821E1,-5.077569485E0,1.110748291E1,-1.222253799E1
2.800377488E1,-2.297109663E-1,5.575276852E0,-3.237488985E0
2.802044154E1,-2.297109663E-1,5.575276852E0,-3.237488985E0
2.803710821E1,5.264210105E-1,2.988635540E0,4.192225456E0
2.805377487E1,-7.058826685E-1,1.076291656E1,6.541976929E0
2.807044154E1,-1.703689694E0,3.186761284E1,5.895915031E0
2.808710821E1,-1.703689694E0,3.186761284E1,5.895915031E0
2.810377487E1,-4.019941807E0,1.504128361E1,-1.306002617E1
2.812044154E1,-1.249053478E0,6.513263226E0,5.484349728E0
2.813710820E1,-1.110269666E0,6.178267956E0,4.694717884E0
2.815377487E1,-1.095912814E0,5.972485542E0,3.864408493E0
2.817044154E1,-1.911865234E0,6.910471916E0,2.624926329E0
2.818710820E1,2.009970993E-1,1.064566803E1,-1.294517040E0
2.820377487E1,9.930213690E-1,1.095673466E1,-2.342573404E0
2.822044153E1,-4.785645381E-2,9.501898766E0,-1.780260086E0
2.823710820E1,-6.867401004E-1,8.331808090E0,-2.754138947E0
2.825377486E1,-9.834501147E-1,8.870193481E0,-1.244267821E0
2.827044153E1,-2.368894368E-1,1.016231823E1,3.474378586E0
2.828710820E1,-6.747759581E-1,9.748359680E0,4.366901398E0
2.830377486E1,-2.969492912E0,8.341380119E0,1.071984529E0
2.832044153E1,-3.160918713E0,8.997013092E0,-1.883151412E0
2.833710820E1,-3.160918713E0,8.997013092E0,-1.883151412E0
2.835377486E1,8.015955687E-1,1.160997581E1,-1.012163997E0
2.837044153E1,1.105484009E0,1.064327526E1,-2.785245657E0
2.838710819E1,1.962114573E0,1.022692394E1,-2.555534601E0
2.840377486E1,3.273381472E0,8.494520187E0,-2.842673302E0
2.842044152E1,3.158525944E0,7.168896675E0,1.914258115E-2
2.843710819E1,2.718246460E0,7.144968510E0,4.307080805E-1
2.845377486E1,5.216353536E-1,1.353380489E1,-8.078168869E0
2.847044152E1,-1.746760488E0,1.188993549E1,-7.441678643E-1
2.848710819E1,2.392822653E-1,1.248335552E1,1.684547186E0
2.850377486E1,6.029912829E-1,1.963071632E1,7.817351341E0
2.852044152E1,6.029912829E-1,1.963071632E1,7.817351341E0
2.853710819E1,-4.115654945E0,2.176272202E1,6.879364967E0
2.855377485E1,-3.718446493E0,1.572084522E1,3.617947817E0
2.857044152E1,-3.842873096E0,6.424728870E0,-7.496713161E0
2.858710818E1,-3.321237803E0,3.361915827E0,-5.106283665E0
2.860377485E1,-3.321237803E0,3.361915827E0,-5.106283665E0
2.862044152E1,-1.459621787E0,8.532805443E0,-2.883351326E0
2.863710818E1,-1.332802176E0,9.446864128E0,-8.638089895E-1
2.865377485E1,-2.155933142E0,7.286144733E0,3.828516304E-1
2.867044152E1,-1.588834286E0,5.077569485E0,1.002592683E0
2.868710818E1,-1.287338614E0,4.350151539E0,1.244267821E0
2.870377485E1,-3.158525825E-1,3.744767427E0,5.383850932E-1
2.872044151E1,8.374879509E-2,3.780659676E0,6.029912829E-1
2.873710818E1,2.440679073E-1,4.371686935E0,9.068797827E-1
2.875377485E1,7.417750359E-2,7.003791809E0,-2.723032236E0
2.877044151E1,-7.776673436E-1,1.260060406E1,-3.665804386E0
2.878710818E1,7.034898400E-1,1.361037540E1,-5.278566837E0
2.880377484E1,8.279166222E-1,1.181575775E1,-2.455035925E0
2.882044151E1,-1.591227055E0,8.001599312E0,6.364908218E-1
2.883710818E1,-1.933400750E0,8.903693199E0,-6.173482537E-1
2.885377484E1,-2.608176708E0,7.843672752E0,-1.828116536E0
2.887044151E1,-2.309073925E0,1.012642574E1,-1.414158225E0
2.888710817E1,-2.914458036E0,1.754896164E1,4.381258488E0
2.890377484E1,-1.411765367E-1,1.748914146E1,-3.720839262E0
2.892044151E1,-6.939185858E-1,8.126026154E0,3.342773199E0
2.893710817E1,-9.738788009E-1,5.831308842E0,1.361516118E0
2.895377484E1,-3.302095234E-1,6.130411625E0,9.595218897E-1
2.897044150E1,-1.555334687E0,9.090332985E0,2.663211584E0
2.898710817E1,-4.256831646E0,1.015753174E1,4.211367965E-1
2.900377484E1,-3.524627686E0,9.590433121E0,-2.751746178E-1
2.902044150E1,-3.924229145E-1,9.056833267E0,-5.264209956E-2
2.903710817E1,5.718846321E-1,9.382257462E0,-5.240281820E-1
2.905377483E1,5.718846321E-1,9.382257462E0,-5.240281820E-1
2.907044150E1,3.469592929E-1,8.432307243E0,-3.014956415E-1
2.908710816E1,2.656033039E-1,6.726224422E0,3.972085714E-1
2.910377483E1,1.914258115E-2,5.577669621E0,1.351944804E0
2.912044150E1,-3.158525825E-1,6.290730953E0,6.604190469E-1
2.913710816E1,9.571290575E-3,7.578069210E0,-1.722832322E-1
2.915377483E1,1.036092162E0,9.047262192E0,-2.591426849E0
2.917044150E1,1.064806104E0,8.595019341E0,-1.935793519E0
2.918710816E1,1.292124271E0,8.248059273E0,8.901300430E-1
2.920377483E1,1.696511269E0,8.161917686E0,9.571290575E-3
2.922044149E1,2.354537487E0,7.590033531E0,-1.205982566E0
2.923710816E1,2.354537487E0,7.590033531E0,-1.205982566E0
2.925377482E1,1.739582062E0,9.355937004E0,2.392822653E-1
2.927044149E1,1.852044702E0,1.061456108E1,-7.944171429E-1
2.928710816E1,2.411965132E0,9.265008926E0,-1.256231904E0
2.930377482E1,3.426522017E0,6.372086525E0,-1.241874933E0
2.932044149E1,3.311666489E0,5.304887772E0,-2.502892494E0
2.933710816E1,1.942971945E0,5.364708424E0,-2.565105915E0
2.935377482E1,1.366301775E0,7.520641804E0,-1.880758643E0
2.937044149E1,-1.856830359E0,1.056431198E1,-2.038684845E0
2.938710815E1,-3.895515203E0,1.274178028E1,5.431707501E-1
2.940377482E1,-5.130211830E0,1.771885109E1,3.058027267E0
2.942044148E1,-6.597012043E0,1.936272049E1,1.828116536E0
2.943710815E1,-9.552147865E0,1.350748348E1,-3.680161238E0
2.945377482E1,-8.697910309E0,1.340937805E1,-3.448057413E0
2.947044148E1,-4.067798555E-1,1.239721394E1,-5.668596745E0
2.948710815E1,5.647061467E-1,1.031306553E1,-4.847858906E0
2.950377482E1,3.629911900E0,9.401400566E0,-4.259224415E0
2.952044148E1,4.089334011E0,8.590232849E0,-3.067598581E0
2.953710815E1,4.237689018E0,7.116254330E0,-1.138983607E0
2.955377481E1,2.639283419E0,5.977271080E0,8.733802438E-1
2.957044148E1,-7.369893789E-1,4.541577339E0,3.189632654E0
2.958710815E1,-1.325623751E0,3.428914785E0,1.830509305E0
2.960377481E1,1.684547186E0,3.235096216E0,-3.716053486E0
2.962044148E1,3.242274761E0,3.993621111E0,4.283152521E-1
2.963710814E1,6.597012043E0,4.807180882E0,1.339980662E-1
2.965377481E1,2.653640270E0,6.917650223E0,3.754338741E0
2.967044148E1,3.086741269E-1,1.307916832E1,6.300302029E0
2.968710814E1,-1.603191137E0,2.123869324E1,-3.175275564E0
2.970377481E1,1.004985496E-1,2.160718918E1,-2.287538528E0
2.972044147E1,-5.431707501E-1,1.487139320E1,-3.294916868E0
2.973710814E1,-1.715653777E0,9.925428391E0,-2.411965132E0
2.975377481E1,-4.053441525E0,1.447896957E1,1.677368641E0
2.977044147E1,-5.962913990E0,1.527817249E1,2.926422119E0
2.978710814E1,-2.081755638E0,1.373719501E1,2.541177750E0
2.980377480E1,1.241874933E0,1.205982590E1,1.143769264E0
2.982044147E1,1.241874933E0,1.205982590E1,1.143769264E0
2.982044147E1,1.438086390E0,1.248096275E1,-6.771687865E-1
2.985377480E1,5.575276613E-1,1.092562866E1,-6.125625968E-1
2.987044147E1,2.388036966E0,8.346165657E0,1.550549030E0
2.988710813E1,2.770888567E0,5.903093338E0,3.632304668E0
2.990377480E1,2.206182480E0,4.823930264E0,3.804588079E0
2.992044147E1,1.567298889E0,1.813759565E0,-1.694118381E0
2.993710813E1,-3.421736360E-1,-5.814558864E-1,-6.855436802E0
2.995377480E1,-3.893122435E0,3.692125320E0,-1.155733347E0
2.997044146E1,-3.570091486E0,5.670989513E0,-5.264209956E-2
2.998710813E1,-4.816751957E0,1.043988514E1,-2.871387303E-1
3.000377480E1,-4.398007870E0,1.604866219E1,9.571290575E-3
3.002044146E1,-3.737588882E0,1.755613899E1,2.895315289E-1
3.003710813E1,-3.177668571E0,1.715175247E1,-6.245267391E-1
3.005377479E1,-1.428515077E0,1.378026581E1,-4.974678040E0
3.007044146E1,1.897508383E0,1.236132145E1,-5.123033047E0
3.008710812E1,1.875972986E0,8.664410591E0,-3.251846075E0
3.010377479E1,3.110669367E-2,6.946363926E0,3.828516230E-2
3.012044146E1,-1.540977836E0,6.671189308E0,4.445864677E0
3.013710812E1,-4.546362877E0,5.424529076E0,-3.661018610E-1
3.015377479E1,-4.929214716E-1,9.530612946E0,-1.761117458E0
3.017044146E1,1.785045743E0,1.070070267E1,-1.131805062E0
3.018710812E1,2.806781054E0,8.973084450E0,-1.210768223E0
3.020377479E1,2.782852650E0,5.111069202E0,-1.971685886E0
3.022044145E1,3.165704250E0,2.557927370E0,-2.038684845E0
3.023710812E1,3.527020693E0,2.888136864E0,-4.402793646E-1
3.025377478E1,7.154539824E-1,8.042277336E0,4.883750916E0
3.027044145E1,-4.457828522E0,1.277288723E1,6.862615108E0
3.028710812E1,-4.457828522E0,1.277288723E1,6.862615108E0
3.030377478E1,9.236295223E-1,1.341177082E1,-3.596412420E0
3.032044145E1,1.095912814E0,1.224407387E1,-2.548356056E0
3.033710812E1,-4.539184570E0,1.738385582E1,3.421736479E0
3.035377478E1,-3.938585997E0,1.822134399E1,-2.177468538E-1
3.037044145E1,-1.550549030E0,1.407697582E1,-3.924229145E-1
3.038710811E1,-9.284151793E-1,8.410771370E0,4.546362907E-2
3.040377478E1,-7.776673436E-1,6.139982700E0,2.187039852E0
3.042044144E1,8.853443861E-1,8.456234932E0,4.151547432E0
3.043710811E1,2.579462767E0,9.616754532E0,2.974278450E0
3.045377478E1,5.034498692E0,8.853444099E0,-2.677568436E0
3.047044144E1,4.177868366E0,5.347958565E0,-3.113062143E0
3.048710811E1,1.160519004E0,3.314059258E0,-2.787638426E0
3.050377478E1,-1.928615093E0,1.385444283E0,7.896314561E-2
3.052044144E1,-2.964707375E0,3.500699520E0,-9.786644578E-1
3.053710811E1,-4.051048756E0,1.005464077E1,2.603390932E0
3.055377477E1,-4.962714195E0,1.542892075E1,9.116654396E-1
3.057044144E1,-2.725425005E0,2.514377975E1,-5.335994363E-1
3.058710811E1,-3.194418192E0,2.283709908E1,-4.491328239E0
3.060377477E1,-3.567698479E0,1.628315735E1,-5.682953835E0
3.062044144E1,-3.775874138E0,1.387597847E1,-5.314459324E0
3.063710810E1,4.737788737E-1,1.090648556E1,1.765903115E0
3.065377477E1,3.213560820E0,7.030112743E0,1.483550072E0
3.067044144E1,3.069991350E0,4.378865242E0,1.890329868E-1
3.068710810E1,2.088934183E0,3.247060299E0,1.052841991E-1
3.070377477E1,-1.347159147E0,1.320838094E0,-2.871387079E-2
3.072044143E1,-7.776673436E-1,8.135597110E-1,-1.710868239E0
3.073710810E1,2.849851847E0,3.818944931E0,9.762716293E-1
3.075377477E1,5.565705299E0,4.991427898E0,-3.620340586E0
3.077044143E1,7.006184578E0,6.759724140E0,3.862015724E0
3.078710810E1,-1.572084427E0,9.549755096E0,1.579262912E-1
3.080377476E1,-5.529813290E0,1.169372463E1,2.995813847E0
3.082044143E1,-4.541577339E0,1.318684578E1,-7.728816867E-1
3.083710810E1,8.135597110E-1,1.184686470E1,-2.986242771E0
3.085377476E1,2.679961443E0,1.695314789E1,1.612762451E0
3.087044143E1,6.604190469E-1,2.211446762E1,5.931807518E0
3.088710809E1,-7.776673436E-1,2.141337013E1,2.804388046E0
3.090377476E1,-2.306680918E0,1.586202145E1,1.777867198E0
3.092044143E1,1.773081541E0,1.134915733E1,-7.441678643E-1
3.093710809E1,1.773081541E0,1.134915733E1,-7.441678643E-1
3.095377476E1,5.766702294E-1,8.157132149E0,2.653640270E0
3.097044142E1,-1.117448211E0,5.551348686E0,-3.754338741E0
3.098710809E1,-4.857429862E-1,2.560320139E0,-4.362115860E0
3.100377476E1,-4.857429862E-1,2.560320139E0,-4.362115860E0
3.102044142E1,-9.667003751E-1,9.882357717E-1,7.417750359E-1
3.103710809E1,-2.076970100E0,3.371487141E0,3.553341627E0
3.105377475E1,-3.232703447E0,1.314856052E1,3.060420275E0
3.107044142E1,-5.575276852E0,1.937947083E1,-4.845465660E0
3.108710808E1,-2.017149448E0,2.263610268E1,2.172683001E0
3.110377475E1,-4.027120590E0,1.520399475E1,-5.922235966E0
3.112044142E1,-4.515256405E0,1.572802353E1,-2.411965132E0
3.113710808E1,-3.266202927E0,1.643151283E1,-2.770888567E0
3.115377475E1,-6.915257573E-1,1.097587776E1,-2.201396942E0
3.117044142E1,2.199003935E0,7.645068169E0,2.392822690E-2
3.118710808E1,2.400001049E0,7.121040344E0,2.986242771E0
3.120377475E1,2.002792597E0,6.994220734E0,3.321237803E0
3.122044141E1,1.368694544E0,7.992027760E0,-2.177468538E0
3.123710808E1,1.294517040E0,8.319844246E0,-1.624726534E0
3.125377474E1,5.852844238E0,7.944170952E0,-2.560320199E-1
3.127044141E1,6.544369698E0,6.769295216E0,-2.864208698E0
3.128710808E1,6.778866768E0,3.079562664E0,2.132004976E0
3.130377474E1,9.236295223E-1,4.433900356E0,4.175475597E0
3.132044141E1,9.236295223E-1,4.433900356E0,4.175475597E0
3.133710808E1,-3.024527788E0,8.712266922E0,4.051048756E0
3.135377474E1,3.206382394E-1,1.055234814E1,-1.080598736E1
3.137044141E1,2.464607239E0,1.260778236E1,-2.438286304E0
3.138710807E1,2.464607239E0,1.260778236E1,-2.438286304E0
3.140377474E1,-6.508477330E-1,2.569891548E1,6.939185619E0
3.142044141E1,-7.302894592E0,1.763270950E1,4.204189301E0
3.143710807E1,-1.801795483E0,1.174875927E1,2.210968018E0
3.145377474E1,6.388836503E-1,1.011924744E1,-7.848458290E-1
3.147044140E1,1.725225091E0,1.002831936E1,-2.660818815E0
3.148710807E1,8.470591903E-1,7.451249599E0,6.628118753E-1
3.150377474E1,5.024927258E-1,4.457828522E0,8.566305041E-1
3.152044140E1,-6.460621208E-2,1.971685886E0,2.727817893E-1
3.153710807E1,-5.383850932E-1,7.226324677E-1,-1.574477315E0
3.155377473E1,-1.957328916E0,-6.747759581E-1,-1.246660590E0
3.157044140E1,-3.847658873E0,3.440878868E0,-3.278166950E-1
3.158710807E1,-5.168497086E0,7.278966427E0,3.053241730E0
3.160377473E1,-6.666403770E0,2.050888252E1,-3.907479286E0
3.162044140E1,-2.021935225E0,2.521795845E1,-3.146561861E0
3.163710806E1,-2.021935225E0,2.521795845E1,-3.146561861E0
3.165377473E1,1.320838094E0,1.261256790E1,-4.859822750E0
3.167044140E1,2.359323025E0,1.029392338E1,-2.679961324E-1
3.168710806E1,1.631905079E0,9.087940216E0,1.813759565E0
3.170377473E1,7.178468108E-1,7.764709473E0,1.741974831E0
3.172044139E1,2.871387303E-1,7.077969551E0,7.752745152E-1
3.173710806E1,-1.239482164E0,3.960121393E0,-2.519642353E0
3.175377473E1,-6.652047038E-1,2.285145521E0,-1.887937069E0
3.177044139E1,1.720439434E0,2.636890650E0,2.720639229E0
3.178710806E1,3.491128206E0,3.579662561E0,2.928814888E0
3.180377472E1,8.379665375E0,6.987041950E0,9.834501147E-1
3.182044139E1,-2.328216314E0,1.374198055E1,-2.763710260E0
3.183710806E1,-1.026042366E1,9.779465675E0,2.878565550E0
3.185377472E1,-5.848058701E0,9.298508644E0,1.890329838E0
3.187044139E1,1.088734269E0,1.455554008E1,-3.905086517E0
3.188710805E1,4.838287354E0,2.033899307E1,8.255237937E-1
3.190377472E1,3.134597540E-1,2.045384789E1,2.833101988E0
3.192044139E1,-2.462214470E0,1.749871254E1,2.124826431E0
3.193710805E1,-3.948157430E-1,1.325145149E1,2.622533560E0
3.195377472E1,-3.541377485E-1,1.045663452E1,7.058826685E-1
3.197044138E1,5.982056856E-1,9.616754532E0,4.761717021E-1
3.198710805E1,1.500299811E0,1.043988514E1,5.455635786E-1
3.200377472E1,1.938186288E0,1.311266804E1,9.140582681E-1
3.202044138E1,2.885744095E0,1.140897846E1,2.569891453E0
3.203710805E1,2.560320199E-1,4.795216560E0,2.730210543E0
3.205377471E1,-4.283152521E-1,2.553141832E0,7.369893789E-1
3.207044138E1,-1.483550072E0,-8.087740541E-1,-3.682554007E0
3.208710804E1,-4.536791801E0,-5.814558864E-1,4.785645381E-2
3.210377471E1,-7.688138962E0,3.249453068E0,2.335394859E0
3.212044138E1,-7.664210796E0,6.058627129E0,2.600998163E0
3.213710804E1,2.431107759E0,2.045863342E1,-4.785645287E-3
3.215377471E1,8.989834785E0,4.149633026E1,3.395415306E0
3.217044138E1,3.596412420E0,4.339144516E1,1.861616015E0
3.218710804E1,-4.776073933E0,3.354737473E1,-3.567698479E0
3.220377471E1,-5.108676434E0,1.940579224E1,2.414358139E0
3.222044137E1,-7.800601959E0,1.020538902E1,-2.199003935E0
3.223710804E1,-8.300702095E0,8.334200859E0,-6.652047038E-1
3.225377471E1,-7.027719975E0,7.312466145E0,-6.245267391E-1
3.227044137E1,-4.381258488E0,6.238088608E0,4.713860750E-1
3.228710804E1,-1.785045743E0,3.763910055E0,3.661018610E-1
3.230377470E1,-1.182054400E0,2.715853691E0,5.551348329E-1
3.232044137E1,-6.484549642E-1,1.067198873E0,1.442872047E0
3.233710804E1,-6.963114142E-1,4.666004181E-1,2.445464849E0
3.235377470E1,-4.197010994E0,1.359123230E0,-3.708396530E1
3.237044137E1,1.189232826E0,2.330609322E0,-6.671189308E0
3.238710803E1,8.111668825E-1,1.004985523E1,-5.190032482E0
3.240377470E1,-1.993221283E0,9.918250084E0,2.153540403E-1
3.242044136E1,4.101297855E0,6.417550564E0,7.135396957E0
3.243710803E1,2.581855536E0,1.347159195E1,7.678567886E0
3.245377470E1,-2.057827473E0,2.960639381E1,4.431507587E0
3.247044136E1,-7.269395351E0,2.077687836E1,-3.062813044E0
3.248710803E1,-6.077769399E-1,1.375633717E1,-3.948157430E-1
3.250377470E1,9.355936646E-1,1.273699474E1,1.172483087E0
3.252044136E1,1.545763373E0,1.433779335E1,1.806581140E0
3.253710803E1,-9.332008362E-1,1.466082478E1,-5.072783828E-1
3.255377469E1,-9.332008362E-1,1.466082478E1,-5.072783828E-1
3.257044136E1,-2.933600664E0,7.786244869E0,6.630511761E0
3.258710802E1,-2.400001049E0,6.357729912E0,-3.732803464E-1
3.260377469E1,-1.734796405E0,6.183053493E0,-4.790431023E0
3.262044136E1,-1.734796405E0,6.183053493E0,-4.790431023E0
3.263710802E1,-8.997012973E-1,8.341380119E0,-1.447657704E0
3.265377469E1,-3.316452265E0,7.219145775E0,-6.053841114E-1
3.267044136E1,-2.981456995E0,5.493920803E0,-4.505684853E0
3.268710802E1,1.986042857E-1,6.623332977E0,-4.508078098E0
3.270377469E1,-2.201396823E-1,7.393822193E0,-2.124826431E0
3.272044135E1,9.571290575E-3,8.346165657E0,2.646461725E0
3.273710802E1,-2.656033039E-1,7.575676441E0,3.113062143E0
3.275377468E1,-4.450650215E-1,7.173682213E0,2.392822742E0
3.277044135E1,-1.866401732E-1,8.126026154E0,2.153540403E-1
3.278710802E1,1.483550072E-1,1.098305607E1,-1.385444283E0
3.280377468E1,9.355936646E-1,1.247139168E1,-3.182454109E-1
3.282044135E1,1.196411371E0,1.240917778E1,8.566305041E-1
3.283710802E1,1.698904037E0,1.257906818E1,1.062413216E0
3.285377468E1,1.945364833E0,1.231585789E1,-9.332008660E-2
3.287044135E1,2.191825628E0,1.138026428E1,-7.807780266E0
3.288710801E1,1.653440475E0,9.949356079E0,-6.132804394E0
3.290377468E1,2.892922640E0,9.523433685E0,-2.366501570E0
3.292044134E1,5.766702294E-1,1.397647667E1,-5.460421085E0
3.293710801E1,-8.135597110E-1,1.758006859E1,-1.651047587E0
3.295377468E1,1.811366796E0,1.791267014E1,1.079162955E0
3.297044134E1,3.620340586E0,1.755374718E1,4.213760853E0
3.298710801E1,1.684547186E0,2.036292076E1,8.920442581E0
3.300377468E1,-1.299302697E0,1.928136444E1,5.357530117E0
3.302044134E1,-2.991028428E-1,1.816870308E1,6.704689026E0
3.303710801E1,6.101697683E-1,1.346919823E1,8.078168869E0
3.305377467E1,-1.414158225E0,8.673981667E0,2.835494757E0
3.307044134E1,-6.247660160E0,6.123233318E0,-1.068873882E1
3.308710801E1,-5.824130535E0,6.912864685E0,-5.958128452E0
3.310377467E1,-2.852244616E0,1.025324535E1,1.962114573E0
3.312044134E1,-7.824530005E-1,1.084187984E1,-2.919243574E-1
3.313710800E1,-1.335195065E0,8.937192917E0,1.191625714E0
3.315377467E1,-1.184447169E0,8.525627136E0,2.172683001E0
3.317044134E1,-1.299302697E0,8.360522270E0,3.421736479E0
3.318710800E1,-5.383851051E0,6.848258495E0,2.261217356E0
3.320377467E1,-8.130811691E0,5.190032482E0,1.751546144E0
3.322044133E1,-8.157132149E0,4.527220249E0,9.858429432E-1
3.323710800E1,-5.568098068E0,3.749552965E0,-1.780260086E0
3.325377466E1,-2.364108801E0,3.495913982E0,-3.931407690E0
3.327044133E1,4.761717021E-1,4.575077057E0,-4.311866283E0
3.328710800E1,1.914258122E0,6.290730953E0,-2.524427891E0
3.330377466E1,1.758724689E0,9.430113792E0,-6.843472958E0
3.332044133E1,2.952743053E0,1.195214939E1,-6.245266914E0
3.333710800E1,3.553341627E0,1.313420391E1,-6.539584160E0
3.335377466E1,2.053041935E0,1.362473202E1,-4.639683247E0
3.337044133E1,3.302095234E-1,1.348116302E1,2.651247501E0
3.338710799E1,2.426322222E0,1.336152172E1,1.107876897E0
3.340377466E1,2.562713146E0,1.465364552E1,-6.221339107E-1
3.342044132E1,-1.954936147E0,1.760399628E1,3.804588020E-1
3.343710799E1,-1.485942841E0,1.394537067E1,2.134397745E0
3.345377466E1,1.239482164E0,5.525027275E0,-3.500699520E0
3.347044132E1,1.004985496E-1,3.567698479E0,-1.038485050E0
3.348710799E1,1.160519004E0,6.197410583E0,2.237289190E0
3.350377466E1,7.776673436E-1,1.046859932E1,3.536591768E0
3.352044132E1,-1.746760488E0,1.309113312E1,2.165504456E0
3.353710799E1,-4.127619267E0,1.227996540E1,1.019342422E0
3.355377465E1,-9.300901413E0,8.628518105E0,-8.422735929E-1
3.357044132E1,-3.639483213E0,8.331808090E0,1.416550994E0
3.358710798E1,-1.842473447E-1,1.030349445E1,7.417750359E-2
3.360377465E1,-4.594219327E-1,1.024367332E1,-2.455035925E0
3.362044132E1,-1.026520967E0,8.403593063E0,-2.201396942E0
3.363710798E1,-3.421736360E-1,6.058627129E0,-2.512463629E-1
3.365377465E1,-1.052841991E-1,4.656432629E0,1.016949654E0
3.367044132E1,-6.939185858E-1,4.302295208E0,1.473978758E0
3.368710798E1,-6.388836503E-1,5.309673309E0,8.398807645E-1
3.370377465E1,-6.628118753E-1,9.743574142E0,-3.069991350E0
3.372044131E1,4.546363056E-1,1.128933716E1,-2.148754835E0
3.373710798E1,1.722832322E0,1.065284634E1,-4.546362907E-2
3.375377464E1,2.392822742E0,7.518248558E0,-1.083948612E0
3.377044131E1,3.773481369E0,6.537191391E0,-2.617748022E0
3.378710798E1,3.900300980E0,7.917850018E0,-3.349951804E-1
3.380377464E1,3.321237803E0,9.657432556E0,-8.590233326E-1
3.382044131E1,2.385644197E0,1.070309544E1,-2.141576290E0
3.383710798E1,1.902294040E0,6.513263226E0,-3.431307554E0
3.385377464E1,3.270988464E0,3.364308596E0,1.239482164E0
3.387044131E1,2.335394859E0,2.112862349E0,1.299302697E0
3.388710797E1,7.322037220E-1,3.438486099E0,-9.690931439E-1
3.390377464E1,-8.087740541E-1,7.810173035E0,-9.714859724E-1
3.392044131E1,-2.189432621E0,1.044467068E1,6.843472719E-1
3.393710797E1,-4.366901398E0,1.829312897E1,2.146361828E0
3.395377464E1,-7.791030407E0,2.153061867E1,9.140582681E-1
3.397044130E1,-8.116454124E0,1.313420391E1,-2.000399828E0
3.398710797E1,-6.290730953E0,9.812965393E0,-3.565305710E0
3.400377464E1,-1.914258115E-2,9.480362892E0,-6.178267956E0
3.402044130E1,2.402393818E0,1.395733452E1,-7.348358154E0
3.403710797E1,1.768295884E0,1.420379543E1,-6.561119556E0
3.405377463E1,1.969292998E0,1.288295746E1,-3.574877024E0
3.407044130E1,8.111668825E-1,9.346364975E0,1.387837172E0
3.408710796E1,4.115654826E-1,6.888936520E0,1.174875975E0
3.410377463E1,7.274180651E-1,5.749952793E0,-8.757730722E-1
3.412044130E1,4.905286431E-1,5.125426292E0,-1.012163997E0
3.413710796E1,1.205982566E0,4.692325115E0,3.110669553E-1
3.415377463E1,1.205982566E0,4.692325115E0,3.110669553E-1
3.417044130E1,1.572084427E0,2.333002090E0,-1.043270707E0
3.418710796E1,2.045863390E0,1.813759565E0,-2.349751949E0
3.420377463E1,3.170490026E0,2.438286304E0,-1.914258115E-2
3.422044129E1,2.536391914E-1,6.001199245E0,1.775474429E0
3.423710796E1,-2.495713949E0,1.554856110E1,-9.834501147E-1
3.425377463E1,-5.489135265E0,1.865205193E1,3.402593851E0
3.427044129E1,-2.246860504E0,2.547398949E1,8.614161611E-2
3.428710796E1,-2.541177750E0,1.337109280E1,-5.606383324E0
3.430377462E1,-2.541177750E0,1.337109280E1,-5.606383324E0
3.432044129E1,1.572084427E0,1.792463493E1,1.100698411E-1
3.433710796E1,1.148554921E0,1.315334606E1,-6.460621208E-2
3.435377462E1,3.182454109E0,1.087777138E1,4.594219327E-1
3.437044129E1,1.603191137E0,1.026999474E1,1.440479279E0
3.438710795E1,1.459621787E-1,9.573683739E0,1.368694544E0
3.440377462E1,2.086541414E0,1.016949654E1,-6.340979934E-1
3.442044128E1,3.536591768E0,9.020941734E0,-3.314059258E0
3.443710795E1,1.634297848E0,5.103890896E0,-3.177668571E0
3.445377462E1,2.153540403E-1,3.263810158E0,-1.897508383E0
3.447044128E1,-1.950150490E0,1.148554921E0,6.939185411E-2
3.448710795E1,-2.038684845E0,8.685946465E-1,1.591227055E0
3.450377462E1,-1.761117458E0,1.313659668E0,2.146361828E0
3.452044128E1,-2.577069998E0,4.579862595E0,-7.226324677E-1
3.453710795E1,-1.962114573E0,1.350748348E1,3.309273720E0
3.455377461E1,-2.847458839E0,2.562952423E1,1.624726534E0
3.457044128E1,-1.746760488E0,2.860140991E1,-2.392822742E0
3.458710794E1,-8.829515576E-1,1.340937805E1,-6.451049805E0
3.460377461E1,9.690931439E-1,9.451649666E0,-8.705088615E0
3.462044128E1,9.690931439E-1,9.451649666E0,-8.705088615E0
3.463710794E1,3.383451223E0,1.164108181E1,-2.225325108E0
3.465377461E1,1.586441398E0,8.791230202E0,4.354937077E-1
3.467044128E1,-1.794617027E-1,5.855237007E0,2.404786825E0
