"Time (s)","Gyroscope x (rad/s)","Gyroscope y (rad/s)","Gyroscope z (rad/s)"
3.367359900E-2,8.179479241E-1,5.627591908E-2,4.199695215E-2
4.801953600E-2,8.014546037E-1,1.177441850E-1,6.704241037E-2
6.468620200E-2,0.000000000E0,0.000000000E0,0.000000000E0
8.135286800E-2,0.000000000E0,0.000000000E0,0.000000000E0
9.801953400E-2,2.280816436E-1,2.879463732E-1,1.678351015E-1
1.146862000E-1,2.280816436E-1,2.879463732E-1,1.678351015E-1
1.313528660E-1,-6.940951198E-2,1.981492639E-1,1.898262352E-1
1.480195320E-1,-1.243873388E-1,9.941824526E-2,1.661552191E-1
1.646861980E-1,-1.243873388E-1,9.941824526E-2,1.661552191E-1
1.813528640E-1,-1.243873388E-1,9.941824526E-2,1.661552191E-1
1.980195300E-1,-1.423314959E-1,-2.481638081E-2,7.108938694E-2
2.146861960E-1,-1.645517051E-1,4.787652567E-2,6.192641705E-2
2.313528620E-1,-1.608865112E-1,1.321758628E-1,7.635809481E-2
2.480195280E-1,-1.085048541E-1,1.810450554E-1,9.514218569E-2
2.646861940E-1,-1.085048541E-1,1.810450554E-1,9.514218569E-2
2.813528600E-1,-1.085048541E-1,1.810450554E-1,9.514218569E-2
2.980195260E-1,-1.085048541E-1,1.810450554E-1,9.514218569E-2
3.146861920E-1,1.243873388E-1,-1.080467105E-1,6.742420048E-2
3.313528580E-1,1.462257504E-1,-1.233183295E-1,9.796743840E-2
3.480195240E-1,1.523344070E-1,-6.345357746E-2,1.172860414E-1
3.646861900E-1,1.523344070E-1,-6.345357746E-2,1.172860414E-1
3.813528560E-1,4.214967042E-2,6.253728271E-2,1.006399691E-1
3.980195220E-1,4.214967042E-2,6.253728271E-2,1.006399691E-1
4.146861880E-1,1.954767294E-2,-3.901898861E-2,1.181259751E-1
4.313528540E-1,1.183550525E-2,-6.772962958E-2,1.281288862E-1
4.480195200E-1,-1.466075517E-2,-3.840812296E-2,1.588248461E-1
4.646861860E-1,-8.941533417E-2,5.482511222E-2,2.173151523E-1
4.813528520E-1,-8.941533417E-2,5.482511222E-2,2.173151523E-1
4.980195180E-1,-7.536543906E-2,6.299543381E-2,2.478583902E-1
5.146861840E-1,-7.536543906E-2,6.299543381E-2,2.478583902E-1
5.313528500E-1,-7.559451740E-3,-5.856665969E-2,2.671769857E-1
5.480195160E-1,4.115701467E-2,-1.314886510E-1,2.784016132E-1
5.646861820E-1,4.115701467E-2,-1.314886510E-1,2.784016132E-1
5.813528480E-1,4.115701467E-2,-1.314886510E-1,2.784016132E-1
5.980195140E-1,4.115701467E-2,-1.314886510E-1,2.784016132E-1
6.146861800E-1,3.397935256E-2,-1.137735695E-2,2.296851575E-1
6.313528460E-1,3.397935256E-2,-1.137735695E-2,2.296851575E-1
6.480195120E-1,-8.590286225E-2,2.103665620E-1,2.070831656E-1
6.646861780E-1,-1.337793916E-1,2.402989268E-1,2.215912044E-1
6.813528440E-1,-1.337793916E-1,2.402989268E-1,2.215912044E-1
6.980195100E-1,-7.796161622E-2,9.819651395E-2,2.050978541E-1
7.146861760E-1,-7.796161622E-2,9.819651395E-2,2.050978541E-1
7.313528420E-1,-7.796161622E-2,9.819651395E-2,2.050978541E-1
7.480195080E-1,-2.932151034E-2,-1.781434417E-1,2.154825479E-1
7.646861740E-1,-6.658425927E-2,-1.508072466E-1,2.519053519E-1
7.813528400E-1,-1.133917719E-1,9.850194678E-3,3.691914082E-1
7.813528400E-1,-1.133917719E-1,9.850194678E-3,3.691914082E-1
8.146861720E-1,-1.062904745E-1,1.236237586E-1,5.050324798E-1
8.313528380E-1,-5.765036494E-2,6.849320978E-2,6.383537054E-1
8.480195040E-1,2.932151034E-2,-7.628174126E-2,8.059597015E-1
8.646861700E-1,2.932151034E-2,-7.628174126E-2,8.059597015E-1
8.813528360E-1,2.932151034E-2,-7.628174126E-2,8.059597015E-1
8.980195020E-1,6.269763112E-1,-6.737074852E-1,1.999589443E0
9.146861680E-1,6.269763112E-1,-6.737074852E-1,1.999589443E0
9.313528340E-1,4.522690177E-1,-4.925097227E-1,2.285092354E0
9.480195000E-1,4.522690177E-1,-4.925097227E-1,2.285092354E0
9.646861660E-1,2.195295244E-1,-2.481638193E-1,2.357174397E0
9.813528320E-1,2.195295244E-1,-2.481638193E-1,2.357174397E0
9.980194980E-1,2.195295244E-1,-2.481638193E-1,2.357174397E0
1.014686164E0,5.122864842E-1,-1.430950761E-1,2.362824917E0
1.031352830E0,5.122864842E-1,-1.430950761E-1,2.362824917E0
1.048019496E0,9.653954506E-1,-9.338594973E-2,2.319682598E0
1.064686162E0,9.653954506E-1,-9.338594973E-2,2.319682598E0
1.081352828E0,9.653954506E-1,-9.338594973E-2,2.319682598E0
1.098019494E0,9.653954506E-1,-9.338594973E-2,2.319682598E0
1.114686160E0,9.653954506E-1,-9.338594973E-2,2.319682598E0
1.131352826E0,9.653954506E-1,-9.338594973E-2,2.319682598E0
1.148019492E0,1.789833754E-1,6.135373116E-1,3.090364933E0
1.164686158E0,2.486219704E-1,2.561814189E-1,3.092655659E0
1.181352824E0,3.490328491E-1,3.100138716E-2,3.056156397E0
1.198019490E0,3.490328491E-1,3.100138716E-2,3.056156397E0
1.214686156E0,3.490328491E-1,3.100138716E-2,3.056156397E0
1.231352822E0,-6.129264235E-1,9.931133986E-1,2.131154537E0
1.248019488E0,-7.929024696E-1,1.092073560E0,1.933616042E0
1.264686154E0,-7.929024696E-1,1.092073560E0,1.933616042E0
1.281352820E0,-7.336485982E-1,1.061148524E0,1.580536246E0
1.298019486E0,-7.336485982E-1,1.061148524E0,1.580536246E0
1.314686152E0,-7.336485982E-1,1.061148524E0,1.580536246E0
1.331352818E0,7.757982612E-1,-2.369391769E-1,1.916511893E0
1.348019484E0,6.033053398E-1,3.480401933E-1,1.965610147E0
1.364686150E0,5.793288946E-1,6.495783329E-1,2.017533541E0
1.381352816E0,8.122211099E-1,1.287932038E0,1.817322731E0
1.398019482E0,8.122211099E-1,1.287932038E0,1.817322731E0
1.414686148E0,9.608902931E-1,4.977020919E-1,2.026085854E0
1.431352814E0,9.608902931E-1,4.977020919E-1,2.026085854E0
1.448019480E0,6.477457285E-1,5.190823674E-1,1.356348872E0
1.464686146E0,6.477457285E-1,5.190823674E-1,1.356348872E0
1.481352812E0,7.822887301E-1,-6.551524997E-2,1.584583282E0
1.498019478E0,7.822887301E-1,-6.551524997E-2,1.584583282E0
1.514686144E0,7.822887301E-1,-6.551524997E-2,1.584583282E0
1.531352810E0,7.822887301E-1,-6.551524997E-2,1.584583282E0
1.548019476E0,4.355465770E-1,4.869355857E-1,2.098320484E0
1.564686142E0,5.567268729E-1,-6.360629797E-1,1.829769135E0
1.581352808E0,7.828995585E-1,-1.233106971E0,1.555109024E0
1.598019474E0,7.828995585E-1,-1.233106971E0,1.555109024E0
1.614686140E0,7.828995585E-1,-1.233106971E0,1.555109024E0
1.631352806E0,7.828995585E-1,-1.233106971E0,1.555109024E0
1.648019472E0,1.190804482E0,-1.472718596E0,2.315406561E0
1.664686138E0,1.268537045E0,-1.702021956E0,2.509890556E0
1.681352804E0,1.054963470E0,-2.226984024E0,2.840750217E0
1.698019470E0,1.054963470E0,-2.226984024E0,2.840750217E0
1.714686136E0,1.054963470E0,-2.226984024E0,2.840750217E0
1.731352802E0,1.155374408E0,-5.292074203E0,2.179412842E0
1.748019468E0,1.038851857E0,-5.463727474E0,1.539608359E0
1.764686134E0,9.651663303E-1,-5.820090771E0,1.050076604E0
1.781352800E0,1.136208534E0,-6.018392563E0,7.418189049E-1
1.798019466E0,1.617951751E0,-5.860789299E0,3.178787529E-1
1.814686132E0,2.033797979E0,-4.037128925E0,-2.628245652E-1
1.831352798E0,2.033797979E0,-4.037128925E0,-2.628245652E-1
1.848019464E0,2.033797979E0,-4.037128925E0,-2.628245652E-1
1.864686130E0,1.515784621E0,3.342193961E-1,6.373610497E-1
1.881352796E0,1.222951293E0,1.176754594E0,7.921388745E-1
1.898019462E0,1.222951293E0,1.176754594E0,7.921388745E-1
1.914686128E0,-3.199404106E-2,-8.384118974E-2,1.004719853E0
1.931352794E0,-3.199404106E-2,-8.384118974E-2,1.004719853E0
1.948019460E0,1.836412251E-1,-9.101121426E-1,7.686969638E-1
1.964686126E0,1.836412251E-1,-9.101121426E-1,7.686969638E-1
1.981352792E0,1.836412251E-1,-9.101121426E-1,7.686969638E-1
1.998019458E0,3.121519089E-1,-6.898190379E-1,4.410443604E-1
2.014686124E0,6.395754218E-1,1.037477493E0,-3.575085998E-1
2.014686124E0,3.121519089E-1,-6.898190379E-1,4.410443604E-1
2.048019456E0,4.831940532E-1,4.241692424E-1,1.146898642E-1
2.064686122E0,4.831940532E-1,4.241692424E-1,1.146898642E-1
2.081352788E0,2.620609999E-1,-1.335503161E-1,5.099193454E-1
2.098019454E0,2.779434621E-1,-2.862665057E-1,5.111411214E-1
2.114686120E0,4.111120105E-1,2.222020552E-2,3.559814394E-1
2.131352786E0,4.801397026E-1,2.763399482E-1,6.337722391E-2
2.148019452E0,6.151408553E-1,-2.312886715E-1,-3.985892609E-2
2.164686118E0,6.310232878E-1,-5.862011313E-1,3.466657549E-2
2.181352784E0,4.642572403E-1,-1.277089238E0,2.350302190E-1
2.198019450E0,1.423314959E-1,-1.365053654E0,1.947131455E-1
2.214686116E0,-6.108647794E-4,-8.702532649E-1,-3.252854943E-2
2.231352782E0,1.398880333E-1,-6.381246448E-1,-6.062832847E-2
2.248019448E0,7.385355234E-1,-2.086866796E-1,1.098029464E-1
2.264686114E0,1.404378176E0,2.824485898E-1,1.305723488E-1
2.281352780E0,1.404378176E0,2.824485898E-1,1.305723488E-1
2.298019446E0,1.875965714E0,1.041753531E0,4.505127668E-2
2.314686112E0,1.977980137E0,1.906738043E0,3.283398226E-2
2.331352778E0,1.977980137E0,1.906738043E0,3.283398226E-2
2.348019444E0,2.667035580E0,3.300120592E0,-6.336194873E-1
2.364686110E0,3.471544504E0,3.196884394E0,-1.018464327E0
2.381352776E0,2.528980255E0,4.329427719E0,-2.884808779E-1
2.398019442E0,7.806851864E-1,2.824867725E0,5.050324798E-1
2.414686108E0,-3.353647590E-1,1.940946460E0,7.170025110E-1
2.431352774E0,-2.499047756E0,1.528612733E0,8.116865754E-1
2.448019440E0,-2.927263975E0,1.735085011E0,-5.650499370E-3
2.464686106E0,-3.094030142E0,-1.518762559E-1,-2.713766694E-1
2.481352772E0,-1.737910271E0,-1.422474980E0,-1.058323234E-1
2.498019438E0,6.395754218E-1,-1.231274366E0,4.109592736E-1
2.514686104E0,6.395754218E-1,-1.231274366E0,4.109592736E-1
2.531352770E0,6.395754218E-1,-1.231274366E0,4.109592736E-1
2.548019436E0,6.395754218E-1,-1.231274366E0,4.109592736E-1
2.564686102E0,6.395754218E-1,-1.231274366E0,4.109592736E-1
2.581352768E0,6.395754218E-1,-1.231274366E0,4.109592736E-1
2.598019434E0,6.395754218E-1,-1.231274366E0,4.109592736E-1
2.614686100E0,2.726747692E-1,-1.943924427E0,-5.358811021E-1
2.631352766E0,2.726747692E-1,-1.943924427E0,-5.358811021E-1
2.648019432E0,2.726747692E-1,-1.943924427E0,-5.358811021E-1
2.664686098E0,2.726747692E-1,-1.943924427E0,-5.358811021E-1
2.681352764E0,6.719512399E-3,-1.914831996E0,-9.958623052E-1
2.698019430E0,6.719512399E-3,-1.914831996E0,-9.958623052E-1
2.714686096E0,5.127446055E-1,-1.190117359E0,-8.030580878E-1
2.731352762E0,5.127446055E-1,-1.190117359E0,-8.030580878E-1
2.748019428E0,5.127446055E-1,-1.190117359E0,-8.030580878E-1
2.764686094E0,5.127446055E-1,-1.190117359E0,-8.030580878E-1
2.781352760E0,5.127446055E-1,-1.190117359E0,-8.030580878E-1
2.798019426E0,1.004109010E-1,-3.148320675E0,1.682168841E-1
2.814686092E0,1.004109010E-1,-3.148320675E0,1.682168841E-1
2.831352758E0,1.004109010E-1,-3.148320675E0,1.682168841E-1
2.848019424E0,1.004109010E-1,-3.148320675E0,1.682168841E-1
2.864686090E0,1.004109010E-1,-3.148320675E0,1.682168841E-1
2.881352756E0,1.004109010E-1,-3.148320675E0,1.682168841E-1
2.898019422E0,1.004109010E-1,-3.148320675E0,1.682168841E-1
2.914686088E0,1.004109010E-1,-3.148320675E0,1.682168841E-1
2.931352754E0,-3.674122572E0,-3.904189587E0,-1.116813540E0
2.948019420E0,-3.674122572E0,-3.904189587E0,-1.116813540E0
2.964686086E0,-3.806909323E0,-3.565388680E0,-8.891900182E-1
2.981352752E0,-3.806909323E0,-3.565388680E0,-8.891900182E-1
2.998019418E0,-3.470093727E0,-1.909105182E0,-3.011563420E-1
3.014686084E0,-3.470093727E0,-1.909105182E0,-3.011563420E-1
3.031352750E0,-2.524933100E0,-1.269835234E-1,4.091266990E-1
3.048019416E0,-2.524933100E0,-1.269835234E-1,4.091266990E-1
3.064686082E0,-2.524933100E0,-1.269835234E-1,4.091266990E-1
3.081352748E0,-2.524933100E0,-1.269835234E-1,4.091266990E-1
3.098019414E0,4.276053309E-1,2.618624687E0,1.825874805E0
3.114686080E0,3.451386094E-1,3.232925415E0,1.982103467E0
3.131352746E0,3.595702946E-1,4.083249092E0,1.989815712E0
3.148019412E0,3.595702946E-1,4.083249092E0,1.989815712E0
3.164686078E0,3.595702946E-1,4.083249092E0,1.989815712E0
3.181352744E0,2.740568399E0,7.527915955E0,1.226616502E0
3.198019410E0,3.128467560E0,8.136566162E0,1.294651508E0
3.214686076E0,3.147404432E0,8.766139030E0,1.192026258E0
3.231352742E0,2.835405350E0,8.826843262E0,9.495129585E-1
3.248019408E0,2.835405350E0,8.826843262E0,9.495129585E-1
3.264686074E0,2.835405350E0,8.826843262E0,9.495129585E-1
3.281352740E0,2.169409990E0,8.145957947E0,8.397863507E-1
3.298019406E0,5.406153202E-1,2.403981924E0,9.147699922E-2
3.314686072E0,6.908880472E-1,1.410104990E0,-3.642281294E-1
3.331352738E0,6.298015714E-1,1.080848813E0,-3.868301213E-1
3.348019404E0,6.395754218E-1,9.000328779E-1,3.894263133E-2
3.364686070E0,6.395754218E-1,9.000328779E-1,3.894263133E-2
3.381352736E0,8.087849617E-1,-4.188241661E-1,1.511890348E-2
3.398019402E0,7.208204269E-1,-1.069395185E0,-3.068068326E-1
3.414686068E0,3.695732057E-1,-1.974085927E0,-6.055197120E-1
3.431352734E0,1.740964651E-1,-3.223915339E0,-5.609265566E-1
3.448019400E0,-1.288924664E-1,-3.796906471E0,-6.049088240E-1
3.464686066E0,-8.655954003E-1,-5.124315739E0,-6.580541134E-1
3.481352732E0,-8.655954003E-1,-5.124315739E0,-6.580541134E-1
3.498019398E0,-1.896124244E0,-5.787714481E0,-9.268345833E-1
3.514686064E0,-2.194837093E0,-5.976471901E0,-1.092378974E0
3.531352730E0,-2.498436928E0,-6.448670387E0,-1.065500855E0
3.548019396E0,-2.114202976E0,-6.613604069E0,-6.696605086E-1
3.564686062E0,-2.114202976E0,-6.613604069E0,-6.696605086E-1
3.581352728E0,-1.081841469E0,-4.578202248E0,-2.664897740E-1
3.598019394E0,-7.629700899E-1,-3.259956360E0,6.459894776E-2
3.614686060E0,-7.629700899E-1,-3.259956360E0,6.459894776E-2
3.631352726E0,2.864955962E-1,-9.789871573E-1,1.018158913E0
3.648019392E0,4.618137777E-1,-8.000037670E-1,1.081077933E0
3.664686058E0,4.770853817E-1,-1.051069260E0,1.006552458E0
3.681352724E0,1.453858167E-1,-1.854356408E0,6.779071689E-1
3.698019390E0,1.453858167E-1,-1.854356408E0,6.779071689E-1
3.714686056E0,-4.972439408E-1,-1.768224478E0,2.588539422E-1
3.731352722E0,-2.809978127E-1,-2.587775886E-1,-1.577558219E-1
3.748019388E0,6.536252797E-2,5.060251355E-1,-3.497200832E-2
3.764686054E0,6.536252797E-2,5.060251355E-1,-3.497200832E-2
3.781352720E0,8.796452731E-2,2.567922771E-1,3.492619395E-1
3.798019386E0,8.796452731E-2,2.567922771E-1,3.492619395E-1
3.814686052E0,-7.086031437E-1,-3.552942276E-1,-1.542433538E-2
3.831352718E0,-7.086031437E-1,-3.552942276E-1,-1.542433538E-2
3.848019384E0,-9.162971973E-1,-2.209039778E-1,-3.245218992E-1
3.864686050E0,-8.326086998E-1,1.083521396E-1,-4.033234715E-1
3.881352716E0,-7.128791809E-1,4.516581595E-1,-8.144354820E-1
3.898019382E0,-7.128791809E-1,4.516581595E-1,-8.144354820E-1
3.914686048E0,2.809978127E-1,1.912235856E0,-1.058781385E0
3.931352714E0,2.809978127E-1,1.912235856E0,-1.058781385E0
3.948019380E0,7.476984859E-1,2.400316715E0,-2.176205814E-1
3.964686046E0,7.476984859E-1,2.400316715E0,-2.176205814E-1
3.981352712E0,-1.490510106E-1,1.855425358E0,-5.798633695E-1
3.998019378E0,1.747073233E-1,1.892688155E0,-8.926261663E-1
4.014686044E0,1.747073233E-1,1.892688155E0,-8.926261663E-1
4.031352710E0,3.457494676E-1,3.423133492E-1,-1.155297995E0
4.048019376E0,2.156352699E-1,-5.874228477E-1,-1.833968759E0
4.064686042E0,3.762927055E-1,-1.146975040E0,-2.776533127E0
4.081352708E0,6.157516837E-1,-4.841867089E-1,-3.673282623E0
4.098019374E0,8.765909672E-1,2.183077931E-1,-3.904800415E0
4.114686040E0,1.472795010E0,9.763910174E-1,-3.474140644E0
4.131352706E0,1.472795010E0,9.763910174E-1,-3.474140644E0
4.148019372E0,1.748905897E0,-1.158352345E-1,-2.105803728E0
4.164686038E0,1.759901404E0,-3.436114406E-3,-2.426507711E0
4.181352704E0,1.920558810E0,-1.873064190E-1,-3.227351427E0
4.198019370E0,1.920558810E0,-1.873064190E-1,-3.227351427E0
4.214686036E0,1.097723961E0,-2.418795347E0,-4.094168663E0
4.231352702E0,-1.252272725E-1,-1.916053772E0,-4.082561970E0
4.248019368E0,-2.921766281E0,-9.032399058E-1,-2.615264893E0
4.264686034E0,-1.524718523E0,-2.117028236E0,-2.520580769E0
4.281352700E0,-5.687150955E-1,-2.128023863E0,-4.055073261E0
4.298019366E0,-7.006618977E-1,-1.712635756E0,-5.050782681E0
4.314686032E0,-7.800742984E-1,-7.291435003E-1,-6.229751587E0
4.331352698E0,-3.384190798E-1,3.368155658E-1,-7.168040276E0
4.348019364E0,-3.384190798E-1,3.368155658E-1,-7.168040276E0
4.364686030E0,8.228348494E-1,1.509065032E0,-8.329294205E0
4.381352696E0,1.902232885E0,2.170020819E0,-8.913280487E0
4.398019362E0,1.257770538E0,-4.273762703E-1,-9.372039795E0
4.414686028E0,1.257770538E0,-4.273762703E-1,-9.372039795E0
4.431352694E0,-4.557051361E-1,-3.045542717E0,-6.496088982E0
4.448019360E0,9.071341753E-1,-1.570915103E0,1.647807807E-1
4.464686026E0,6.224712133E-1,-2.826242208E0,5.637518406E0
4.481352692E0,6.224712133E-1,-2.826242208E0,5.637518406E0
4.498019358E0,-1.745240688E0,-1.015639067E0,2.335794210E0
4.514686024E0,-2.390313864E0,1.599473119E0,-9.789107740E-2
4.531352690E0,-2.127031088E0,1.174921989E0,8.342885971E-1
4.548019356E0,-7.342594862E-1,6.367501616E-1,1.163544655E0
4.564686022E0,9.468404204E-2,5.634464025E-1,8.721621633E-1
4.581352688E0,9.468404204E-2,5.634464025E-1,8.721621633E-1
4.581352688E0,1.188742876E0,5.952113867E-1,2.814559340E-1
4.614686020E0,9.309579134E-1,-1.809686981E-2,1.201876476E-1
4.631352686E0,3.915643096E-1,2.971093655E-1,7.987056673E-2
4.648019352E0,1.343902480E-2,5.781071782E-1,1.452330947E-1
4.664686018E0,1.343902480E-2,5.781071782E-1,1.452330947E-1
4.681352684E0,-2.577849329E-1,1.672242396E-2,9.392046183E-2
4.698019350E0,-2.761108875E-1,-3.791179657E-1,-1.027780026E-1
4.714686016E0,-2.272416949E-1,-8.030580878E-1,-3.477347791E-1
4.731352682E0,-2.272416949E-1,-8.030580878E-1,-3.477347791E-1
4.748019348E0,-9.224057943E-2,-7.932842970E-1,-1.089935541E0
4.764686014E0,-1.576031148E-1,-3.351356983E-1,-1.898720503E0
4.781352680E0,2.822195292E-1,-6.085740402E-2,-1.593288064E0
4.798019346E0,9.315688014E-1,-2.960403562E-1,-8.419243693E-1
4.814686012E0,1.293200731E0,-2.355647236E-1,-9.476040006E-1
4.831352678E0,1.847865939E0,-1.741957307E0,-1.023351192E0
4.848019344E0,1.987753987E0,-3.483532667E0,1.067028046E0
4.864686010E0,1.987753987E0,-3.483532667E0,1.067028046E0
4.881352676E0,2.029292822E0,-2.440786600E0,2.112828493E0
4.898019342E0,1.193629742E0,-5.147299170E-1,1.352912784E0
4.914686008E0,1.111773923E-1,1.214017391E0,7.707586288E-1
4.931352674E0,1.111773923E-1,1.214017391E0,7.707586288E-1
4.948019340E0,1.521053314E-1,1.564653754E0,1.314428329E0
4.964686006E0,2.028681993E0,1.061301231E0,1.542280793E0
4.981352672E0,2.745226383E0,5.371792316E-1,1.355356216E0
4.998019338E0,2.351218462E0,5.096902847E-1,1.308319688E0
5.014686004E0,1.951712966E0,7.693078518E-1,1.259450436E0
5.031352670E0,1.538768411E0,1.172478557E0,1.403003693E0
5.048019336E0,1.538768411E0,1.172478557E0,1.403003693E0
5.064686002E0,1.762955785E0,3.905716538E-1,1.192866206E0
5.081352668E0,1.708588839E0,4.229474962E-1,1.117729783E0
5.098019334E0,1.100778341E0,3.698022664E-1,6.107120514E-1
5.114686000E0,6.236929297E-1,1.611155830E-2,3.138317764E-1
5.131352666E0,7.495310903E-1,4.339430630E-1,7.365502119E-1
5.148019332E0,7.953459620E-1,6.135373116E-1,9.644027948E-1
5.164685998E0,6.120865345E-1,8.768200278E-1,1.112232089E0
5.181352664E0,4.001164436E-1,8.536071777E-1,1.014493704E0
5.198019330E0,3.524689674E-1,6.055960655E-1,1.029765248E0
5.214685996E0,1.985310465E-1,3.453676701E-1,1.005330682E0
5.231352662E0,8.307760954E-2,1.920406222E-1,6.253728271E-1
5.248019328E0,-2.443459071E-2,4.543306679E-2,4.091266990E-1
5.264685994E0,-1.014035568E-1,8.513928205E-2,4.127918780E-1
5.281352660E0,-2.437350452E-1,2.995528281E-1,3.541488647E-1
5.298019326E0,-4.251618981E-1,3.826304376E-1,1.898262352E-1
5.314685992E0,-6.908880472E-1,2.934441566E-1,6.215549260E-2
5.331352658E0,-8.484911919E-1,2.060905099E-1,2.244928107E-2
5.348019324E0,-1.218675256E0,-6.490438245E-3,-3.741546720E-2
5.364685990E0,-1.561370373E0,-2.813795805E-1,-7.635809598E-4
5.381352656E0,-1.561370373E0,-2.813795805E-1,-7.635809598E-4
5.398019322E0,-1.709199667E0,-4.206567705E-1,6.704241037E-2
5.414685988E0,-1.541211843E0,-6.540070772E-1,-2.703076601E-2
5.431352654E0,-1.126434684E0,-1.030299783E0,-1.314886510E-1
5.448019320E0,-3.738492429E-1,-7.089849114E-1,1.892153621E-1
5.464685986E0,-1.044578776E-1,-4.011090994E-1,4.415025115E-1
5.481352652E0,2.730565667E-1,-5.165625215E-1,1.172707677E0
5.498019318E0,5.803215504E-1,-1.692477226E0,1.093295217E0
5.514685984E0,2.516762912E-1,-1.675372958E0,1.055421591E0
5.531352650E0,-1.093447953E-1,-1.264261007E0,1.087797403E0
5.548019316E0,-1.068402529E0,-4.756345749E-1,1.070693254E0
5.564685982E0,-1.068402529E0,-4.756345749E-1,1.070693254E0
5.581352648E0,-5.595521331E-1,1.437823027E-1,-9.605848789E-2
5.598019314E0,-1.227838174E-1,2.672533505E-3,-6.971494555E-1
5.614685980E0,2.076940238E-2,-6.729438901E-1,-1.752723813E0
5.631352646E0,2.076940238E-2,-6.729438901E-1,-1.752723813E0
5.648019312E0,-1.062904716E0,4.828122556E-1,-7.490729094E-1
5.664685978E0,-1.062904716E0,4.828122556E-1,-7.490729094E-1
5.681352644E0,-1.144149780E0,1.354516268E0,-6.159043908E-1
5.698019310E0,-9.963204265E-1,1.173089504E0,-1.082605124E0
5.714685976E0,-7.666352987E-1,8.322269320E-1,-1.246927738E0
5.731352642E0,-2.095266134E-1,1.016326249E-1,-1.485775828E0
5.748019308E0,-1.264490038E-1,-4.408152997E-1,-1.866955519E0
5.764685974E0,-6.670643687E-1,-4.395935535E-1,-1.881616235E0
5.781352640E0,-8.973603845E-1,1.855501719E-2,-1.534645081E0
5.798019306E0,-1.025641918E0,1.203021884E0,-6.928733587E-1
5.814685972E0,-1.025641918E0,1.203021884E0,-6.928733587E-1
5.831352638E0,-7.257073522E-1,1.284266829E0,-2.884808779E-1
5.848019304E0,-7.916807532E-1,9.977712631E-1,-2.958112657E-1
5.864685970E0,-1.017089844E0,4.980838597E-1,-2.194531709E-1
5.881352636E0,-8.747583628E-1,1.804341823E-1,-1.986837685E-1
5.898019302E0,-8.747583628E-1,1.804341823E-1,-1.986837685E-1
5.914685968E0,-4.667007029E-1,-3.009272516E-1,-2.396117151E-1
5.931352634E0,-2.193004489E-1,-6.876046658E-1,-2.671006322E-1
5.948019300E0,-2.351829410E-1,-5.648208261E-1,-1.143844277E-1
5.964685966E0,-2.351829410E-1,-5.648208261E-1,-1.143844277E-1
5.981352632E0,-5.754346251E-1,2.598465979E-1,1.684459597E-1
5.998019298E0,-7.104357481E-1,7.412080765E-1,1.757763475E-1
6.014685964E0,-7.568614483E-1,8.597158194E-1,1.226311028E-1
6.031352630E0,-7.519745231E-1,6.825650334E-1,-4.230238497E-2
6.048019296E0,-7.293725610E-1,5.475639105E-1,-1.217148080E-1
6.064685962E0,-6.017017961E-1,3.294851780E-1,-3.263545036E-1
6.081352628E0,-3.463603258E-1,1.291215420E-1,-5.102248192E-1
6.098019294E0,-3.463603258E-1,1.291215420E-1,-5.102248192E-1
6.114685960E0,-1.936441362E-1,-3.992764950E-1,-5.597048402E-1
6.131352626E0,-3.878991306E-1,-4.267654121E-1,-5.633700490E-1
6.148019292E0,-5.302306414E-1,-8.895718306E-2,-5.059487820E-1
6.164685958E0,-5.253437161E-1,2.323576957E-1,-4.210385382E-1
6.181352624E0,-5.198459029E-1,3.655261993E-1,-3.752236962E-1
6.198019290E0,-4.233292937E-1,5.915461779E-1,-2.475529462E-1
6.214685956E0,-4.233292937E-1,5.915461779E-1,-2.475529462E-1
6.231352622E0,1.111773923E-1,6.569086909E-1,5.849030241E-2
6.248019288E0,2.510654330E-1,5.084685683E-1,1.104138121E-1
6.264685954E0,2.339612097E-1,3.917934000E-1,2.130390853E-1
6.281352620E0,2.339612097E-1,3.917934000E-1,2.130390853E-1
6.281352620E0,2.614501119E-1,6.679042578E-1,2.448040545E-1
6.314685952E0,5.601630211E-1,1.355127096E0,6.455313563E-1
6.331352618E0,3.384190798E-1,2.403981924E0,9.753983617E-1
6.348019284E0,2.070831656E-1,3.400913239E0,1.523954868E0
6.364685950E0,3.255909383E-1,3.837070704E0,1.938121200E0
6.381352616E0,9.016364217E-1,4.268341064E0,2.844033718E0
6.398019282E0,1.616959095E0,1.775402069E0,3.222769976E0
6.414685948E0,1.616959095E0,1.775402069E0,3.222769976E0
6.431352614E0,3.032943726E0,-1.717522740E0,2.660774231E0
6.448019280E0,3.367086649E0,-1.972253323E0,1.889252067E0
6.464685946E0,2.776991367E0,-8.696423769E-1,1.426827431E0
6.481352612E0,2.776991367E0,-8.696423769E-1,1.426827431E0
6.498019278E0,4.764745235E-1,1.810450554E-1,1.582597971E0
6.514685944E0,-8.246674389E-2,-2.783252597E-1,1.332754254E0
6.531352610E0,2.199113220E-1,5.787180066E-1,1.126892805E0
6.548019276E0,2.199113220E-1,5.787180066E-1,1.126892805E0
6.564685942E0,8.344413042E-1,-2.318995446E-1,1.258839607E0
6.581352608E0,7.910698652E-1,-8.079450130E-1,1.130558014E0
6.598019274E0,3.933969140E-1,-8.733075857E-1,8.300125003E-1
6.614685940E0,2.046397030E-1,-9.032399058E-1,5.044215918E-1
6.631352606E0,2.706131041E-1,-1.017471671E0,3.962985277E-1
6.648019272E0,3.805687428E-1,-1.035186768E0,3.761399984E-1
6.664685938E0,2.272416949E-1,-7.890082002E-1,1.727220118E-1
6.681352604E0,2.272416949E-1,-7.890082002E-1,1.727220118E-1
6.698019270E0,-3.952295184E-1,-2.697731555E-1,-4.644099474E-1
6.714685936E0,-6.780598760E-1,-9.140064567E-2,-7.845031023E-1
6.731352602E0,-9.138537049E-1,2.079230994E-1,-8.749110699E-1
6.748019268E0,-9.138537049E-1,2.079230994E-1,-8.749110699E-1
6.764685934E0,-1.221118689E0,3.899607956E-1,-1.078939915E0
6.781352600E0,-1.213177443E0,4.076758921E-1,-1.419191599E0
6.798019266E0,-9.114102721E-1,1.437823027E-1,-1.772271395E0
6.814685932E0,-7.159335017E-1,-2.135736048E-1,-1.915213823E0
6.831352598E0,-6.872228980E-1,-4.114937782E-1,-1.910937786E0
6.848019264E0,-6.737838387E-1,-8.885791898E-1,-1.650709391E0
6.864685930E0,-7.831286192E-1,-1.349171281E0,-1.076496482E0
6.881352596E0,-9.266818762E-1,-1.470122457E0,-7.967203856E-1
6.898019262E0,-1.377500057E0,-3.107011020E-1,-3.324631453E-1
6.914685928E0,-1.618791699E0,2.160246849E0,-3.935496211E-1
6.931352594E0,-1.388495684E0,2.166355610E0,-6.226239204E-1
6.948019260E0,-1.141095400E0,1.564653754E0,-6.226239204E-1
6.964685926E0,-6.175842881E-1,3.142135739E-1,-5.884155035E-1
6.981352592E0,-6.175842881E-1,3.142135739E-1,-5.884155035E-1
6.998019258E0,1.997527778E-1,-4.802924395E-2,-4.558578432E-1
7.014685924E0,1.753181964E-1,-2.874882221E-1,-3.507890999E-1
7.031352590E0,1.343902498E-1,-6.491202116E-1,6.887500733E-2
7.048019256E0,1.343902498E-1,-6.491202116E-1,6.887500733E-2
7.064685922E0,1.343902498E-1,-6.491202116E-1,6.887500733E-2
7.081352588E0,9.346231073E-2,-1.266704440E0,1.006399691E-1
7.098019254E0,-6.847794056E-1,1.518228054E0,4.993819445E-2
7.114685920E0,-7.428115606E-1,1.403385520E0,-2.408334464E-1
7.131352586E0,-7.428115606E-1,1.403385520E0,-2.408334464E-1
7.148019252E0,6.945532560E-1,4.412734509E-1,-2.719875574E-1
7.164685918E0,-1.954767294E-2,1.431485295E0,-4.772381186E-1
7.181352584E0,-3.115410358E-2,-3.895026445E-1,-3.648389876E-1
7.198019250E0,-3.115410358E-2,-3.895026445E-1,-3.648389876E-1
7.214685916E0,9.987639189E-1,-2.091982841E0,-7.075341344E-1
7.231352582E0,5.900954008E-1,-1.546480536E0,-5.199986696E-1
7.248019248E0,1.685986817E-1,-1.223333120E0,-5.682569742E-1
7.264685914E0,1.685986817E-1,-1.223333120E0,-5.682569742E-1
7.281352580E0,-9.162971750E-3,-1.059621334E0,-7.655662894E-1
7.298019246E0,-8.674279600E-2,-1.235550404E0,-9.097303748E-1
7.314685912E0,-5.406153202E-1,-6.081922650E-1,-8.993456960E-1
7.331352578E0,-5.406153202E-1,-6.081922650E-1,-8.993456960E-1
7.348019244E0,-1.032972336E0,1.598251343E0,-1.650862098E-1
7.364685910E0,-1.190575480E0,3.054553032E0,-3.252854943E-2
7.381352576E0,-1.537546635E0,2.574413300E0,2.674060464E-1
7.398019242E0,-1.775173068E0,2.746677160E0,4.555523992E-1
7.414685908E0,-2.073885918E0,4.202978611E0,1.129336238E0
7.431352574E0,-2.073885918E0,4.202978611E0,1.129336238E0
7.448019240E0,8.747583628E-1,2.551200390E0,3.891055822E0
7.464685906E0,2.443459034E0,1.166980863E0,4.103025913E0
7.481352572E0,4.335918427E0,-1.495778799E0,3.734674454E0
7.498019238E0,4.535059929E0,-3.295386314E0,3.068221092E0
7.514685904E0,3.516137600E0,-2.243477345E0,2.669326305E0
7.531352570E0,2.529591084E0,-1.087721109E0,2.601520300E0
7.548019236E0,5.009091273E-2,1.040531754E0,2.133597851E0
7.564685902E0,-1.813657522E0,2.011806726E0,1.464090109E0
7.581352568E0,-1.813657522E0,2.011806726E0,1.464090109E0
7.598019234E0,-3.035997868E0,8.963677287E-1,7.188351154E-1
7.614685900E0,-2.687804937E0,1.038088322E0,-1.119256973E0
7.631352566E0,-1.830761790E0,-2.477820218E-1,-2.752709389E0
7.648019232E0,-1.830761790E0,-2.477820218E-1,-2.752709389E0
7.664685898E0,-8.717040420E-1,-1.189735532E0,-3.728260517E0
7.681352564E0,-1.172860414E-1,-1.650327563E0,-3.662286997E0
7.698019230E0,5.271763206E-1,-1.450574756E0,-3.248731613E0
7.714685896E0,5.271763206E-1,-1.450574756E0,-3.248731613E0
7.731352562E0,2.663370371E-1,-2.041280985E0,-2.137568474E0
7.748019228E0,-1.165529966E0,-1.832365274E0,-1.672700524E0
7.764685894E0,-1.871689677E0,-9.362266064E-1,-9.958623052E-1
7.781352560E0,-1.871689677E0,-9.362266064E-1,-9.958623052E-1
7.798019226E0,-1.556483507E0,-2.241033792E0,-9.408844709E-1
7.814685892E0,-2.764163017E0,3.193830252E0,-1.027627230E0
7.831352558E0,-9.633337855E-1,1.640401006E0,5.665770918E-2
7.848019224E0,-9.633337855E-1,1.640401006E0,5.665770918E-2
7.864685890E0,8.625410795E-1,-2.398636818E0,7.646499872E-1
7.881352556E0,-3.011563420E-1,1.286710262E0,2.167042792E-1
7.898019222E0,-7.165443897E-1,2.606789112E0,2.570213675E-1
7.914685888E0,-7.165443897E-1,2.606789112E0,2.570213675E-1
7.931352554E0,1.350622058E0,-2.257908881E-1,4.262309074E-1
7.948019220E0,1.350622058E0,-2.257908881E-1,4.262309074E-1
7.964685886E0,2.188117743E0,-3.214141369E0,-8.608611822E-1
7.981352552E0,1.839924693E0,-3.463985205E0,-8.132137656E-1
7.998019218E0,8.906408548E-1,-1.958814263E0,-3.923279047E-1
8.014685884E0,3.573558927E-1,9.063705802E-2,4.537198246E-1
8.031352550E0,-9.529490769E-2,3.746662855E0,1.038317442E0
8.048019216E0,-8.063415438E-2,5.347739220E0,1.485470414E0
8.064685882E0,-4.520399272E-1,6.468676090E0,2.767675638E0
8.081352548E0,-1.401323795E0,2.860908747E0,3.963748932E0
8.098019214E0,-1.401323795E0,2.860908747E0,3.963748932E0
8.114685880E0,1.457523346E0,6.978366375E-1,4.065152168E0
8.131352546E0,2.849073410E0,-6.717221737E-1,3.197724342E0
8.148019212E0,1.841146469E0,-3.137554228E-1,2.078620195E0
8.164685878E0,1.841146469E0,-3.137554228E-1,2.078620195E0
8.181352544E0,-4.214967042E-2,4.846448302E-1,6.314814687E-1
8.198019210E0,-1.941328287E0,1.162704706E0,3.761399984E-1
8.214685876E0,-2.435517788E0,9.391282201E-1,-8.791871071E-1
8.231352542E0,-1.875965714E0,4.143953919E-1,-2.854112864E0
8.248019208E0,-1.448971272E0,-3.174206018E-1,-3.692219496E0
8.264685874E0,7.941242307E-3,-1.729129076E0,-4.696481228E0
8.281352540E0,1.659719586E0,-3.125566006E0,-4.369057655E0
8.298019206E0,2.114202976E0,-4.239172459E0,-3.345248222E0
8.314685872E0,1.417206287E0,-3.955120325E0,-2.802800417E0
8.331352538E0,-6.206386089E-1,-2.434677839E0,-1.654374480E0
8.348019204E0,-6.206386089E-1,-2.434677839E0,-1.654374480E0
8.348019204E0,-1.981645346E0,-7.493020296E-1,-1.388648391E0
8.381352536E0,-1.877798319E0,-5.428296924E-1,-1.177289128E0
8.398019202E0,-1.632841587E0,-4.481456876E-1,-9.683734179E-1
8.414685868E0,-2.060446978E0,1.936059594E0,-4.259254634E-1
8.431352534E0,-1.312137604E0,2.042579055E-1,5.459604263E-1
8.448019200E0,-1.123991251E0,-3.754527569E-1,1.192866206E0
8.464685866E0,-8.081740737E-1,7.033344507E-1,1.650403976E0
8.481352532E0,-8.081740737E-1,7.033344507E-1,1.650403976E0
8.498019198E0,4.532616735E-1,-3.210858107E-1,9.941824526E-2
8.514685864E0,9.065233469E-1,-1.482110620E-1,1.715002805E-1
8.531352530E0,1.361617565E0,-5.047270283E-2,5.421425030E-2
8.548019196E0,1.361617565E0,-5.047270283E-2,5.421425030E-2
8.564685862E0,1.435532212E0,-7.242565751E-1,-7.075341344E-1
8.581352528E0,1.269376993E0,-1.531819820E0,-7.747292519E-1
8.598019194E0,3.500255048E-1,-1.567631811E-1,-6.122392416E-1
8.614685860E0,-3.726275265E-2,3.202382326E0,2.380845547E-1
8.631352526E0,4.886918236E-3,4.116847038E0,8.263473511E-1
8.648019192E0,-5.009090900E-1,4.466872215E0,1.624747634E0
8.664685858E0,-1.106886983E0,3.195051908E0,2.448804140E0
8.681352524E0,-2.596175373E-1,2.653825760E0,3.356549263E0
8.698019190E0,6.230821013E-1,1.765017390E0,3.630216599E0
8.714685856E0,1.855807185E0,-9.539417028E-1,3.628384113E0
8.731352522E0,1.786168575E0,-3.901135325E-1,3.411527157E0
8.748019188E0,1.212566614E0,7.680860758E-1,3.039510489E0
8.764685854E0,8.307760954E-1,9.727258086E-1,2.665661097E0
8.781352520E0,-6.444623470E-1,9.763910174E-1,2.025474787E0
8.798019186E0,-2.021962404E0,6.436987966E-2,9.014837146E-1
8.814685852E0,-1.685375929E0,3.985128999E-1,-1.628107309E0
8.831352518E0,-1.361617565E0,2.672533505E-3,-2.889543056E0
8.848019184E0,-6.652317643E-1,-1.256930590E0,-4.523606300E0
8.864685850E0,3.255909383E-1,-2.313115835E0,-5.230988026E0
8.881352516E0,1.149036646E0,-2.423071623E0,-4.919446945E0
8.898019182E0,1.117882490E0,-1.767613649E0,-4.495506763E0
8.914685848E0,-6.719512492E-2,-4.133263826E-1,-3.393506527E0
8.931352514E0,-6.719512492E-2,-4.133263826E-1,-3.393506527E0
8.948019180E0,-2.359770536E0,-2.752938509E0,-1.614668369E0
8.964685846E0,-2.417191982E0,-2.468275547E0,-1.565799117E0
8.981352512E0,-2.247371435E0,2.376492977E0,-1.560912251E0
8.998019178E0,-2.247371435E0,2.376492977E0,-1.560912251E0
9.014685844E0,-2.247371435E0,2.376492977E0,-1.560912251E0
9.031352510E0,1.474627614E0,-1.497000456E0,1.178205490E0
9.048019176E0,1.215620875E0,-2.132299900E0,1.012050271E0
9.064685842E0,1.158810496E0,-2.322278738E0,1.351080179E0
9.081352508E0,1.158810496E0,-2.322278738E0,1.351080179E0
9.098019174E0,8.576541543E-1,1.157207012E0,5.997164845E-1
9.114685840E0,9.401208758E-1,1.254945278E0,2.942841053E-1
9.131352506E0,1.442251801E0,4.156171381E-1,2.386954129E-1
9.148019172E0,1.706145287E0,-1.421024203E-1,1.745546162E-1
9.164685838E0,1.630398154E0,-9.710459113E-1,1.684459597E-1
9.181352504E0,1.630398154E0,-9.710459113E-1,1.684459597E-1
9.198019170E0,-4.917461574E-1,1.898796797E0,1.186146736E0
9.214685836E0,-7.055488229E-1,3.835849047E0,1.188590169E0
9.231352502E0,-8.478803039E-1,6.084442139E0,1.554498196E0
9.248019168E0,-2.004858255E0,3.110141754E0,2.346179008E0
9.264685834E0,-2.046397030E-1,1.124220252E0,2.496451616E0
9.281352500E0,1.190575480E0,5.787180066E-1,2.292422771E0
9.298019166E0,2.787375927E0,-5.318341255E-1,2.136041403E0
9.314685832E0,2.343888044E0,-7.676279545E-1,2.418871880E0
9.331352498E0,1.314581037E0,-1.178739905E0,2.697426081E0
9.348019164E0,5.772672296E-1,-1.215391874E0,2.450025797E0
9.364685830E0,-6.487383842E-1,-2.844339013E-1,6.491965652E-1
9.381352496E0,-6.487383842E-1,-2.844339013E-1,6.491965652E-1
9.398019162E0,-1.162475705E0,-2.429180145E0,-3.863872528E0
9.414685828E0,-8.429933786E-1,-2.745608091E0,-4.686707497E0
9.431352494E0,-2.266308367E-1,-4.198855400E0,-4.588357925E0
9.448019160E0,-3.549124300E-1,-4.010097980E0,-3.087463379E0
9.464685826E0,-1.724471331E0,-1.669264317E0,-1.659872293E0
9.481352492E0,-2.123976946E0,-6.943241954E-1,-1.444847941E0
9.498019158E0,-2.278525591E0,-3.214675933E-2,-1.504712701E0
9.514685824E0,-3.897317410E0,3.827296972E0,-2.278678417E0
9.531352490E0,-1.179579854E0,6.440805793E-1,-6.330085993E-1
9.548019156E0,1.247385859E0,-1.011363029E0,7.376192510E-2
9.564685822E0,3.397629976E0,-3.303327560E0,-2.066250145E-1
9.581352488E0,3.397629976E0,-3.303327560E0,-2.066250145E-1
9.598019154E0,1.579085469E0,-2.391306639E0,-2.596175298E-3
9.614685820E0,1.573587656E0,-1.935601354E0,-7.142536640E-1
9.631352486E0,5.045742989E-1,-3.986656368E-1,-1.755167246E0
9.648019152E0,5.045742989E-1,-3.986656368E-1,-1.755167246E0
9.664685818E0,1.265100956E0,-1.939877510E0,-7.392991185E-1
9.681352484E0,-2.504545636E-2,1.726532936E0,-3.025307953E-1
9.698019150E0,-1.343902480E-2,3.651978731E0,9.741765857E-1
9.714685816E0,-1.343902480E-2,3.651978731E0,9.741765857E-1
9.731352482E0,-3.298669681E-2,4.637914658E0,2.260657787E0
9.748019148E0,-1.379943490E0,7.094430923E-1,2.563646793E0
9.764685814E0,-1.136208475E-1,7.536543906E-2,2.583194494E0
9.781352480E0,-1.136208475E-1,7.536543906E-2,2.583194494E0
9.798019146E0,2.508821726E0,-1.478674531E0,2.859305382E0
9.814685812E0,3.208872795E0,-1.052901864E0,2.932609081E0
9.831352478E0,3.066541195E0,4.424951673E-1,3.352273226E0
9.848019144E0,1.350011230E-1,-2.474994898E0,4.207483768E0
9.864685810E0,-8.747583628E-1,-2.862283230E0,4.099360943E0
9.881352476E0,-1.949880362E0,-1.567249894E0,2.250273228E0
9.898019142E0,-2.794706345E0,-1.224554777E0,4.390590489E-1
9.914685808E0,-2.794706345E0,-1.224554777E0,4.390590489E-1
9.931352474E0,-1.285870314E0,-1.223943949E0,-2.859610796E0
9.948019140E0,-4.886918236E-3,-1.507385254E0,-4.683652878E0
9.964685806E0,-2.712239623E-1,-2.548298836E0,-4.352564335E0
9.981352472E0,-2.712239623E-1,-2.548298836E0,-4.352564335E0
9.998019138E0,-1.044578776E-1,-2.679023743E0,-1.793040872E0
1.001468580E1,-1.610850453E0,4.270174026E0,-8.712459207E-1
1.003135247E1,-1.449582100E0,2.412533998E0,-1.748600453E-1
1.004801914E1,-1.449582100E0,2.412533998E0,-1.748600453E-1
1.006468580E1,5.117214203E0,-5.759004116E0,1.751654744E-1
1.008135247E1,2.792262793E0,-1.005865216E0,2.257603407E0
1.009801913E1,4.142884731E0,-2.403523922E0,1.709657788E0
1.011468580E1,4.142884731E0,-2.403523922E0,1.709657788E0
1.013135247E1,7.037162185E-1,-6.497310400E-1,-1.118035316E0
1.014801913E1,1.197905779E0,-2.261803150E0,-6.684387922E-1
1.016468580E1,7.470875978E-1,-2.873278856E0,-5.120574236E-1
1.018135246E1,7.470875978E-1,-2.873278856E0,-5.120574236E-1
1.019801913E1,-7.367029190E-1,-1.181794286E0,-4.291325063E-2
1.021468580E1,-8.497129083E-1,-8.323796391E-1,2.753472924E-1
1.023135246E1,-8.515455127E-1,-2.148793221E0,-2.072358727E-1
1.024801913E1,-1.364060998E0,-3.208643675E0,-7.783944607E-1
1.026468579E1,-4.265668869E0,-3.758421898E0,-1.164461017E0
1.028135246E1,-3.084867239E0,9.499176025E0,-7.991638184E-1
1.029801913E1,6.346884966E-1,1.022205830E0,6.870701313E-1
1.031468579E1,3.546680927E0,-1.583743334E0,9.839504361E-1
1.033135246E1,5.222282887E0,-2.186666727E0,4.738783538E-1
1.034801912E1,5.058571339E0,-3.200702429E0,1.314428329E0
1.036468579E1,5.058571339E0,-3.200702429E0,1.314428329E0
1.038135246E1,5.213730812E0,-4.876915455E0,2.781114578E0
1.039801912E1,4.329198837E0,-3.576995134E0,2.344346285E0
1.041468579E1,2.508210897E0,2.299142331E-1,2.815933943E0
1.043135245E1,2.508210897E0,2.299142331E-1,2.815933943E0
1.044801912E1,4.337139800E-2,4.537732601E0,3.796371937E0
1.046468579E1,-1.359174132E0,2.821813583E0,3.048062563E0
1.048135245E1,-1.886961341E0,-6.790525317E-1,2.624733210E0
1.049801912E1,-3.671908140E0,-6.602608204E0,2.748738766E0
1.051468578E1,-3.492924690E0,-7.297161579E0,2.619846344E0
1.053135245E1,-2.293186426E0,-3.543397427E0,2.211788654E0
1.054801912E1,-8.588758707E-1,-3.211086988E0,1.559995890E0
1.056468578E1,1.398880333E-1,-5.457236767E0,9.802852273E-1
1.058135245E1,4.960221946E-1,-6.214709282E0,8.129082918E-1
1.059801911E1,1.043967962E0,-6.843899727E0,6.229293346E-1
1.061468578E1,1.043967962E0,-6.843899727E0,6.229293346E-1
1.063135245E1,8.173370957E-1,-5.722352028E0,6.595812440E-1
1.064801911E1,5.644390583E-1,-5.205560684E0,6.913462281E-1
1.066468578E1,-3.139844835E-1,-4.822548389E0,7.622065544E-1
1.068135244E1,-3.139844835E-1,-4.822548389E0,7.622065544E-1
1.069801911E1,-4.172206521E-1,-2.683910847E0,5.801688433E-1
1.071468578E1,-6.145299673E-1,9.796743840E-2,2.136499584E-1
1.073135244E1,-1.002429128E0,2.615341187E0,-4.399753511E-1
1.074801911E1,-1.002429128E0,2.615341187E0,-4.399753511E-1
1.076468577E1,4.667007029E-1,1.492800862E-1,-4.466948807E-1
1.078135244E1,9.382883310E-1,-9.252310395E-1,-9.763146043E-1
1.079801911E1,1.643226266E0,-2.773707867E0,-2.406960011E0
1.081468577E1,1.643226266E0,-2.773707867E0,-2.406960011E0
1.083135244E1,-7.195987105E-1,-6.239143848E0,-1.962250352E0
1.084801910E1,-2.767217398E0,-4.323472023E0,-9.158390164E-1
1.086468577E1,-1.389106512E0,-1.187292099E0,-7.490729094E-1
1.088135244E1,-1.389106512E0,-1.187292099E0,-7.490729094E-1
1.089801910E1,2.154520035E0,-2.183001757E0,1.513417512E-1
1.091468577E1,2.844797373E0,-1.426140189E0,6.540834904E-1
1.093135243E1,2.932151034E-2,-1.179350853E0,6.516399980E-1
1.094801910E1,2.932151034E-2,-1.179350853E0,6.516399980E-1
1.096468577E1,5.589412451E-1,-3.226969481E0,3.181078434E-1
1.098135243E1,6.707295179E-1,-2.684521675E0,4.543306828E-1
1.099801910E1,2.419024557E-1,-1.515326500E0,6.913462281E-1
1.101468576E1,2.419024557E-1,-1.515326500E0,6.913462281E-1
1.103135243E1,-4.899135530E-1,-5.312232971E-1,6.870701313E-1
1.104801910E1,-8.985821009E-1,-6.741656661E-1,3.877464235E-1
1.106468576E1,-1.306028843E0,-1.106047034E0,-7.467821985E-2
1.108135243E1,-1.306028843E0,-1.106047034E0,-7.467821985E-2
1.109801909E1,-1.639561057E0,7.159564495E0,7.108938694E-1
1.111468576E1,-1.070235133E0,3.352044106E0,1.487303019E0
1.113135243E1,1.936441302E0,4.492146969E-1,2.856861830E0
1.114801909E1,1.936441302E0,4.492146969E-1,2.856861830E0
1.116468576E1,5.192961693E0,-3.648466349E0,2.718806505E0
1.118135242E1,5.654164314E0,-5.521988392E0,2.187354088E0
1.119801909E1,3.299280643E0,-2.320446253E0,2.622900724E0
1.121468576E1,3.299280643E0,-2.320446253E0,2.622900724E0
1.123135242E1,6.304124594E-1,1.925674915E0,3.224602461E0
1.124801909E1,-1.337182999E0,3.137019634E0,3.004691124E0
1.126468575E1,-3.316384792E0,7.851903439E-1,2.738965034E0
1.128135242E1,-3.316384792E0,7.851903439E-1,2.738965034E0
1.129801909E1,-4.004829407E0,1.929950953E0,2.371835232E0
1.131468575E1,-1.496618748E0,7.069995999E-1,2.440862894E0
1.133135242E1,-2.687804960E-2,-1.352836370E0,1.833052516E0
1.134801908E1,-2.687804960E-2,-1.352836370E0,1.833052516E0
1.136468575E1,4.483747482E-1,-2.087095976E0,6.137663722E-1
1.138135242E1,4.483747482E-1,-2.087095976E0,6.137663722E-1
1.139801908E1,-1.429423541E-1,-1.757839799E0,-8.620828986E-1
1.141468575E1,-4.153880477E-1,-1.734016061E0,-1.037401080E0
1.143135241E1,-7.244856358E-1,-1.712635756E0,-1.191339016E0
1.144801908E1,-9.657772183E-1,-1.423696756E0,-1.454010844E0
1.146468575E1,-8.747583628E-1,-1.053512692E0,-2.416733742E0
1.148135241E1,-7.116574645E-1,-1.081612468E0,-2.969566345E0
1.149801908E1,-3.451386094E-1,-9.753220081E-1,-3.309207201E0
1.151468574E1,-1.185077652E-1,-9.484439492E-1,-2.862054110E0
1.153135241E1,-4.746419191E-1,-1.476841927E0,-2.333656073E0
1.154801908E1,-6.291907430E-1,-2.063272238E0,-2.209650517E0
1.156468574E1,-1.072067738E0,-2.938030481E0,-1.854738235E0
1.158135241E1,-1.636506796E0,-3.381518364E0,-1.579238176E0
1.159801907E1,-3.131292820E0,3.504836559E-2,-1.812588573E0
1.161468574E1,-3.106247425E0,2.375882149E0,-1.649487615E0
1.163135241E1,-1.774562240E0,-6.146826968E-2,-9.866993427E-1
1.164801907E1,-9.663881063E-1,-2.115119249E-2,8.746056557E-1
1.166468574E1,-5.497782826E-1,6.288089156E-1,2.441473722E0
1.168135240E1,-5.736020207E-1,-4.558578506E-2,2.172693253E0
1.169801907E1,-3.707949221E-1,-3.632354736E-1,9.149227142E-1
1.171468574E1,-3.707949221E-1,-3.632354736E-1,9.149227142E-1
1.173135240E1,1.588248461E-1,1.589699268E0,-6.690496206E-1
1.174801907E1,-1.093447953E-1,1.678274632E0,-2.487746775E-1
1.176468573E1,3.518581092E-1,5.335140228E-1,6.027708054E-1
1.178135240E1,3.518581092E-1,5.335140228E-1,6.027708054E-1
1.179801907E1,1.015868187E0,2.300745726E0,2.032194376E0
1.181468573E1,1.091004491E0,2.150473118E0,2.521497011E0
1.183135240E1,1.583361506E0,7.222712636E-1,3.559356451E0
1.184801906E1,1.583361506E0,7.222712636E-1,3.559356451E0
1.186468573E1,1.794109821E0,3.496437371E-1,4.555066109E0
1.188135240E1,1.700036645E0,7.381537557E-1,4.426784515E0
1.189801906E1,5.302306414E-1,9.061415195E-1,3.957029343E0
1.191468573E1,-6.890554428E-1,1.559995860E-1,3.076773167E0
1.193135239E1,-1.028085470E0,-6.650026441E-1,2.647946119E0
1.194801906E1,-1.594357133E0,-1.476231098E0,1.567326307E0
1.196468573E1,-1.442251801E0,4.473820925E-1,-6.653844714E-1
1.198135239E1,-9.920443892E-1,-2.325104028E-1,-3.248731613E0
1.199801906E1,-7.684679031E-1,-7.193696499E-1,-4.015977859E0
1.201468572E1,-9.162971750E-3,-8.671988845E-1,-4.622566700E0
1.203135239E1,5.681042671E-1,-1.753563762E0,-4.649444580E0
1.204801906E1,5.681042671E-1,-1.753563762E0,-4.649444580E0
1.206468572E1,-4.159989059E-1,-1.154916167E0,-3.570657253E0
1.208135239E1,-8.753692508E-1,-7.511346340E-1,-3.009272575E0
1.209801905E1,-5.106829405E-1,-2.921537161E0,-3.152825832E0
1.211468572E1,-5.106829405E-1,-2.921537161E0,-3.152825832E0
1.213135239E1,-2.959028959E0,-2.347324371E0,-2.634812593E0
1.214801905E1,-1.824653149E0,-1.320995111E-2,-4.864010811E-1
1.216468572E1,-7.550288439E-1,3.159010887E0,1.189200997E0
1.218135238E1,-2.225991249E0,2.257374525E0,1.208137870E0
1.219801905E1,-2.174067736E0,2.958876193E-1,1.208137870E0
1.221468572E1,-2.895499170E-1,-7.499128580E-1,9.137009978E-1
1.223135238E1,1.516166329E0,1.722256899E0,1.279608965E0
1.224801905E1,1.355508924E0,1.113835573E0,1.021824002E0
1.226468571E1,1.088561058E0,4.815905094E-1,6.229293346E-1
1.228135238E1,1.016479015E0,1.194469690E0,4.213439822E-1
1.229801905E1,1.016479015E0,1.194469690E0,4.213439822E-1
1.231468571E1,4.935787320E-1,2.615952015E0,2.142760992E0
1.233135238E1,8.222240210E-1,1.347185969E0,2.476903915E0
1.234801904E1,1.847865939E0,5.765036494E-2,2.725525856E0
1.236468571E1,1.847865939E0,5.765036494E-2,2.725525856E0
1.238135238E1,1.847865939E0,5.765036494E-2,2.725525856E0
1.238135238E1,1.895513415E0,1.301981926E0,3.176344156E0
1.241468571E1,1.912006736E-1,1.146211386E0,4.737714291E0
1.243135237E1,-1.656665325E0,-9.325614572E-1,3.632660151E0
1.244801904E1,-3.142288446E0,-2.032728910E0,-1.085048556E0
1.246468571E1,-3.012785196E0,-6.857720613E-1,-3.045313597E0
1.248135237E1,-1.136819363E0,1.877645552E-1,-4.967094421E0
1.249801904E1,2.736674249E-1,-3.197648048E0,-4.925555229E0
1.251468570E1,3.769035637E-1,-4.406549454E0,-4.541321278E0
1.253135237E1,-3.860665262E-1,-4.703429699E0,-3.742921114E0
1.254801904E1,-1.746462345E0,-2.205603600E0,-3.224297047E0
1.256468570E1,-2.089768410E0,1.264108300E0,-2.866330147E0
1.258135237E1,-2.098320484E0,2.628780127E0,-2.829678297E0
1.259801903E1,-2.061668634E0,-2.593884468E-1,-2.242637396E0
1.261468570E1,-2.284634262E-1,-2.372369766E0,-9.926552884E-3
1.263135237E1,4.746419191E-1,1.170645952E0,2.100000381E0
1.264801903E1,3.921751976E-1,1.520671487E0,2.093280792E0
1.266468570E1,1.044578776E-1,2.751182318E-1,8.098539710E-1
1.268135236E1,1.826485693E-1,-1.323285848E-1,3.975202441E-1
1.269801903E1,1.826485693E-1,-1.323285848E-1,3.975202441E-1
1.271468570E1,8.497129083E-1,6.330850124E-1,1.294269800E0
1.273135236E1,8.985821009E-1,2.066173792E0,1.424383998E0
1.274801903E1,8.643736839E-1,3.648924351E0,1.625358462E0
1.276468569E1,8.643736839E-1,3.648924351E0,1.625358462E0
1.278135236E1,5.106829405E-1,2.072282314E0,2.612515926E0
1.279801903E1,1.048854828E0,1.260443091E0,2.779892921E0
1.281468569E1,1.693317175E0,9.452368617E-1,2.783558130E0
1.283135236E1,1.693317175E0,9.452368617E-1,2.783558130E0
1.284801902E1,1.781892538E0,-4.102720618E-1,3.158628941E0
1.286468569E1,1.121547699E0,2.714530230E-1,3.556302071E0
1.288135236E1,7.330377586E-3,1.297705889E0,3.798204422E0
1.289801902E1,7.330377586E-3,1.297705889E0,3.798204422E0
1.291468569E1,-1.420871496E0,-4.192059487E-2,2.189797401E0
1.293135235E1,-1.785557747E0,6.948587019E-3,-1.080161691E0
1.294801902E1,-1.785557747E0,6.948587019E-3,-1.080161691E0
1.296468569E1,-1.785557747E0,6.948587019E-3,-1.080161691E0
1.298135235E1,3.158170879E-1,-1.649716735E0,-5.781376839E0
1.299801902E1,6.267472506E-1,-3.358305454E0,-5.522370338E0
1.301468568E1,-5.070177838E-2,-1.032743216E0,-4.439918041E0
1.303135235E1,-5.070177838E-2,-1.032743216E0,-4.439918041E0
1.304801902E1,-1.327409148E0,-1.775325835E-1,-2.438114166E0
1.306468568E1,-1.451414704E0,-3.459708929E0,-2.373362303E0
1.308135235E1,-3.318828344E0,-3.629529476E0,-2.850447893E0
1.309801901E1,-3.439168692E0,-2.008294344E0,-2.607323647E0
1.311468568E1,-1.982256174E0,1.896353364E0,-1.107039690E0
1.313135235E1,4.886918142E-2,2.039906502E0,1.321147799E0
1.314801901E1,4.886918142E-2,2.039906502E0,1.321147799E0
1.316468568E1,-6.304124594E-1,1.275103927E0,3.152520418E0
1.318135234E1,8.503237963E-1,-1.268308014E-1,1.991266489E0
1.319801901E1,2.138026714E0,-8.891900182E-1,7.035635114E-1
1.321468568E1,2.138026714E0,-8.891900182E-1,7.035635114E-1
1.323135234E1,2.547916889E0,-7.260891199E-1,1.611155868E-1
1.324801901E1,1.793498993E0,-8.384882808E-1,3.651444316E-1
1.326468567E1,9.847140312E-1,5.542834401E-1,5.600103140E-1
1.328135234E1,5.638281703E-1,3.056996346E0,8.770490885E-1
1.329801901E1,6.817250848E-1,3.286681652E0,1.090240955E0
1.331468567E1,7.428115606E-1,2.969031811E0,1.404225469E0
1.333135234E1,4.941896200E-1,7.839685678E-1,1.511126757E0
1.334801900E1,1.120326042E0,2.861137986E-1,1.521511436E0
1.336468567E1,1.547320485E0,1.346193254E-1,1.520289779E0
1.338135234E1,2.023184061E0,-3.754527569E-1,2.197127819E0
1.339801900E1,2.023184061E0,-3.754527569E-1,2.197127819E0
1.341468567E1,-2.919933498E-1,2.708421648E-1,3.535532713E0
1.343135233E1,-1.183245063E0,6.679042578E-1,2.250884056E0
1.344801900E1,-2.992015600E0,-1.598175019E-1,-5.450441241E-1
1.346468567E1,-2.992015600E0,-1.598175019E-1,-5.450441241E-1
1.348135233E1,-4.404335022E-1,-9.117920399E-1,-4.275595188E0
1.349801900E1,4.453204274E-1,-2.763934135E0,-4.252993107E0
1.351468566E1,1.021365881E0,-5.059564114E0,-3.658010960E0
1.353135233E1,1.021365881E0,-5.059564114E0,-3.658010960E0
1.354801900E1,1.021365881E0,-5.059564114E0,-3.658010960E0
1.356468566E1,-1.767842650E0,-1.877569199E0,-2.876714945E0
1.358135233E1,-1.860694170E0,2.310519695E0,-3.055698395E0
1.359801899E1,-1.359174132E0,-5.318341255E-1,-2.011730433E0
1.361468566E1,-1.359174132E0,-5.318341255E-1,-2.011730433E0
1.363135233E1,1.714697480E0,-2.371148109E0,1.363908291E0
1.364801899E1,1.471573234E0,-1.025412917E0,1.622915030E0
1.366468566E1,4.996874034E-1,-4.334849119E-1,5.001455545E-1
1.368135232E1,5.980366468E-1,-8.739184141E-1,-3.483456373E-1
1.369801899E1,1.392771721E0,-2.093815327E0,-1.260366797E0
1.371468566E1,1.431867003E0,-2.660087109E0,-1.151632786E0
1.373135232E1,3.390299380E-1,-6.931024790E-1,-1.099709272E0
1.374801899E1,-6.108647678E-3,1.926514804E-1,-9.353867173E-1
1.376468565E1,-4.257727563E-1,3.034394503E0,-2.310595959E-1
1.378135232E1,-1.472184062E-1,5.481518745E0,1.203250885E0
1.379801899E1,-1.119104266E0,4.048429966E0,2.457967043E0
1.381468565E1,-1.576031089E0,1.792506337E0,2.884350777E0
1.383135232E1,-8.381064534E-1,6.960040331E-1,3.342499256E0
1.384801898E1,1.602909207E0,-1.205007076E0,3.341277599E0
1.386468565E1,1.602909207E0,-1.205007076E0,3.341277599E0
1.388135232E1,3.459938049E0,-1.978972793E0,3.493993759E0
1.389801898E1,3.729329586E0,-5.996401310E-1,3.713905096E0
1.391468565E1,1.780670881E0,-1.476231098E0,4.138456345E0
1.393135231E1,-5.308414698E-1,-1.845193386E0,3.560578108E0
1.394801898E1,-1.069624186E0,-1.588019371E0,2.733467102E0
1.396468565E1,-2.587012291E0,-2.575787783E0,1.408501506E0
1.398135231E1,-2.587012291E0,-2.575787783E0,1.408501506E0
1.399801898E1,-1.522274971E0,-5.238928795E-1,-2.588386774E0
1.401468564E1,-1.215620935E-1,1.266780794E-1,-3.918239355E0
1.403135231E1,5.430588126E-1,-2.166279256E-1,-4.676322460E0
1.404801898E1,5.430588126E-1,-2.166279256E-1,-4.676322460E0
1.406468564E1,5.705476999E-1,-4.425486088E0,-2.749044180E0
1.408135231E1,1.588248461E-1,-4.991757870E0,-1.894444346E0
1.409801897E1,-3.593717575E0,6.376435757E0,-1.954920053E0
1.411468564E1,-1.729969025E0,2.585408926E0,-1.199280262E0
1.413135231E1,-1.729969025E0,2.585408926E0,-1.199280262E0
1.414801897E1,3.635867119E0,-3.416948557E0,-5.242747068E-1
1.416468564E1,3.635867119E0,-3.416948557E0,-5.242747068E-1
1.418135230E1,3.178940296E0,-4.971599579E0,6.870701313E-1
1.419801897E1,2.640157461E0,-3.352196932E0,4.199695215E-2
1.421468564E1,1.988975763E0,-1.615508318E0,-4.894554019E-1
1.423135230E1,9.969313145E-1,-1.736459494E0,-1.779143661E-1
1.424801897E1,-1.466075480E-1,-1.359555960E0,-8.628465235E-2
1.426468563E1,-8.442151546E-1,-3.436878026E-1,6.276635826E-2
1.428135230E1,-1.673769474E0,1.444924235E0,5.361865759E-1
1.429801897E1,-1.538157463E0,4.883100390E-1,6.669116020E-1
1.431468563E1,-1.538157463E0,4.883100390E-1,6.669116020E-1
1.433135230E1,-2.989572287E0,-5.433413029E0,-1.070387840E0
1.434801896E1,-3.346928120E0,-1.512882948E0,-1.164461017E0
1.436468563E1,8.765909672E-1,3.023398876E0,6.461422443E-1
1.438135230E1,8.765909672E-1,3.023398876E0,6.461422443E-1
1.439801896E1,5.098888397E0,-3.027216673E0,-1.840230078E-1
1.441468563E1,4.961443901E0,-2.100534916E0,-5.513054505E-2
1.443135229E1,4.733591080E0,-4.501233578E0,1.059697628E0
1.444801896E1,4.844768524E0,-7.382071972E0,2.322966099E0
1.446468563E1,5.043910503E0,-7.941623688E0,2.590524912E0
1.448135229E1,3.931525707E0,-3.114570379E0,2.522718906E0
1.449801896E1,2.280358315E0,3.228649378E0,3.726122379E0
1.451468562E1,5.253437161E-2,5.889576435E0,3.773159027E0
1.453135229E1,-1.206457973E0,5.125995636E0,3.105483770E0
1.454801896E1,-2.002414703E0,6.593521833E-1,1.999818563E0
1.456468562E1,-2.634659767E0,-3.723602533E0,1.977827430E0
1.458135229E1,-3.392132044E0,-5.866516113E0,2.088393927E0
1.459801895E1,-3.097084522E0,-3.518352032E0,2.024253130E0
1.461468562E1,-1.361617565E0,-2.565402985E0,1.456148863E0
1.463135229E1,-5.681042373E-2,-5.125537395E0,1.006552458E0
1.464801895E1,6.267472506E-1,-6.436453342E0,6.675224900E-1
1.466468562E1,7.916807532E-1,-6.314280033E0,5.771145225E-1
1.468135228E1,1.047022223E0,-5.663709164E0,4.659371078E-1
1.469801895E1,1.118493438E0,-4.781009674E0,6.107120514E-1
1.471468562E1,1.116050005E0,-3.820730209E0,8.214604259E-1
1.473135228E1,9.156863093E-1,-3.643579245E0,8.379537463E-1
1.474801895E1,-4.440986812E-1,-5.423028469E0,7.096721530E-1
1.476468561E1,-4.440986812E-1,-5.423028469E0,7.096721530E-1
1.478135228E1,-1.810603261E0,-6.682020664E0,5.826122761E-1
1.479801895E1,-1.558316112E0,-4.350349903E0,6.724094152E-1
1.481468561E1,-8.130609989E-1,3.198717117E0,4.268417656E-1
1.483135228E1,-8.130609989E-1,3.198717117E0,4.268417656E-1
1.484801894E1,4.331031144E-1,1.664224744E0,-4.902189970E-2
1.486468561E1,1.489288330E0,-2.038837671E0,-2.616028488E-1
1.488135228E1,2.247982502E0,-3.342422962E0,-1.335503101E0
1.489801894E1,2.247982502E0,-3.342422962E0,-1.335503101E0
1.491468561E1,-2.425133139E-1,-4.963658333E0,-1.939037561E0
1.493135227E1,-1.654832721E0,-1.129870772E0,-1.212108493E0
1.494801894E1,-1.459966749E-1,-5.257254839E-1,-6.281217337E-1
1.496468561E1,1.354287267E0,-1.652160168E0,-1.211039424E-1
1.498135227E1,1.059239507E0,-1.652770996E0,4.749473557E-2
1.499801894E1,-5.180133581E-1,-2.099924088E0,-2.703076601E-2
1.501468560E1,-5.180133581E-1,-2.099924088E0,-2.703076601E-2
1.501468560E1,-6.969966888E-1,-3.033936262E0,-5.146535859E-2
1.504801894E1,-7.806851864E-1,-2.603276730E0,2.900080681E-1
1.506468560E1,-8.717040420E-1,-1.095662355E0,4.439459741E-1
1.508135227E1,-8.717040420E-1,-1.095662355E0,4.439459741E-1
1.509801893E1,-1.031750560E0,-7.071523666E-1,8.458949924E-1
1.511468560E1,-1.093447924E0,-8.604794145E-1,8.025236130E-1
1.513135227E1,-1.040913582E0,-1.310686707E0,5.618428588E-1
1.514801893E1,-1.197294950E0,-2.024787664E0,2.142608166E-1
1.516468560E1,-1.739742875E0,-2.481103659E0,-4.302015305E-1
1.518135226E1,-2.046396971E0,-2.150625706E0,-7.380773425E-1
1.519801893E1,-5.546652079E-1,1.082070589E0,-5.908589363E-1
1.521468560E1,3.093419313E0,2.680703640E0,5.215258002E-1
1.523135226E1,3.093419313E0,2.680703640E0,5.215258002E-1
1.524801893E1,3.218035698E0,-1.157970548E0,9.228639603E-1
1.526468559E1,3.821570158E0,-9.912044406E-1,1.839161158E0
1.528135226E1,4.671282768E0,-1.476002038E-1,2.801883936E0
1.529801893E1,4.671282768E0,-1.476002038E-1,2.801883936E0
1.531468559E1,4.458091259E0,-1.972253323E0,3.109148979E0
1.533135226E1,4.458091259E0,-1.972253323E0,3.109148979E0
1.534801892E1,1.560148597E0,-9.643264413E-1,2.150091410E0
1.536468559E1,6.475166976E-2,7.021127343E-1,2.167195559E0
1.538135226E1,-1.942549944E0,3.193219185E0,2.464686632E0
1.539801892E1,-3.390299559E0,3.123580694E0,2.971093655E0
1.541468559E1,-3.341430426E0,2.363664865E0,2.878242016E0
1.543135225E1,-2.236376047E0,1.829769135E0,2.700480461E0
1.544801892E1,-7.214313149E-1,-4.524217248E-1,2.336405039E0
1.546468559E1,-2.437350452E-1,-1.589241028E0,1.939342976E0
1.548135225E1,-1.374445707E-1,-1.633834243E0,1.137277484E0
1.549801892E1,-1.020144150E-1,-1.706527114E0,7.579304576E-1
1.551468558E1,-1.276707351E-1,-1.951483846E0,2.258672565E-1
1.553135225E1,-3.475820720E-1,-2.058385134E0,-8.872810751E-2
1.554801892E1,-4.831940532E-1,-1.828089237E0,-2.671006322E-1
1.556468558E1,-5.149590373E-1,-1.601458430E0,-3.275762498E-1
1.558135225E1,-6.621774435E-1,-1.548313141E0,-5.627591610E-1
1.559801891E1,-9.462295175E-1,-2.346102476E0,-1.027627230E0
1.561468558E1,-1.155145288E0,-3.456654787E0,-1.874285817E0
1.563135225E1,-8.136718869E-1,-3.602040529E0,-2.303723812E0
1.564801891E1,-2.590066791E-1,-2.327165842E0,-2.502254963E0
1.566468558E1,-7.794634700E-1,-2.490037531E-1,-2.301280260E0
1.566468558E1,-7.794634700E-1,-2.490037531E-1,-2.301280260E0
1.569801891E1,-1.020755053E0,1.381394386E0,-1.625663877E0
1.571468558E1,-8.478803039E-1,2.031354427E0,-9.628756046E-1
1.573135224E1,-8.478803039E-1,2.031354427E0,-9.628756046E-1
1.574801891E1,-2.471558809E0,1.917122722E0,-8.321505189E-1
1.576468557E1,-2.706741810E0,2.605567455E0,-8.278744817E-1
1.578135224E1,-7.635809779E-1,1.226845503E0,-1.022129536E0
1.579801891E1,-4.813614488E-1,-3.276449680E0,-1.237764716E0
1.581468557E1,-4.813614488E-1,-3.276449680E0,-1.237764716E0
1.583135224E1,-7.593049407E-1,4.079584122E0,8.903354406E-2
1.584801890E1,1.099556610E-1,1.191415429E0,6.394227147E-1
1.586468557E1,5.754346251E-1,-1.165911794E0,6.278162599E-1
1.588135224E1,5.754346251E-1,-1.165911794E0,6.278162599E-1
1.589801890E1,9.327905178E-1,-1.495167851E0,7.377719283E-1
1.591468557E1,7.269290686E-1,-2.011959553E0,2.820668221E-1
1.593135223E1,7.269290686E-1,-2.011959553E0,2.820668221E-1
1.594801890E1,-7.165443897E-1,-4.130972922E-2,1.450803876E-2
1.596468557E1,-3.982838392E-1,2.855029404E-1,1.989891976E-1
1.598135223E1,2.535088956E-1,-1.891390085E-1,1.434005052E-1
1.599801890E1,5.681042671E-1,-1.015562657E-2,-1.815795600E-1
1.601468556E1,4.098902643E-1,3.068831861E-1,-2.725984156E-1
1.603135223E1,-2.131918073E-1,-1.567631811E-1,-5.236638188E-1
1.604801890E1,-4.276053309E-1,-9.142354727E-1,-7.460185885E-1
1.606468556E1,-4.276053309E-1,-9.142354727E-1,-7.460185885E-1
1.608135223E1,-6.010909677E-1,-5.825359225E-1,-8.510873318E-1
1.609801889E1,-7.220421433E-1,1.957058012E-1,-8.993456960E-1
1.611468556E1,-5.711585879E-1,2.971093655E-1,-9.928079844E-1
1.613135223E1,-5.711585879E-1,2.971093655E-1,-9.928079844E-1
1.614801889E1,-1.076343775E0,2.151694775E0,-8.211549520E-1
1.616468556E1,-1.296865940E0,2.250044107E0,-3.165806830E-1
1.618135222E1,-7.360920310E-1,3.280572891E0,5.569559336E-1
1.619801889E1,-7.360920310E-1,3.280572891E0,5.569559336E-1
1.621468556E1,1.814268351E0,1.087568402E0,2.986365080E0
1.623135222E1,3.076314926E0,-3.333030939E-1,4.344317436E0
1.624801889E1,3.167333841E0,-8.409317136E-1,4.712058067E0
1.626468555E1,3.167333841E0,-8.409317136E-1,4.712058067E0
1.628135222E1,2.122755051E0,-8.500946760E-1,3.646099091E0
1.629801889E1,1.210123181E0,2.427423894E-1,2.804938316E0
1.631468555E1,-2.522871494E-1,1.962937593E0,2.220340729E0
1.633135222E1,-2.121533394E0,1.998978615E0,1.649182200E0
1.634801888E1,-2.367100954E0,1.629405499E0,9.118683934E-1
1.636468555E1,-1.761734009E0,4.705949426E-1,-1.209664941E0
1.638135222E1,-5.277871490E-1,-9.201150388E-2,-1.598174930E0
1.639801888E1,1.893680729E-2,-1.074892879E0,-1.264031887E0
1.641468555E1,1.698204130E-1,-1.430416226E0,-1.162017584E0
1.643135221E1,5.363392830E-1,-1.647884130E0,-1.133917689E0
1.644801888E1,5.363392830E-1,-1.647884130E0,-1.133917689E0
1.646468555E1,1.252272725E-1,-1.812206745E0,-1.253036380E0
1.648135221E1,-1.740964651E-1,-1.884899616E0,-1.316566348E0
1.649801888E1,-5.235111117E-1,-1.781052589E0,-1.673311353E0
1.651468554E1,-8.833104968E-1,-1.621006012E0,-2.136957645E0
1.653135221E1,-1.280372620E0,-9.514982700E-1,-2.325103998E0
1.654801888E1,-1.101389170E0,-3.174206018E-1,-2.309221506E0
1.656468554E1,-6.065887213E-1,-1.993022680E0,-2.017839193E0
1.658135221E1,-5.510000587E-1,-2.773707867E0,-1.492495418E0
1.659801887E1,-8.845322132E-1,-1.636888504E0,-1.273805737E0
1.661468554E1,-1.615126491E0,2.328234673E0,-6.421716213E-1
1.663135221E1,-2.513708591E0,4.406396866E0,1.696676910E-1
1.664801887E1,-2.513708591E0,4.406396866E0,1.696676910E-1
1.666468554E1,-2.133139849E0,2.953760386E0,1.027321815E0
1.668135220E1,-1.936441362E-1,1.314199209E0,3.956876695E-1
1.669801887E1,8.515455127E-1,-1.836641312E0,-3.025307953E-1
1.671468554E1,8.515455127E-1,-1.836641312E0,-3.025307953E-1
1.673135220E1,8.130609989E-1,-1.194011569E0,-6.653844714E-1
1.674801887E1,8.643736839E-1,7.228820920E-1,-4.485274553E-1
1.676468553E1,1.692706347E0,-8.284853399E-2,-3.831649423E-1
1.678135220E1,1.819155335E0,-9.759328365E-1,-6.055197120E-1
1.679801887E1,1.244331598E0,-1.302745461E0,-7.533490062E-1
1.681468553E1,-3.677406013E-1,-1.491502762E0,-6.226239204E-1
1.683135220E1,-7.935133576E-1,-1.379103541E0,-2.031125315E-2
1.684801886E1,-1.054963470E0,6.436987966E-2,7.925970852E-2
1.686468553E1,-1.092226267E0,7.803034186E-1,1.647807807E-1
1.688135220E1,-8.839213252E-1,1.429041743E0,4.769326746E-1
1.689801886E1,-3.738492429E-1,7.839685678E-1,5.844448805E-1
1.691468553E1,-1.759290546E-1,-9.750928730E-2,-7.483093534E-3
1.693135219E1,-3.506363928E-1,-3.601811528E-1,-4.540252388E-1
1.694801886E1,-7.476984859E-1,-1.567631811E-1,-8.895718455E-1
1.696468553E1,-6.566796303E-1,2.683987021E-1,-5.652026534E-1
1.698135219E1,-3.585776389E-1,5.826122686E-2,-1.919642538E-1
1.699801886E1,-4.129445851E-1,5.520690605E-2,-7.834340632E-2
1.701468552E1,-7.122683525E-1,2.063119411E0,9.621120058E-3
1.703135219E1,-2.321286201E-1,3.037448645E0,5.441278219E-1
1.704801886E1,1.386663020E-1,3.118083000E0,1.001054645E0
1.706468552E1,1.532659769E0,1.862755775E0,2.072511435E0
1.708135219E1,2.850905895E0,1.148654819E0,2.997360706E0
1.709801885E1,2.850905895E0,1.148654819E0,2.997360706E0
1.711468552E1,3.499033451E0,3.661370873E-1,4.104858398E0
1.713135219E1,2.706130981E0,-2.386190593E-1,3.845851898E0
1.714801885E1,1.494786143E0,2.771798894E-2,3.173289776E0
1.716468552E1,1.494786143E0,2.771798894E-2,3.173289776E0
1.718135218E1,-1.072678566E0,2.175518513E0,2.259436131E0
1.719801885E1,-2.562577724E0,6.544652581E-1,2.021198750E0
1.721468552E1,-2.561966896E0,1.107116103E0,1.045647740E0
1.723135218E1,-2.561966896E0,1.107116103E0,1.045647740E0
1.724801885E1,-2.290742993E-1,-1.506545246E-1,-9.024000168E-1
1.726468551E1,1.111773923E-1,-9.814306498E-1,-1.427132845E0
1.728135218E1,-2.565632015E-2,-9.716567993E-1,-1.804036379E0
1.729801885E1,-2.864955962E-1,-1.143920660E0,-2.214537621E0
1.731468551E1,-3.194822669E-1,-1.359555960E0,-2.463770390E0
1.733135218E1,-1.991419196E-1,-1.505552649E0,-3.082576275E0
1.734801884E1,5.986474827E-2,-7.828995585E-1,-3.753305912E0
1.736468551E1,-1.160643063E-2,-7.181479335E-1,-3.732536554E0
1.738135218E1,-3.591884971E-1,-1.438357472E0,-3.442375660E0
1.739801884E1,-1.207068801E0,-2.718119144E0,-2.523024321E0
1.741468551E1,-1.207068801E0,-2.718119144E0,-2.523024321E0
1.743135217E1,-2.289521217E0,-4.921279252E-1,-1.289077401E0
1.744801884E1,-2.864955902E0,6.788998246E-1,-1.063057423E0
1.746468551E1,-2.343277216E0,2.459570646E0,3.431532979E-1
1.748135217E1,-6.914989352E-1,1.396665931E0,8.666644096E-1
1.749801884E1,-6.914989352E-1,1.396665931E0,8.666644096E-1
1.751468550E1,6.658425927E-1,-6.085740402E-2,6.919570565E-1
1.753135217E1,1.312137604E0,-1.027856350E0,1.556178033E-1
1.754801884E1,1.783725142E0,-1.599625826E0,-1.950185746E-1
1.756468550E1,1.783725142E0,-1.599625826E0,-1.950185746E-1
1.758135217E1,2.006079912E0,-2.574565887E0,-1.174387559E-1
1.759801883E1,9.266818762E-1,-1.171409607E0,-2.897026241E-1
1.761468550E1,7.391464114E-1,-4.139372408E-1,-4.841103405E-2
1.763135217E1,8.484911919E-1,-4.304305911E-1,1.666133702E-1
1.764801883E1,1.047633052E0,-4.053851366E-1,4.378373325E-1
1.766468550E1,1.012202978E0,-2.587775886E-1,2.399171442E-1
1.768135216E1,1.012202978E0,-2.587775886E-1,2.399171442E-1
1.769801883E1,2.846629918E-1,-2.490037531E-1,-4.265363216E-1
1.771468550E1,-3.604102135E-1,-1.106657863E0,-6.317868829E-1
1.773135216E1,-9.535599351E-1,-1.185459495E0,-7.258600593E-1
1.774801883E1,-1.969428062E0,8.682679534E-1,-6.476693749E-1
1.776468549E1,-2.189339399E0,1.648342252E0,-4.692968726E-1
1.778135216E1,-1.976758480E0,2.810207129E0,4.627300799E-2
1.779801883E1,-1.976758480E0,2.810207129E0,4.627300799E-2
1.781468549E1,-1.913839340E0,6.019690514E0,9.564615488E-1
1.783135216E1,-1.493564367E0,4.302549839E0,1.639408350E0
1.784801882E1,1.420260668E0,2.531270981E-1,3.387092590E0
1.786468549E1,3.122129917E0,-1.892230034E0,4.003455162E0
1.788135216E1,3.326158762E0,-1.425529361E0,4.063930511E0
1.789801882E1,2.971857071E0,-8.720858097E-1,3.829969406E0
1.791468549E1,1.133154154E0,8.322269320E-1,2.935052633E0
1.793135215E1,-1.263879180E0,1.539608359E0,2.075565815E0
1.794801882E1,-1.263879180E0,1.539608359E0,2.075565815E0
1.796468549E1,-2.712239504E0,1.773798615E-1,1.726151109E0
1.798135215E1,-1.279150844E0,7.619774342E-1,1.817322709E-2
1.799801882E1,-3.182605505E-1,-1.818086356E-1,-1.542586327E0
1.801468548E1,-3.182605505E-1,-1.818086356E-1,-1.542586327E0
1.803135215E1,-2.431241870E-1,-1.098105788E0,-2.431394577E0
1.804801882E1,-5.271763206E-1,-1.600847483E0,-2.888321400E0
1.806468548E1,-5.949822664E-1,-1.330845237E0,-3.514457703E0
1.808135215E1,-2.571740746E-1,6.361393332E-1,-3.921904564E0
1.809801881E1,9.529490769E-2,1.077794552E0,-3.783238411E0
1.811468548E1,2.528980076E-1,-6.521745324E-1,-3.348302603E0
1.813135215E1,2.528980076E-1,-6.521745324E-1,-3.348302603E0
1.814801881E1,2.528980076E-1,-6.521745324E-1,-3.348302603E0
1.816468548E1,-1.709199667E0,-3.761476278E0,-3.453982115E0
1.818135214E1,-1.962097645E0,8.884264827E-1,-2.670853615E0
1.819801881E1,-6.976075768E-1,-8.213840723E-1,-8.969022036E-1
1.821468548E1,-4.398226440E-1,-1.017853469E-1,5.074759126E-1
1.823135214E1,-2.400698513E-1,1.593364477E0,3.065777540E0
1.824801881E1,-4.337140024E-1,1.465082765E0,3.644266605E0
1.826468547E1,-5.338957906E-1,-5.245037675E-1,2.674213171E0
1.828135214E1,-1.893680729E-2,-1.338786483E0,1.916130066E0
1.829801881E1,1.681099892E0,-1.607567072E0,5.636754632E-1
1.831468547E1,1.582139730E0,-3.858374655E-1,7.072287202E-1
1.833135214E1,9.285144806E-1,2.091448307E-1,7.451022863E-1
1.834801880E1,1.067791581E0,-5.268708803E-3,5.642863512E-1
1.836468547E1,1.285870314E0,2.696204484E-1,3.614792228E-1
1.838135214E1,2.443459183E-1,3.352044106E0,6.436987519E-1
1.839801880E1,2.443459183E-1,3.352044106E0,6.436987519E-1
1.841468547E1,-7.757982612E-1,3.654422283E0,2.103054762E0
1.843135213E1,-4.636463821E-1,3.111974239E0,2.990030289E0
1.844801880E1,1.370169759E0,1.178587198E0,3.393201113E0
1.846468547E1,1.370169759E0,1.178587198E0,3.393201113E0
1.848135213E1,2.929096699E0,8.636100590E-2,3.445124626E0
1.849801880E1,1.796553373E0,6.129264235E-1,3.013243198E0
1.851468546E1,-2.211330533E-1,1.049694777E0,2.377332926E0
1.853135213E1,-2.211330533E-1,1.049694777E0,2.377332926E0
1.854801880E1,-1.373224020E0,1.025871038E0,2.350302190E-1
1.856468546E1,-9.792162180E-1,2.176969349E-1,-9.921970963E-1
1.858135213E1,-1.881463528E-1,-5.147299170E-1,-1.970802546E0
1.859801879E1,-1.881463528E-1,-5.147299170E-1,-1.970802546E0
1.861468546E1,3.463603258E-1,-1.645440698E0,-3.100291491E0
1.863135213E1,4.123337269E-1,-2.868391991E0,-3.573100805E0
1.864801879E1,4.550942481E-1,-3.084027290E0,-3.587150812E0
1.866468546E1,-3.909534588E-2,-1.852523804E0,-3.516290426E0
1.868135212E1,-5.381718874E-1,-9.460004568E-1,-3.249342442E0
1.869801879E1,-1.244331598E0,-6.570614576E-1,-2.637255907E0
1.871468546E1,-1.390328288E0,-2.502483845E0,-2.722777128E0
1.873135212E1,-1.423314929E0,-4.094397545E0,-2.867552042E0
1.874801879E1,-1.830150843E0,-1.702861905E0,-2.973842382E0
1.876468545E1,-1.430034399E0,5.237401724E-1,-2.353203773E0
1.878135212E1,-1.430034399E0,5.237401724E-1,-2.353203773E0
1.879801879E1,-1.765399277E-1,2.672533505E-3,1.922238708E0
1.881468545E1,2.687804997E-1,2.893284559E0,4.486038208E0
1.883135212E1,4.159989059E-1,7.780890167E-2,3.315621376E0
1.884801878E1,7.037162185E-1,-1.502498269E0,4.732674956E-1
1.886468545E1,1.503949046E0,-1.603290915E0,-3.428478539E-1
1.888135212E1,2.392757416E0,-3.505523920E0,-2.041815519E-1
1.889801878E1,2.432463646E0,-3.107239962E0,-2.072358727E-1
1.891468545E1,2.432463646E0,-3.107239962E0,-2.072358727E-1
1.893135211E1,2.511265039E0,-1.892840862E0,-7.722858191E-1
1.894801878E1,1.921780586E0,-2.222096920E0,-1.128419995E0
1.896468545E1,6.847794056E-1,-2.260581493E0,-6.452259421E-1
1.898135211E1,6.847794056E-1,-2.260581493E0,-6.452259421E-1
1.899801878E1,-1.613293886E0,7.302125096E-1,5.862774849E-1
1.901468544E1,-1.665828228E0,3.185889006E0,9.534072280E-1
1.903135211E1,-5.571087003E-1,6.490667343E0,1.216689944E0
1.904801878E1,-5.571087003E-1,6.490667343E0,1.216689944E0
1.906468544E1,-3.543015569E-2,1.663613915E0,2.180634499E0
1.908135211E1,1.895513415E0,-1.747455001E0,2.850142241E0
1.909801877E1,2.926042318E0,-1.815871954E0,3.162905216E0
1.911468544E1,2.926042318E0,-1.815871954E0,3.162905216E0
1.913135211E1,5.393936038E-1,-4.218784869E-1,2.555094719E0
1.914801877E1,-1.375056624E0,1.204854369E0,1.611919403E0
1.916468544E1,-2.423911333E0,2.488281250E0,1.307097912E0
1.918135210E1,-2.423911333E0,2.488281250E0,1.307097912E0
1.919801877E1,-1.385441303E0,-1.512653977E-1,4.329504073E-1
1.921468544E1,-2.553414702E-1,-1.962479472E0,-1.383761406E0
1.923135210E1,7.330377586E-3,-2.599000454E0,-2.898095131E0
1.924801877E1,7.330377586E-3,-2.599000454E0,-2.898095131E0
1.926468543E1,9.529490769E-2,-2.342437267E0,-3.978104115E0
1.928135210E1,-3.909534514E-1,-7.334195375E-1,-4.023308277E0
1.929801877E1,-3.909534514E-1,-7.334195375E-1,-4.023308277E0
1.931468543E1,-6.090322137E-1,6.055960655E-1,-1.397200465E0
1.933135210E1,-3.182605505E-1,-1.572136879E0,-6.989820004E-1
1.934801876E1,5.962040424E-1,-6.189663887E0,9.010255337E-3
1.936468543E1,-4.459312931E-2,-6.937133074E-1,5.942187309E-1
1.938135210E1,-5.283980370E-1,5.083845615E0,1.289993644E0
1.939801876E1,1.906508923E0,-8.610902429E-1,1.808007002E0
1.941468543E1,2.929707527E0,-6.195772171E0,2.155589104E0
1.943135209E1,3.941910505E0,-6.192107201E0,1.266780853E0
1.944801876E1,4.270555496E0,-5.079111576E0,8.391754627E-1
1.946468543E1,3.537518024E0,-1.949651361E0,4.860956371E-1
1.948135209E1,1.736077666E0,-3.772853613E-1,-8.506292105E-2
1.949801876E1,1.549153090E0,-2.325943947E0,-2.029598206E-1
1.951468542E1,1.492953539E0,-3.352807760E0,-1.901316643E-1
1.953135209E1,9.627228975E-1,-4.201909542E0,1.409570426E-1
1.954801876E1,3.029889166E-1,-3.005836487E0,4.219548404E-1
1.956468542E1,-7.550288439E-1,-2.667188346E-1,4.549415410E-1
1.958135209E1,-1.487455726E0,6.214785576E-1,2.771798968E-1
1.959801875E1,-2.496604443E0,1.028543562E-1,-2.518289983E-1
1.961468542E1,-2.496604443E0,1.028543562E-1,-2.518289983E-1
1.963135209E1,-3.067762852E0,-1.939877510E0,-1.176678300E0
1.964801875E1,-3.023169756E0,-2.268522739E0,-1.265253663E0
1.966468542E1,-3.384190798E0,-3.242241144E0,-1.491273642E0
1.968135208E1,-3.384190798E0,-3.242241144E0,-1.491273642E0
1.969801875E1,5.381718874E-1,5.316585064E0,-5.041161776E-1
1.971468542E1,1.662773967E0,2.520657063E0,-9.605848789E-2
1.973135208E1,2.138026714E0,-4.511007309E0,-6.916516423E-1
1.974801875E1,2.138026714E0,-4.511007309E0,-6.916516423E-1
1.976468541E1,5.409207821E0,-4.279871285E-1,5.496255755E-1
1.978135208E1,5.947990417E0,-1.857410669E0,1.262504816E0
1.979801875E1,4.537503719E0,-2.799364328E0,2.611905098E0
1.981468541E1,3.629147768E0,-3.655796528E0,3.054782152E0
1.983135208E1,3.629147768E0,-3.655796528E0,3.054782152E0
1.984801874E1,3.851502419E0,-3.568443060E0,2.680932760E0
1.986468541E1,3.626093388E0,-1.170798659E0,2.936885118E0
1.988135208E1,1.823431373E0,7.475458086E-2,3.390757561E0
1.989801874E1,6.780598760E-1,-5.690969229E-1,3.355938435E0
1.991468541E1,-4.624246359E-1,-1.329623580E0,2.832427263E0
1.993135207E1,-1.080008984E0,-1.057177901E0,2.585637808E0
1.994801874E1,-2.507599831E0,-1.503720045E0,3.090823174E0
1.996468541E1,-2.416581154E0,-2.029063702E0,3.007745504E0
1.998135207E1,-1.680489063E0,-3.002782106E0,2.453080177E0
1.999801874E1,-6.713404059E-1,-4.064465046E0,2.209956169E0
2.001468540E1,1.850920320E-1,-4.885467529E0,2.325409412E0
2.003135207E1,4.050033391E-1,-4.964269161E0,2.348622322E0
2.004801874E1,3.488037884E-1,-4.412658215E0,2.166584730E0
2.006468540E1,6.902772188E-2,-3.881205797E0,1.801287532E0
2.008135207E1,-5.015199780E-1,-3.123733521E0,1.657123446E0
2.009801873E1,-7.849612236E-1,-2.843346357E0,1.578321815E0
2.011468540E1,-1.046411395E0,-2.534248829E0,1.111621141E0
2.013135207E1,-1.287092090E0,-2.366871834E0,1.293506175E-1
2.014801873E1,-1.699425817E0,-2.210490465E0,-8.718567491E-1
2.016468540E1,-1.858861566E0,-2.103589296E0,-1.232877851E0
2.018135206E1,-1.613904715E0,-1.285641313E0,-1.807090759E0
2.019801873E1,8.429934084E-2,-8.162680268E-2,-1.783267021E0
2.021468540E1,8.429934084E-2,-8.162680268E-2,-1.783267021E0
2.023135206E1,4.459312856E-1,-1.650938392E0,-7.478511930E-1
2.024801873E1,-1.374445707E-1,-2.533027172E0,4.598284662E-1
2.026468539E1,-5.839866996E-1,-1.974696755E0,8.758273721E-1
2.028135206E1,-3.103193045E-1,-1.865962863E0,6.791289449E-1
2.029801873E1,-8.185587823E-2,-1.754174590E0,6.400335431E-1
2.031468539E1,-1.153923512E0,-1.336343050E0,9.888373613E-1
2.033135206E1,-1.153923512E0,-1.336343050E0,9.888373613E-1
2.034801872E1,-1.153923512E0,-1.336343050E0,9.888373613E-1
2.036468539E1,7.275399566E-1,-1.942320943E0,1.257617831E0
2.038135206E1,2.080605507E0,-3.360138178E0,2.124282271E-1
2.039801872E1,3.268737316E0,-4.099895477E0,-2.328922004E-1
2.041468539E1,3.268737316E0,-4.099895477E0,-2.328922004E-1
2.043135205E1,3.402516842E0,-4.294150352E0,-2.764163166E-2
2.044801872E1,1.305418015E0,-3.498193502E0,2.796233594E-1
2.046468539E1,-3.280344009E-1,-1.259984970E0,2.753472924E-1
2.048135205E1,-9.156863093E-1,-5.226711631E-1,6.566796452E-3
2.049801872E1,-2.116035700E0,-1.098105788E0,-8.620828986E-1
2.051468538E1,-2.899164200E0,-1.785328627E0,-1.374598503E0
2.053135205E1,-3.285230875E0,-2.215988398E0,-1.417358994E0
2.054801872E1,-3.512472391E0,-2.155512810E0,-1.368489861E0
2.056468538E1,-3.461159945E0,3.022177219E0,-1.008690476E0
2.058135205E1,-3.461159945E0,3.022177219E0,-1.008690476E0
2.059801871E1,-1.040913582E0,-4.023308158E-1,-5.627591610E-1
2.061468538E1,-2.376264036E-1,-2.005239964E0,-5.969675779E-1
2.063135205E1,9.010255337E-1,-1.719355226E0,-6.635518670E-1
2.064801871E1,9.010255337E-1,-1.719355226E0,-6.635518670E-1
2.066468538E1,1.143538833E0,-2.539135933E0,1.757763475E-1
2.068135204E1,1.136819363E0,-2.553796530E0,1.098029464E-1
2.069801871E1,7.037162185E-1,-2.013181210E0,-1.369864196E-1
2.071468538E1,7.037162185E-1,-2.013181210E0,-1.369864196E-1
2.073135204E1,6.597339362E-2,-1.665599227E0,2.672533318E-2
2.074801871E1,2.993237413E-2,-1.717522740E0,-4.902189970E-2
2.076468537E1,-1.832594275E-1,-1.647884130E0,-2.127336562E-1
2.078135204E1,-5.112938285E-1,-1.128648996E0,-3.477347791E-1
2.079801871E1,-5.112938285E-1,-1.128648996E0,-3.477347791E-1
2.081468537E1,-6.426297426E-1,3.691914082E-1,-3.361283541E-1
2.083135204E1,-7.287616730E-1,3.648924351E0,5.543597788E-2
2.084801870E1,-1.722027779E0,6.218832493E0,1.194698811E0
2.086468537E1,-1.722027779E0,6.218832493E0,1.194698811E0
2.088135204E1,1.112384796E0,2.237215996E0,4.388910770E0
2.089801870E1,4.946172237E0,-2.349156857E0,4.392575741E0
2.091468537E1,6.414690971E0,-2.923980713E0,4.350426197E0
2.093135203E1,6.414690971E0,-2.923980713E0,4.350426197E0
2.094801870E1,4.241234303E0,-2.951469421E0,3.881892920E0
2.096468537E1,1.293200731E0,1.196302295E0,3.297906160E0
2.098135203E1,-1.213177443E0,3.601276875E0,2.877020359E0
2.099801870E1,-1.213177443E0,3.601276875E0,2.877020359E0
2.101468536E1,-5.356673241E0,2.501109600E0,1.877034783E0
2.103135203E1,-2.779434681E0,3.582340240E0,1.776852965E0
2.104801870E1,-4.715875983E-1,-5.318341255E-1,2.564104795E-1
2.106468536E1,-2.144135386E-1,-1.035797596E0,-4.705185890E-1
2.108135203E1,-3.463603258E-1,-1.464624643E0,-1.529147267E0
2.109801869E1,-6.597339511E-1,-2.001574755E0,-2.373973131E0
2.111468536E1,-1.147204041E0,-2.366871834E0,-3.047146320E0
2.113135203E1,-1.408654213E0,-2.406578064E0,-3.359298229E0
2.114801869E1,-1.378721833E0,-8.702532649E-1,-3.913352489E0
2.116468536E1,-1.025641918E0,1.121165991E0,-3.753305912E0
2.118135202E1,-7.061597109E-1,7.717512846E-1,-3.312261581E0
2.119801869E1,-6.365211010E-1,-1.995237023E-1,-3.237125158E0
2.121468536E1,-9.651663303E-1,-2.316781044E0,-2.885877848E0
2.123135202E1,-9.651663303E-1,-2.316781044E0,-2.885877848E0
2.124801869E1,-4.290103436E0,-1.573969483E0,-2.871828079E0
2.126468535E1,-3.825235367E0,1.991037369E0,-2.884045362E0
2.128135202E1,-9.217949510E-1,1.237230301E0,-1.640324593E0
2.129801869E1,-9.217949510E-1,1.237230301E0,-1.640324593E0
2.131468535E1,3.781253099E-1,-4.334849119E-1,1.928347349E0
2.133135202E1,2.015853822E-1,-8.445969224E-1,1.506850719E0
2.134801868E1,4.550942481E-1,-1.382157922E0,1.002276421E0
2.136468535E1,1.028696299E0,-9.140064567E-2,5.490147471E-1
2.138135202E1,9.523382187E-1,1.048473001E0,4.103484154E-1
2.139801868E1,1.295644164E0,4.482220486E-2,3.962985277E-1
2.141468535E1,1.842368126E0,-1.905058146E0,5.345067009E-3
2.143135201E1,1.811214089E0,-1.673540473E0,-3.436114267E-2
2.144801868E1,1.811214089E0,-1.673540473E0,-3.436114267E-2
2.146468535E1,4.202749729E-1,2.849913359E0,1.867871761E0
2.148135201E1,1.386663020E-1,4.488863468E0,2.831205606E0
2.149801868E1,-2.083048970E-1,5.587198257E0,2.800662279E0
2.151468534E1,-2.083048970E-1,5.587198257E0,2.800662279E0
2.153135201E1,-5.980366468E-1,2.092440844E0,3.177565813E0
2.154801868E1,1.463631988E0,-6.635518372E-2,3.424966097E0
2.156468534E1,2.692080975E0,-1.068784237E0,3.151909590E0
2.158135201E1,2.692080975E0,-1.068784237E0,3.151909590E0
2.159801867E1,2.999345958E-1,1.726532936E0,2.041357279E0
2.161468534E1,-2.363435745E0,1.279990792E0,9.668462276E-1
2.163135201E1,-3.498422623E0,9.660062790E-1,1.195767820E-1
2.164801867E1,-3.207040071E0,1.677052855E0,-7.637336850E-1
2.166468534E1,-1.839313865E0,-5.902481079E-2,-2.711781502E0
2.168135200E1,-3.903425932E-1,-1.588019371E0,-4.084394455E0
2.169801867E1,8.167262077E-1,-2.602054834E0,-4.711142063E0
2.171468534E1,1.113606453E0,-2.826242208E0,-4.672046661E0
2.173135200E1,1.058017850E0,-1.665599227E0,-3.769188404E0
2.174801867E1,1.185077652E-1,-3.901135325E-1,-2.226144075E0
2.176468533E1,-8.943060637E-1,-6.338485479E-1,-1.631772518E0
2.178135200E1,-8.710931540E-1,-1.004643440E0,-1.697745919E0
2.179801867E1,-9.321796298E-1,-1.303967237E0,-1.775325775E0
2.181468533E1,-9.321796298E-1,-1.303967237E0,-1.775325775E0
2.183135200E1,-2.700633287E0,-2.861061573E0,-2.011730433E0
2.184801866E1,-2.627940178E0,-2.927034855E0,-1.559079647E0
2.186468533E1,-2.177122116E0,1.873751402E0,1.110246703E-1
2.188135200E1,-3.921751976E-1,3.929922104E0,1.165988207E0
2.189801866E1,-1.320689678E0,1.872529626E0,1.077412724E0
2.191468533E1,-1.089782715E0,3.221548200E-1,8.336777091E-1
2.193135199E1,-3.579667509E-1,8.584941030E-1,3.895790279E-1
2.194801866E1,-1.215620935E-1,2.290971994E0,8.984293938E-1
2.196468533E1,-1.215620935E-1,2.290971994E0,8.984293938E-1
2.198135199E1,1.641393661E0,4.382191300E-1,1.364519238E0
2.199801866E1,1.910174131E0,2.445520878E0,1.880699992E0
2.201468532E1,1.822209597E0,2.185903311E0,2.890459538E0
2.203135199E1,1.822209597E0,2.185903311E0,2.890459538E0
2.204801866E1,1.936441302E0,1.465082765E0,3.899608135E0
2.206468532E1,2.097098827E0,1.616577268E0,4.219090462E0
2.208135199E1,1.809992313E0,1.660559535E0,4.138456345E0
2.209801865E1,1.809992313E0,1.660559535E0,4.138456345E0
2.211468532E1,4.923570156E-1,2.702313066E-1,3.817141294E0
2.213135199E1,-4.544833899E-1,-1.062675595E0,3.448179007E0
2.214801865E1,-1.667050004E0,-1.448742151E0,1.819002628E0
2.216468532E1,-2.660927057E0,-1.299080253E0,-6.543889046E-1
2.218135198E1,-2.499658585E0,-9.301179647E-1,-2.116188288E0
2.219801865E1,-1.500894785E0,-2.911534309E-1,-4.665327072E0
2.221468532E1,-1.500894785E0,-2.911534309E-1,-4.665327072E0
2.223135198E1,-3.481929302E-1,-1.511661291E0,-5.646375656E0
2.224801865E1,-3.139844835E-1,-2.138408422E0,-4.840645313E0
2.226468531E1,-1.125212908E0,-2.438953876E0,-4.209011078E0
2.228135198E1,-1.835037827E0,-3.396179199E0,-3.942063093E0
2.229801865E1,-2.530201912E0,-3.011334181E0,-3.844324827E0
2.231468531E1,-2.926653147E0,9.531781077E-1,-2.807687283E0
2.233135198E1,-5.210676789E-1,7.479275465E-1,-4.289797843E-1
2.234801864E1,-1.472184062E-1,3.512701511E0,2.034637928E0
2.236468531E1,-2.736674249E-1,1.818773508E0,2.263101339E0
2.238135198E1,5.839866996E-1,-1.225165725E0,1.268613458E0
2.239801864E1,5.839866996E-1,-1.225165725E0,1.268613458E0
2.241468531E1,1.626732945E0,-5.031235218E-1,1.660024971E-1
2.243135197E1,1.637117624E0,3.606393039E-1,5.416843295E-1
2.244801864E1,1.673769474E0,1.917122722E0,1.407279730E0
2.246468531E1,1.087950230E0,3.386252642E0,1.977216601E0
2.248135197E1,-2.388481349E-1,3.804084063E0,1.762803078E0
2.249801864E1,-5.241219997E-1,3.046000957E0,1.805563569E0
2.251468530E1,-1.374445707E-1,1.699043989E0,2.140317440E0
2.253135197E1,-1.374445707E-1,1.699043989E0,2.140317440E0
2.254801864E1,-1.374445707E-1,1.699043989E0,2.140317440E0
2.256468530E1,2.183841705E0,1.205694377E-1,3.197113514E0
2.258135197E1,1.508225083E0,1.306257963E0,4.523911953E0
2.259801863E1,-1.216231823E0,1.065577269E0,4.669297695E0
2.261468530E1,-1.216231823E0,1.065577269E0,4.669297695E0
2.263135197E1,-3.173442602E0,4.541015923E-1,9.697478265E-2
2.264801863E1,-1.652389288E0,7.033344507E-1,-2.563952208E0
2.266468530E1,5.314523727E-2,-9.466113448E-1,-4.325686455E0
2.268135196E1,5.314523727E-2,-9.466113448E-1,-4.325686455E0
2.269801863E1,1.241277218E0,-3.365025043E0,-5.057502270E0
2.271468530E1,8.399390578E-1,-2.714453936E0,-5.055669785E0
2.273135196E1,-2.938259542E-1,-1.245324254E0,-4.200459003E0
2.274801863E1,-2.938259542E-1,-1.245324254E0,-4.200459003E0
2.276468529E1,-6.872228980E-1,-2.506149054E0,-3.077078581E0
2.278135196E1,-1.331685185E0,-3.666181326E0,-3.022711754E0
2.279801863E1,-2.771493435E0,-1.982638001E0,-2.103971004E0
2.281468529E1,-2.481332779E0,-6.424006820E-1,-1.317177176E0
2.283135196E1,-7.495310903E-1,9.104176164E-1,5.038107038E-1
2.284801862E1,4.581485987E-1,3.188943148E0,2.425591230E0
2.286468529E1,4.581485987E-1,3.188943148E0,2.425591230E0
2.288135196E1,-9.834922850E-2,6.807324290E-1,2.198349714E0
2.289801862E1,-9.834922850E-2,6.807324290E-1,2.198349714E0
2.291468529E1,1.341459036E0,7.760273218E-1,5.826122761E-1
2.293135195E1,1.341459036E0,7.760273218E-1,5.826122761E-1
2.294801862E1,1.481347084E0,7.381537557E-1,8.330668211E-1
2.296468529E1,1.095280528E0,2.654436588E0,1.495855093E0
2.298135195E1,1.007926941E0,2.744844437E0,2.231336355E0
2.299801862E1,1.007926941E0,2.744844437E0,2.231336355E0
2.301468528E1,6.737838387E-1,1.745469809E0,2.812879562E0
2.303135195E1,1.438586593E0,3.930151165E-1,2.800662279E0
2.304801862E1,2.442848206E0,1.889862865E-1,2.490953922E0
2.306468528E1,2.442848206E0,1.889862865E-1,2.490953922E0
2.308135195E1,2.052505732E0,8.047379851E-1,2.690095663E0
2.309801861E1,7.214313149E-1,-5.281689763E-1,3.319897413E0
2.311468528E1,-7.501419783E-1,-1.490891814E0,3.214217663E0
2.313135195E1,-1.788612127E0,-5.464949012E-1,7.481566668E-1
2.314801861E1,-1.966984630E0,-5.825359225E-1,-8.278744817E-1
2.316468528E1,-1.335961223E0,-7.205913663E-1,-3.468642950E0
2.318135194E1,-1.335961223E0,-7.205913663E-1,-3.468642950E0
2.319801861E1,1.246164143E-1,-3.311268806E0,-4.621344566E0
2.321468528E1,2.119700760E-1,-3.952677011E0,-4.410596371E0
2.323135194E1,-9.169080257E-1,-5.245877743E0,-3.754527569E0
2.324801861E1,-9.169080257E-1,-5.245877743E0,-3.754527569E0
2.326468527E1,-2.884503603E0,5.740525246E0,-2.689790249E0
2.328135194E1,-2.918101072E0,2.873126030E0,-2.404516459E0
2.329801861E1,-3.237583488E-2,-1.533652425E0,-6.849321127E-1
2.331468527E1,-3.237583488E-2,-1.533652425E0,-6.849321127E-1
2.333135194E1,3.847226381E0,-3.672290087E0,1.360701323E-1
2.334801860E1,2.368933678E0,-3.801793337E0,2.423606068E-1
2.336468527E1,1.478903651E0,-2.262413979E0,-2.622137070E-1
2.338135194E1,9.065233469E-1,-1.281976104E0,-8.761327863E-1
2.339801860E1,8.087849617E-1,-1.259374142E0,-1.006857872E0
2.341468527E1,6.719512343E-1,-1.335121274E0,-1.249981999E0
2.343135193E1,9.651663303E-1,-2.102978468E0,-1.530369043E0
2.344801860E1,1.467297196E0,-3.457265615E0,-1.604283571E0
2.346468527E1,1.461799383E0,-3.862879753E0,-1.523649454E0
2.348135193E1,-7.574722916E-2,-1.379103541E0,-9.543235302E-1
2.349801860E1,-3.799578846E-1,1.046029568E0,-5.731438994E-1
2.351468526E1,-3.799578846E-1,1.046029568E0,-5.731438994E-1
2.353135193E1,2.388481349E-1,4.908527374E0,2.686277926E-1
2.354801860E1,9.535599351E-1,5.256109715E0,1.198364019E0
2.356468526E1,1.197905779E0,6.495783329E-1,2.440252066E0
2.358135193E1,2.365268469E0,-2.662530422E0,3.970468283E0
2.359801859E1,3.172220707E0,-3.278282166E0,4.825067997E0
2.361468526E1,4.004218578E0,-2.033950567E0,5.494575977E0
2.363135193E1,4.004218578E0,-2.033950567E0,5.494575977E0
2.364801859E1,1.345124245E0,-1.885281354E-1,3.605171204E0
2.366468526E1,4.764745235E-1,-6.650026441E-1,3.759720087E0
2.368135192E1,-1.252883673E0,-1.471344233E0,3.584401846E0
2.369801859E1,-1.252883673E0,-1.471344233E0,3.584401846E0
2.371468526E1,-2.507599831E0,-3.110905170E0,2.769508123E0
2.373135192E1,-2.513708591E0,-3.392513990E0,2.489121199E0
2.374801859E1,-2.265697479E0,-3.839056015E0,1.913075805E0
2.376468525E1,-1.856418014E0,-4.900128365E0,1.494633436E0
2.378135192E1,-1.856418014E0,-4.900128365E0,1.494633436E0
2.379801859E1,-3.011563420E-1,-5.238547325E0,2.386954129E-1
2.381468525E1,-2.907716334E-1,-4.372341156E0,-3.245218992E-1
2.383135192E1,-1.138651967E0,-4.873250008E0,-2.286161482E-1
2.384801858E1,-1.138651967E0,-4.873250008E0,-2.286161482E-1
2.386468525E1,1.681099892E0,-9.141362190E0,-1.133306861E0
2.388135192E1,1.681099892E0,-9.141362190E0,-1.133306861E0
2.389801858E1,-1.147204041E0,1.499902129E0,-1.092989802E0
2.391468525E1,-1.804494500E0,5.044139385E0,-7.533490062E-1
2.393135191E1,-1.632230639E0,6.312294960E0,-4.069886506E-1
2.394801858E1,3.500255048E-1,2.934823513E0,-1.053741761E-2
2.396468525E1,3.500255048E-1,2.934823513E0,-1.053741761E-2
2.398135191E1,1.981034517E0,-3.518962860E0,-1.172402263E0
2.399801858E1,-8.796452880E-1,-6.771817684E0,-1.833968759E0
2.401468524E1,-5.296197534E-1,-2.820744514E0,-1.762497663E0
2.403135191E1,-5.296197534E-1,-2.820744514E0,-1.762497663E0
2.404801858E1,1.842979074E0,-3.570886374E0,-1.191949844E0
2.406468524E1,2.345109940E0,-2.997284412E0,-3.911061883E-1
2.408135191E1,1.298087597E0,-1.044349670E0,-2.397644334E-2
2.409801857E1,1.298087597E0,-1.044349670E0,-2.397644334E-2
2.411468524E1,-1.191186309E-1,-2.952691317E0,1.634063199E-2
2.413135191E1,-6.157516837E-1,-4.605691433E0,2.832885385E-1
2.414801857E1,-1.285259485E0,-3.388237953E0,1.721111536E-1
2.416468524E1,-1.285259485E0,-3.388237953E0,1.721111536E-1
2.418135190E1,-1.402545571E0,-1.042517066E0,2.306014486E-2
2.419801857E1,-1.194851518E0,-1.033964992E0,2.729038298E-1
2.421468524E1,-8.900299668E-1,-1.165911794E0,3.981311321E-1
2.423135190E1,-6.524035931E-1,-1.726456583E-1,2.521344423E-1
2.424801857E1,-3.933969140E-1,7.607557178E-1,3.955349326E-2
2.426468523E1,-2.687804960E-2,2.344727993E0,-1.351538301E-1
2.428135190E1,-2.687804960E-2,2.344727993E0,-1.351538301E-1
2.429801857E1,1.331074357E0,9.397391081E-1,9.008728266E-1
2.431468523E1,2.243095398E0,6.911171675E-1,1.362686634E0
2.433135190E1,3.984670877E0,-1.987524867E0,1.918573499E0
2.434801856E1,3.984670877E0,-1.987524867E0,1.918573499E0
2.436468523E1,4.241845131E0,-5.268479824E0,4.482373238E0
2.438135190E1,3.907701969E0,-3.770028353E0,4.517192364E0
2.439801856E1,2.600451469E0,-8.946878314E-1,3.945422888E0
2.441468523E1,1.062293887E0,-8.299361467E-1,3.238652229E0
2.443135189E1,1.062293887E0,-8.299361467E-1,3.238652229E0
2.444801856E1,1.062293887E0,-8.299361467E-1,3.238652229E0
2.446468523E1,-2.372598886E0,-3.760636151E-1,2.374889612E0
2.448135189E1,-3.656636477E0,-2.894048214E0,2.792721033E0
2.449801856E1,-3.822180986E0,-3.583714485E0,2.696815252E0
2.451468522E1,-2.840521336E0,-1.421253324E0,2.129321814E0
2.453135189E1,-1.312748432E0,-2.049222231E0,1.234405041E0
2.454801856E1,-1.312748432E0,-2.049222231E0,1.234405041E0
2.456468522E1,-1.979201883E-1,-3.916024923E0,4.134027362E-1
2.458135189E1,-1.771507859E-1,-4.149375439E0,7.742711157E-2
2.459801855E1,-5.290089250E-1,-3.787132502E0,-1.864664704E-1
2.461468522E1,-6.597339511E-1,-3.123122454E0,-5.462658405E-1
2.463135189E1,-7.318159938E-1,-3.182376385E0,-8.144354820E-1
2.464801855E1,-9.205732346E-1,-4.688768864E0,-1.288466573E0
2.466468522E1,-9.205732346E-1,-4.688768864E0,-1.288466573E0
2.468135188E1,-2.767217457E-1,-5.990293026E-1,-1.390480995E0
2.469801855E1,-6.090322137E-1,-1.781434417E-1,-1.464395642E0
2.471468522E1,-4.905244112E-1,4.505127668E-3,-1.087491989E0
2.473135188E1,-2.797760665E-1,-1.307632446E0,-6.183478832E-1
2.474801855E1,-2.797760665E-1,-1.307632446E0,-6.183478832E-1
2.476468521E1,-2.369544506E0,8.646027446E-1,-4.302015305E-1
2.478135188E1,-7.318159938E-1,1.170035124E0,-1.699731201E-1
2.479801855E1,-1.954767294E-2,8.572723866E-1,1.452330947E-1
2.481468521E1,-1.954767294E-2,8.572723866E-1,1.452330947E-1
2.483135188E1,1.107497811E0,-1.713246584E0,3.724747896E-1
2.484801854E1,1.636506796E0,-2.321057081E0,-1.498145908E-1
2.486468521E1,1.653000116E0,-2.493931770E0,-7.741183639E-1
2.488135188E1,1.653000116E0,-2.493931770E0,-7.741183639E-1
2.489801854E1,9.865466356E-1,-2.492710114E0,-9.476040006E-1
2.491468521E1,6.102539301E-1,-2.406578064E0,-7.741183639E-1
2.493135187E1,1.404989064E-1,-2.151847601E0,-5.035052896E-1
2.494801854E1,-1.215620935E-1,-1.781663537E0,-1.229365394E-1
2.496468521E1,-2.144135386E-1,-1.454239964E0,-7.712167501E-2
2.498135187E1,-5.601630211E-1,-5.458840132E-1,-1.076649204E-1
2.499801854E1,-1.026252866E0,-5.047270283E-2,4.581485991E-4
2.501468520E1,-1.635285020E0,8.615484238E-1,-2.035706937E-1
2.503135187E1,-1.910785079E0,1.619631648E0,-3.630063832E-1
2.504801854E1,-2.150854826E0,3.312337875E0,-3.966039717E-1
2.506468520E1,-2.150854826E0,3.312337875E0,-3.966039717E-1
2.508135187E1,-2.864955902E0,2.113210440E0,2.820668221E-1
2.509801853E1,-1.613904715E0,4.709996700E0,1.561828494E0
2.511468520E1,1.589470148E0,2.781725526E-1,3.227656841E0
2.513135187E1,1.589470148E0,2.781725526E-1,3.227656841E0
2.514801853E1,3.710392714E0,-1.493335366E0,3.934427261E0
2.516468520E1,3.668853760E0,-2.190713882E-1,3.751778841E0
2.518135186E1,3.466657639E0,-4.127155244E-1,3.237430573E0
2.519801853E1,3.466657639E0,-4.127155244E-1,3.237430573E0
2.521468520E1,1.635895848E0,-3.687332571E-1,2.661385059E0
2.523135186E1,-5.137372613E-1,-3.638463318E-1,2.602131128E0
2.524801853E1,-2.745226383E0,2.922224402E-1,1.941786408E0
2.526468519E1,-4.106843948E0,-1.555414498E-1,5.502364635E-1
2.528135186E1,-4.454425812E0,-6.452259421E-2,-3.263545036E-1
2.529801853E1,-3.127016783E0,4.467712343E-1,-2.851669550E0
2.531468519E1,-1.130710721E0,-1.255098104E0,-4.377609730E0
2.533135186E1,2.015853859E-2,-2.201327562E0,-4.625620842E0
2.534801852E1,2.131918073E-1,-1.771278739E0,-4.359283924E0
2.536468519E1,-4.166097939E-1,-3.516290486E-1,-3.404502153E0
2.538135186E1,-4.166097939E-1,-3.516290486E-1,-3.404502153E0
2.539801852E1,-1.563202977E0,-4.176864147E0,-3.449095249E0
2.541468519E1,-1.781892538E0,-4.319806576E0,-3.554774761E0
2.543135185E1,-3.274846077E0,3.429242074E-1,-2.800356865E0
2.544801852E1,-3.274846077E0,3.429242074E-1,-2.800356865E0
2.546468519E1,-1.508836001E-1,2.358778000E0,1.512959361E0
2.548135185E1,-4.147771895E-1,1.680718064E0,2.186743259E0
2.549801852E1,-2.877173126E-1,-4.267654121E-1,2.128710985E0
2.551468518E1,-2.877173126E-1,-4.267654121E-1,2.128710985E0
2.553135185E1,1.549153090E0,-2.826013267E-1,7.237220407E-1
2.554801852E1,1.375667453E0,1.546938658E0,1.205694318E0
2.556468518E1,1.417206287E0,2.212781191E0,1.610086799E0
2.558135185E1,7.880155444E-1,1.829158187E0,1.671173334E0
2.559801851E1,-4.495964646E-1,3.805305719E0,1.875202179E0
2.561468518E1,-5.094612241E-1,4.148000717E0,2.002872944E0
2.563135185E1,-8.124501258E-2,3.157178164E0,2.357785225E0
2.564801851E1,1.791055560E0,2.763399482E-1,2.556927204E0
2.566468518E1,2.715293884E0,-1.017471671E0,2.581972599E0
2.568135184E1,3.498422623E0,-1.236772060E0,2.687041521E0
2.569801851E1,2.512486935E0,1.595807910E0,2.968650103E0
2.571468518E1,2.512486935E0,1.595807910E0,2.968650103E0
2.573135184E1,-3.775144219E-1,1.229289055E0,3.878227711E0
2.574801851E1,-2.103818417E0,-6.448441148E-1,2.280816317E0
2.576468517E1,-2.999956846E0,-8.213840723E-1,-2.947422490E-2
2.578135184E1,-1.241888046E0,1.260672212E-1,-2.771035433E0
2.579801851E1,-6.139190793E-1,-3.235292733E-1,-3.650680542E0
2.581468517E1,1.343902480E-2,-1.820758820E0,-4.532769203E0
2.583135184E1,2.419024557E-1,-2.912374258E0,-4.615847111E0
2.584801850E1,-1.808159798E-1,-3.357694626E0,-3.971995592E0
2.586468517E1,-9.669989347E-1,-2.324111462E0,-3.413054228E0
2.588135184E1,-2.018297195E0,-9.832631946E-1,-2.728274822E0
2.589801850E1,-2.018297195E0,-9.832631946E-1,-2.728274822E0
2.591468517E1,-3.091586590E0,-4.029416740E-1,-3.615861416E0
2.593135183E1,-3.044549942E0,1.981874466E0,-3.279885769E0
2.594801850E1,-3.044549942E0,1.981874466E0,-3.279885769E0
2.596468517E1,8.155044913E-1,1.089630052E-1,1.859319687E0
2.598135183E1,2.651153207E-1,-5.312232971E-1,1.891695499E0
2.599801850E1,8.289434910E-1,-8.684206605E-1,1.746309638E0
2.601468516E1,1.345124245E0,7.292198390E-2,1.184314132E0
2.603135183E1,1.345124245E0,7.292198390E-2,1.184314132E0
2.604801850E1,1.345124245E0,7.292198390E-2,1.184314132E0
2.606468516E1,9.376774430E-1,1.113224745E0,1.104290843E0
2.608135183E1,-1.777616441E-1,3.402135134E0,1.255785227E0
2.609801849E1,-6.719512492E-2,2.576856613E0,2.074344158E0
2.611468516E1,3.243691921E-1,2.436968565E0,2.645502567E0
2.613135183E1,7.446441650E-1,1.906738043E0,2.811657906E0
2.614801849E1,7.446441650E-1,1.906738043E0,2.811657906E0
2.614801849E1,1.466686368E0,9.036980867E-1,3.194059134E0
2.618135182E1,1.466686368E0,9.036980867E-1,3.194059134E0
2.619801849E1,4.593703151E-1,1.388724685E0,4.674795628E0
2.621468516E1,-6.133082509E-1,1.206686974E0,3.860512733E0
2.623135182E1,-9.419534802E-1,3.936260045E-1,1.861763120E0
2.624801849E1,-1.018922448E0,-1.335503161E-1,8.684970140E-1
2.626468515E1,-9.505056143E-1,-5.312232971E-1,-1.274416685E0
2.628135182E1,-9.700532556E-1,-1.555414498E-1,-3.485747099E0
2.629801849E1,-6.047561169E-1,-5.752055645E-1,-5.311622143E0
2.631468515E1,-2.614501119E-1,-9.698241949E-1,-5.835743904E0
2.633135182E1,4.691441655E-1,-1.637499452E0,-6.108189583E0
2.634801848E1,5.424479246E-1,-2.460945129E0,-5.773435593E0
2.636468515E1,-1.282205224E0,-4.158538342E0,-5.337889194E0
2.638135182E1,-2.117868185E0,-4.694266796E0,-4.990918159E0
2.639801848E1,-3.488037825E0,-1.756007195E0,-4.176635265E0
2.641468515E1,-2.640157461E0,8.208495378E-2,-3.119228363E0
2.643135181E1,-1.007315993E0,6.917279959E-1,-5.206094980E-1
2.644801848E1,-9.834922850E-2,3.649153411E-1,1.081688762E0
2.646468515E1,1.704312712E-1,1.216460824E0,3.721235514E0
2.648135181E1,2.926042378E-1,8.499419689E-1,3.683972836E0
2.648135181E1,2.926042378E-1,8.499419689E-1,3.683972836E0
2.651468514E1,1.376278400E0,-4.945713878E-1,1.575878382E0
2.653135181E1,1.759290576E0,-3.070359230E-1,7.127264738E-1
2.654801848E1,2.103818417E0,-2.679405510E-1,9.253074527E-1
2.656468514E1,2.077551126E0,-3.644571900E-1,1.308319688E0
2.658135181E1,1.478292823E0,4.773144722E-1,1.448818564E0
2.659801847E1,4.129445851E-1,2.477896690E0,1.771965981E0
2.661468514E1,2.590066791E-1,3.100978613E0,1.966831923E0
2.663135181E1,-1.007926911E-1,3.691684961E0,2.012646675E0
2.664801847E1,3.909534588E-2,2.196898937E0,2.083507061E0
2.666468514E1,6.304124594E-1,-5.996401310E-1,2.336405039E0
2.668135180E1,6.304124594E-1,-5.996401310E-1,2.336405039E0
2.669801847E1,1.263268352E0,1.734474182E0,4.172053814E0
2.671468514E1,6.218603253E-1,2.193844557E0,4.455494881E0
2.673135180E1,-3.463603258E-1,9.818887711E-1,2.742019176E0
2.674801847E1,-1.815490127E0,-1.846415162E0,2.808450758E-1
2.676468513E1,-1.815490127E0,-1.846415162E0,2.808450758E-1
2.678135180E1,-1.672547817E0,-6.778308153E-1,-3.843102932E0
2.679801847E1,-5.485565662E-1,-4.986183718E-2,-5.377595425E0
2.681468513E1,-5.485565662E-1,-4.986183718E-2,-5.377595425E0
2.683135180E1,3.756818473E-1,-2.952080488E0,-5.249924660E0
2.684801846E1,-5.815432668E-1,-2.956967354E0,-4.495506763E0
2.686468513E1,-5.815432668E-1,-2.956967354E0,-4.495506763E0
2.688135180E1,-1.793498993E0,-3.638463318E-1,-3.475973368E0
2.689801846E1,-1.726303816E0,1.488982886E-2,-3.270722628E0
2.691468513E1,-2.313344955E0,-1.095051527E0,-2.573725939E0
2.693135179E1,-9.816597104E-1,-2.209039778E-1,-2.597702444E-1
2.694801846E1,8.845322132E-1,1.025260210E0,2.245997190E0
2.696468513E1,9.107993841E-1,1.323362231E0,2.692539215E0
2.698135179E1,4.923570156E-1,-5.703186393E-1,1.768911719E0
2.699801846E1,1.301141977E0,-1.274034858E0,5.581777096E-1
2.701468512E1,1.301141977E0,-1.274034858E0,5.581777096E-1
2.703135179E1,2.232710838E0,5.337430909E-2,6.760746241E-1
2.704801846E1,2.367711782E0,-4.375318810E-2,8.061888218E-1
2.706468512E1,1.864970207E0,-3.363574147E-1,8.147408962E-1
2.708135179E1,1.864970207E0,-3.363574147E-1,8.147408962E-1
2.709801845E1,4.526508152E-1,3.280572891E0,1.545946002E0
2.711468512E1,7.568614483E-1,3.519421101E0,2.074344158E0
2.713135179E1,4.245510101E-1,2.441244841E0,2.271042585E0
2.714801845E1,4.245510101E-1,2.441244841E0,2.271042585E0
2.716468512E1,-1.893680729E-2,3.459785283E-1,2.382830858E0
2.718135178E1,5.748237371E-1,4.583776593E-1,2.248440504E0
2.719801845E1,1.242498994E0,1.039310098E0,2.369391680E0
2.721468512E1,1.242498994E0,1.039310098E0,2.369391680E0
2.723135178E1,4.581485689E-2,-1.237993836E0,3.627162457E0
2.724801845E1,-6.872228980E-1,-2.217820883E0,2.471406221E0
2.726468511E1,-1.274263978E0,-1.506774306E0,-8.730784655E-1
2.728135178E1,-9.437860847E-1,-1.379103541E0,-3.315315962E0
2.729801845E1,-7.550288439E-1,-1.496389627E0,-4.135707378E0
2.731468511E1,-4.050033391E-1,-2.755992889E0,-4.554149628E0
2.733135178E1,-2.254091054E-1,-3.519573689E0,-4.045299053E0
2.734801844E1,-4.758636653E-1,-3.766363144E0,-3.769188404E0
2.736468511E1,-1.777005672E0,-3.657018423E0,-3.507738352E0
2.738135178E1,-1.777005672E0,-3.657018423E0,-3.507738352E0
2.739801844E1,-2.756832838E0,2.174296856E0,-3.472308159E0
2.741468511E1,-2.379318237E0,-2.802418470E0,-3.033707142E0
2.743135177E1,1.014035583E0,-3.073031664E0,-2.701549530E-1
2.744801844E1,2.905883789E0,6.009382382E-2,1.184314132E0
2.746468511E1,1.593746185E0,-2.277074814E0,4.671588540E-1
2.748135177E1,1.045800447E0,-3.338757753E0,-2.078467458E-1
2.749801844E1,1.183855891E0,-3.190317631E0,-1.470504284E0
2.751468510E1,1.450192928E0,-1.105436206E0,-1.395367861E0
2.753135177E1,1.656665325E0,-7.859538794E-1,-1.561523080E0
2.754801844E1,1.944993496E0,-1.610621333E0,-1.681863427E0
2.756468510E1,2.274860382E0,-3.153665781E0,-1.924987674E0
2.758135177E1,1.091004491E0,-1.173853040E0,-1.849851251E0
2.759801843E1,1.091004491E0,-1.173853040E0,-1.849851251E0
2.761468510E1,1.065348148E0,4.516581595E-1,-7.875574231E-1
2.763135177E1,9.993748069E-1,2.467511892E0,-4.108065739E-2
2.764801843E1,9.639446139E-1,2.748509645E0,8.819360137E-1
2.766468510E1,9.639446139E-1,2.748509645E0,8.819360137E-1
2.768135176E1,1.930332661E0,7.302125096E-1,2.470795393E0
2.769801843E1,2.733009100E0,-5.770381689E-1,3.526369572E0
2.771468510E1,4.067748547E0,-2.537914038E0,5.228239059E0
2.773135176E1,4.067748547E0,-2.537914038E0,5.228239059E0
2.774801843E1,2.280358315E0,6.709585786E-1,7.093209267E0
2.776468509E1,3.744601011E-1,1.468366235E-1,4.426173687E0
2.778135176E1,3.744601011E-1,1.468366235E-1,4.426173687E0
2.779801843E1,3.744601011E-1,1.468366235E-1,4.426173687E0
2.781468509E1,-1.842368126E0,-3.489641428E0,2.396880627E0
2.783135176E1,-1.910174131E0,-3.883038282E0,2.282038212E0
2.784801842E1,-1.910174131E0,-3.883038282E0,2.282038212E0
2.786468509E1,-1.910174131E0,-3.883038282E0,2.282038212E0
2.788135176E1,-1.260214090E0,-4.832322121E0,1.896582365E0
2.789801842E1,-1.169806004E0,-5.126148224E0,1.391397238E0
2.791468509E1,-1.169806004E0,-5.126148224E0,1.391397238E0
2.793135175E1,-1.453247309E0,-5.079111576E0,5.209149122E-1
2.794801842E1,-1.795942426E0,-7.296550751E0,2.606865466E-1
2.796468509E1,4.691441655E-1,-1.048892975E1,-9.579886794E-1
2.798135175E1,2.484387159E0,-7.311822414E0,-1.467449903E0
2.799801842E1,1.714697480E0,-2.037004948E0,-9.610430002E-1
2.801468508E1,-9.217949510E-1,4.793074131E0,2.930623889E-1
2.803135175E1,-1.100167513E0,3.865781307E0,2.881754637E-1
2.804801842E1,9.285144508E-2,9.085850120E-1,-3.741546720E-2
2.806468508E1,7.648026943E-1,1.993709952E-1,-4.216494262E-1
2.808135175E1,2.021962404E0,-5.697077513E-1,-2.089921236E0
2.809801841E1,1.026863694E0,-3.671068192E0,-2.822958946E0
2.811468508E1,-1.488066554E0,-4.355847836E0,-2.075871229E0
2.813135175E1,-1.355508924E0,-2.553185701E0,-1.872453213E0
2.814801841E1,-1.649334840E-2,-2.351600409E0,-1.456454396E0
2.816468508E1,1.016479015E0,-2.847622633E0,-1.022129536E0
2.818135174E1,9.144645929E-1,-1.352836370E0,-4.405862093E-1
2.819801841E1,4.037816226E-1,-6.167443395E-1,-3.416261375E-1
2.821468508E1,-4.422661066E-1,-1.263650179E0,-3.978256881E-1
2.823135174E1,-4.422661066E-1,-1.263650179E0,-3.978256881E-1
2.824801841E1,-4.422661066E-1,-1.263650179E0,-3.978256881E-1
2.826468507E1,-1.660330415E0,-3.964283228E0,2.747364342E-1
2.828135174E1,-1.872300506E0,-2.012570381E0,1.336266696E-1
2.829801841E1,-1.259603143E0,-9.020181894E-1,8.292489499E-2
2.831468507E1,-1.259603143E0,-9.020181894E-1,8.292489499E-2
2.833135174E1,-1.254716277E0,-5.373319387E-1,4.201222658E-1
2.834801840E1,-1.254716277E0,-5.373319387E-1,4.201222658E-1
2.836468507E1,-4.477638900E-1,8.102357984E-1,-6.159043908E-1
2.838135174E1,4.306596816E-1,9.983821511E-1,-3.019199073E-1
2.839801840E1,1.012202978E0,1.033812284E0,1.634063199E-2
2.841468507E1,2.186285019E0,9.305761456E-1,7.548761368E-1
2.843135173E1,3.701229811E0,2.073122412E-1,1.520900607E0
2.844801840E1,4.458091259E0,-1.310075879E0,2.393215418E0
2.846468507E1,3.989557981E0,-2.032728910E0,3.076162338E0
2.848135173E1,4.295600891E0,-5.279475212E0,4.553844452E0
2.849801840E1,4.295600891E0,-5.279475212E0,4.553844452E0
2.851468506E1,4.662119865E0,-4.945942879E0,3.699855328E0
2.853135173E1,4.662119865E0,-4.945942879E0,3.699855328E0
2.853135173E1,2.016464710E0,6.501892209E-1,2.837314129E0
2.856468506E1,-1.774562240E0,1.600694776E0,2.169638872E0
2.858135173E1,-2.671922445E0,5.157989264E-1,2.202625751E0
2.859801839E1,-4.185034752E0,-7.554106712E-1,2.373667717E0
2.861468506E1,-2.802647591E0,5.322923064E-1,2.346789837E0
2.863135173E1,-1.128267288E0,-1.296025991E0,1.677281976E0
2.864801839E1,-8.057306409E-1,-2.237979412E0,1.238070250E0
2.866468506E1,-5.949822664E-1,-3.128009558E0,5.398517251E-1
2.868135172E1,-4.373791814E-1,-3.372355461E0,1.849393100E-1
2.869801839E1,-4.373791814E-1,-3.372355461E0,1.849393100E-1
2.871468506E1,-4.624246359E-1,-3.276449680E0,-2.725984156E-1
2.873135172E1,-7.195987105E-1,-3.001560450E0,-6.574432254E-1
2.874801839E1,-8.729257584E-1,-2.782870770E0,-1.146135092E0
2.876468505E1,-8.729257584E-1,-2.782870770E0,-1.146135092E0
2.878135172E1,-7.574722916E-2,-2.627711296E0,-1.735008717E0
2.879801839E1,4.813614488E-1,-3.328984022E0,-1.764941096E0
2.881468505E1,7.141009569E-1,-3.829893112E0,-1.576183796E0
2.883135172E1,7.141009569E-1,-3.829893112E0,-1.576183796E0
2.884801838E1,-5.216785073E-1,-2.909243479E-2,-2.237292230E-1
2.886468505E1,-1.472184062E0,1.970878839E0,8.648318052E-1
2.888135172E1,-1.099556565E0,-3.153589368E-2,8.562797308E-1
2.889801838E1,-1.099556565E0,-3.153589368E-2,8.562797308E-1
2.891468505E1,-5.864301920E-1,-1.586186767E0,-3.252854943E-2
2.893135171E1,-5.002982616E-1,-7.673988491E-2,2.183841541E-2
2.894801838E1,1.918115467E-1,1.737146676E-1,6.887500733E-2
2.896468505E1,1.258992314E0,-2.646037102E0,-2.200640440E-1
2.898135171E1,1.635895848E0,-3.144502878E0,-3.660607338E-1
2.899801838E1,1.658497930E0,-2.335107088E0,-1.693622619E-1
2.901468504E1,1.043967962E0,-1.209894061E0,-2.703076601E-2
2.903135171E1,1.043967962E0,-1.209894061E0,-2.703076601E-2
2.904801838E1,2.626718581E-1,-9.380592108E-1,-5.474875569E-1
2.906468504E1,-1.545487940E-1,-1.206228852E0,-7.625119686E-1
2.908135171E1,-5.045742989E-1,-1.126816392E0,-6.947059631E-1
2.909801837E1,-6.536253095E-1,-7.725148797E-1,-6.055197120E-1
2.911468504E1,-7.745765448E-1,3.655261993E-1,-3.733910918E-1
2.913135171E1,-7.660244107E-1,1.360014081E0,-5.329795182E-2
2.914801837E1,-7.660244107E-1,1.360014081E0,-5.329795182E-2
2.916468504E1,-1.030528903E0,7.595340014E-1,2.916879393E-2
2.918135170E1,-1.478292823E0,-1.109483168E-1,-7.101303339E-2
2.919801837E1,-1.294422507E0,2.274707705E-1,-5.635227636E-2
2.921468504E1,-1.294422507E0,2.274707705E-1,-5.635227636E-2
2.923135170E1,-9.908226728E-1,2.329685539E-1,-1.937968582E-1
2.924801837E1,-4.526508152E-1,-5.474875495E-2,2.183841541E-2
2.926468503E1,1.569922417E-1,6.227002740E-1,4.372264743E-1
2.928135170E1,4.367683232E-1,1.127274632E0,9.503529072E-1
2.929801837E1,4.697550237E-1,1.383226991E0,1.311373949E0
2.931468503E1,5.992583632E-1,2.269591808E0,2.132376194E0
2.933135170E1,9.059124589E-1,1.796171546E0,3.066388369E0
2.934801836E1,1.857028961E0,3.960694373E-1,3.864177942E0
2.936468503E1,2.491106510E0,-5.361102223E-1,3.971690178E0
2.938135170E1,3.112355947E0,-1.869017124E0,3.815919638E0
2.939801836E1,3.112355947E0,-1.869017124E0,3.815919638E0
2.941468503E1,-1.209512278E-1,5.915461779E-1,3.000415087E0
2.943135169E1,-1.120936871E0,8.426116109E-1,2.572198868E0
2.944801836E1,-2.765995741E0,1.391779065E0,1.844048023E0
2.946468503E1,-2.419024467E0,2.300134897E0,2.672533318E-2
2.948135169E1,-2.419024467E0,2.300134897E0,2.672533318E-2
2.949801836E1,-1.200960159E0,1.126281917E-1,-2.301280260E0
2.951468502E1,-7.690787315E-1,-9.105703235E-1,-3.147328138E0
2.953135169E1,-2.846629918E-1,-1.594128013E0,-3.874257088E0
2.954801836E1,-2.846629918E-1,-1.594128013E0,-3.874257088E0
2.956468502E1,3.976729810E-1,-1.961257696E0,-4.017810345E0
2.958135169E1,2.822195292E-1,-1.616729975E0,-3.326922417E0
2.959801835E1,-4.495964646E-1,-1.814650178E0,-2.330601931E0
2.961468502E1,-1.290146470E0,-3.430998325E0,-2.090532064E0
2.963135169E1,-1.418428063E0,-3.913581610E0,-2.081368923E0
2.964801835E1,-2.486219645E0,-8.397099972E-1,-1.849240422E0
2.966468502E1,-1.834426880E0,4.247801006E-1,-1.050229311E0
2.968135168E1,-1.073289394E0,4.760927260E-1,-4.045451880E-1
2.969801835E1,-1.291978955E0,2.528598309E0,1.304043531E0
2.971468502E1,-1.234557748E0,1.564653754E0,1.983936071E0
2.973135168E1,-1.234557748E0,1.564653754E0,1.983936071E0
2.974801835E1,2.718348205E-1,-9.991456866E-1,1.030376196E0
2.976468501E1,1.686597705E0,-2.406578064E0,5.111411214E-1
2.978135168E1,1.923613191E0,-2.850447893E-1,6.253728271E-1
2.979801835E1,1.923613191E0,-2.850447893E-1,6.253728271E-1
2.981468501E1,2.411694050E0,-1.029078126E0,-5.590940118E-1
2.983135168E1,2.060446978E0,-2.239201307E0,-1.395367861E0
2.984801834E1,6.267472506E-1,-1.877569199E0,-1.362381220E0
2.986468501E1,6.267472506E-1,-1.877569199E0,-1.362381220E0
2.988135168E1,-7.690787315E-1,9.715040922E-1,-2.397644334E-2
2.989801834E1,-1.201570988E0,4.569497585E0,6.730202436E-1
2.991468501E1,-7.238747478E-1,6.078944683E0,1.572824121E0
2.993135167E1,-1.208901405E0,4.177933216E0,2.393826246E0
2.994801834E1,-1.190575480E0,2.118097305E0,2.689484835E0
2.996468501E1,3.109301627E-1,4.198931754E-1,3.181231022E0
2.998135167E1,1.949269533E0,-1.030299783E0,3.464061499E0
2.999801834E1,1.777616501E0,-8.989638686E-1,4.043161392E0
3.001468500E1,1.287092090E0,-5.532144308E-1,4.216035843E0
3.003135167E1,2.028071135E-1,2.225838602E-1,3.805534840E0
3.004801834E1,-9.175189137E-1,3.972911835E-1,2.233779669E0
3.006468500E1,-1.677434683E0,-3.459021822E-2,-2.292270064E-1
3.008135167E1,-1.576031089E0,1.611155830E-2,-1.840077400E0
3.009801833E1,-4.282162189E-1,-1.720348001E-1,-4.728246212E0
3.011468500E1,7.263182402E-1,-1.943542600E0,-5.311622143E0
3.013135167E1,1.307250619E0,-3.434052706E0,-4.497950077E0
3.014801833E1,8.521563411E-1,-2.852509499E0,-3.763690710E0
3.016468500E1,-6.982184649E-1,-3.088684976E-1,-2.592051983E0
3.018135166E1,-6.982184649E-1,-3.088684976E-1,-2.592051983E0
3.019801833E1,-1.413541079E0,-1.588019371E0,-2.697120667E0
3.021468500E1,-1.666439176E0,-2.090150118E0,-2.727663994E0
3.023135166E1,-2.525925875E0,-2.657643557E0,-2.708727121E0
3.024801833E1,-2.911381483E0,-2.299066067E0,-2.417344570E0
3.026468499E1,-2.665203094E0,-1.363831997E0,-1.887114048E0
3.028135166E1,-1.187521100E0,3.508654535E-1,-1.298087649E-2
3.029801833E1,-3.225366175E-1,1.678885460E0,2.127489328E0
3.031468499E1,-1.350622058E0,1.549993038E0,1.914908409E0
3.033135166E1,-1.682932496E0,1.302592754E0,1.494022489E0
3.034801832E1,-9.291253090E-1,1.655061722E0,1.241735339E0
3.036468499E1,3.878991306E-1,1.433928728E0,9.839504361E-1
3.038135166E1,1.064737320E0,-2.972620726E-1,3.260490894E-1
3.039801832E1,1.224173069E0,-8.507055640E-1,1.562286615E-1
3.041468499E1,1.328630924E0,-8.529199660E-2,2.722929716E-1
3.043135165E1,1.719584346E0,1.386892080E0,6.876810193E-1
3.044801832E1,1.719584346E0,1.386892080E0,6.876810193E-1
3.046468499E1,1.000596523E0,3.881663799E0,1.385288596E0
3.048135165E1,-2.626718581E-2,3.672137260E0,1.972940564E0
3.049801832E1,-3.805687428E-1,3.193830252E0,3.051727772E0
3.051468498E1,3.506363928E-1,1.742415428E0,3.829969406E0
3.053135165E1,7.739656568E-1,9.061415195E-1,4.112799644E0
3.054801832E1,1.276096582E0,5.976548195E-1,4.617373943E0
3.056468498E1,6.071996093E-1,1.702709198E0,4.862330914E0
3.058135165E1,6.071996093E-1,1.702709198E0,4.862330914E0
3.059801831E1,-3.665188700E-2,1.104672551E0,2.359617949E0
3.061468498E1,-6.359102130E-1,-1.721187830E0,5.080868006E-1
3.063135165E1,-6.359102130E-1,-1.721187830E0,5.080868006E-1
3.064801831E1,-6.188060045E-1,-1.173853040E0,-3.347080946E0
3.066468498E1,-6.120865345E-1,-6.931024790E-1,-4.257269382E0
3.068135164E1,-6.346884966E-1,-9.893718958E-1,-5.432573318E0
3.069801831E1,-6.346884966E-1,-9.893718958E-1,-5.432573318E0
3.069801831E1,-8.912517428E-1,-1.052901864E0,-5.511985779E0
3.073135164E1,-1.361617565E0,-1.915442824E0,-3.789957762E0
3.074801831E1,-1.083063245E0,-3.861047268E0,-3.204749346E0
3.076468497E1,-3.365254164E0,-5.169443041E-2,-3.518733740E0
3.076468497E1,-1.083063245E0,-3.861047268E0,-3.204749346E0
3.079801831E1,-1.642615438E0,6.929497123E-1,-1.673922181E0
3.081468497E1,5.259546041E-1,1.834885031E-1,1.387121201E0
3.083135164E1,5.259546041E-1,1.834885031E-1,1.387121201E0
3.083135164E1,1.178358197E0,1.352301836E-1,2.862359524E0
3.086468497E1,1.399491191E0,-2.594113588E0,1.243567944E0
3.088135164E1,2.403752804E0,-2.842735529E0,-1.498145908E-1
3.089801830E1,1.547931314E0,6.972258091E-1,-1.730274558E-1
3.091468497E1,1.260824919E0,1.199967504E0,3.052796721E-1
3.093135163E1,7.367029190E-1,6.159807444E-1,1.089630008E0
3.094801830E1,-1.404989064E-1,2.532263517E0,1.286328554E0
3.096468497E1,5.864302069E-2,3.992230415E0,1.939342976E0
3.098135163E1,-8.124501258E-2,4.106462002E0,2.397491455E0
3.099801830E1,-1.142317131E-1,2.801655054E0,3.167792082E0
3.101468496E1,-1.142317131E-1,2.801655054E0,3.167792082E0
3.103135163E1,2.188117743E0,-4.579195082E-1,3.648542643E0
3.104801830E1,2.191171885E0,3.704131246E-1,3.757276535E0
3.106468496E1,1.571144223E0,1.983707070E0,3.944812059E0
3.108135163E1,-2.083048970E-1,1.036866546E0,3.781100273E0
3.109801829E1,-2.083048970E-1,1.036866546E0,3.781100273E0
3.111468496E1,-6.004800797E-1,-1.048014879E0,1.375514746E0
3.113135163E1,-1.067791581E0,-9.038507938E-1,-5.328267813E-1
3.114801829E1,-1.003650784E0,-3.326922357E-1,-2.906036377E0
3.116468496E1,-1.003650784E0,-3.326922357E-1,-2.906036377E0
3.118135162E1,-7.965676785E-1,-7.547997832E-1,-5.033678532E0
3.119801829E1,-1.527161989E-2,-1.274034858E0,-5.892554283E0
3.121468496E1,2.052505612E-1,-8.256601095E-1,-5.727621078E0
3.123135162E1,2.052505612E-1,-8.256601095E-1,-5.727621078E0
3.124801829E1,-1.636506796E0,-7.438042164E-1,-3.982990980E0
3.126468495E1,-1.827707410E0,-2.522642374E0,-3.144273758E0
3.128135162E1,-3.470322847E0,-1.688201189E0,-2.979340315E0
3.129801829E1,-3.470322847E0,-1.688201189E0,-2.979340315E0
3.131468495E1,-2.161850452E0,7.509818673E-1,-1.984852433E0
3.133135162E1,4.031707719E-2,4.644863009E-1,7.958040833E-1
3.134801828E1,1.517388105E0,1.718591690E0,3.323562622E0
3.136468495E1,1.332906961E0,3.404807448E-1,3.514763117E0
3.138135162E1,1.383608699E0,-3.544619322E0,2.472017050E0
3.139801828E1,1.383608699E0,-3.544619322E0,2.472017050E0
3.141468495E1,2.858236313E0,-1.156748772E0,1.849393100E-1
3.143135161E1,2.550971270E0,6.801216006E-1,7.096721530E-1
3.144801828E1,2.298684120E0,1.465693712E0,1.068249822E0
3.146468495E1,1.752571106E0,9.055306911E-1,8.061888218E-1
3.148135161E1,3.665188551E-1,1.109559536E0,6.534726024E-1
3.149801828E1,-1.282816082E-1,1.760741353E0,8.660535216E-1
3.151468494E1,-6.902772188E-1,3.461388826E0,1.457370639E0
3.153135161E1,-8.802561760E-1,4.239019871E0,2.043190002E0
3.154801828E1,-8.802561760E-1,4.239019871E0,2.043190002E0
3.156468494E1,-6.640099883E-1,2.599458694E0,2.630231142E0
3.158135161E1,2.785543501E-1,6.831759214E-1,2.997971535E0
3.159801827E1,7.415898442E-1,1.225012898E0,3.499491692E0
3.161468494E1,7.415898442E-1,1.225012898E0,3.499491692E0
3.163135161E1,2.956585586E-1,3.081049323E-1,2.046244383E0
3.164801827E1,-1.710421406E-2,-1.567631811E-1,-5.480984449E-1
3.166468494E1,1.240055487E-1,-1.384601355E0,-2.767981052E0
3.168135160E1,6.236929297E-1,-1.560530424E0,-4.248717308E0
3.169801827E1,8.894191384E-1,-1.837863088E0,-4.711142063E0
3.171468494E1,1.433699608E0,-3.780413151E0,-5.068497658E0
3.173135160E1,9.156863093E-1,-4.930060387E0,-4.730689526E0
3.174801827E1,-1.396436930E0,-2.627100229E0,-3.741699457E0
3.176468493E1,-2.461174250E0,-1.456683397E0,-3.218799353E0
3.178135160E1,-2.823416948E0,-1.320460558E0,-2.350149632E0
3.179801827E1,-2.572351694E0,6.453022957E-1,-2.359923363E0
3.181468493E1,-2.572351694E0,6.453022957E-1,-2.359923363E0
3.183135160E1,-1.626732945E0,5.255727768E-1,-1.634826899E0
3.184801826E1,6.670643687E-1,-4.566977918E-1,1.093906045E0
3.186468493E1,1.736077666E0,-1.630169034E0,2.200182199E0
3.188135160E1,8.448259830E-1,-1.556254387E0,9.723440409E-1
3.189801826E1,6.890554428E-1,-1.353447318E0,-9.728021920E-2
3.191468493E1,1.238222957E0,-1.842749953E0,-1.471115112E0
3.193135159E1,1.669493437E0,-2.049222231E0,-1.458897829E0
3.194801826E1,1.802662015E0,-1.936212301E0,-1.475391150E0
3.196468493E1,1.787390351E0,-2.467053652E0,-1.373987556E0
3.198135159E1,1.668271661E0,-3.127398491E0,-1.300683856E0
3.199801826E1,1.111163020E0,-2.109086990E0,-1.331837893E0
3.201468492E1,6.114756465E-1,-4.945713878E-1,-1.230434418E0
3.203135159E1,3.231474757E-1,2.066173792E0,-8.700241446E-1
3.204801826E1,8.124501705E-1,4.058814526E0,-2.353356630E-1
3.206468492E1,1.230281711E0,3.129078388E0,6.546943188E-1
3.208135159E1,1.447138667E0,1.185917616E0,1.165377259E0
3.209801825E1,2.357938051E0,-1.534874082E0,2.409097910E0
3.211468492E1,3.723831654E0,-2.986288786E0,4.672351837E0
3.213135159E1,4.331642151E0,-8.415426016E-1,7.354048252E0
3.214801825E1,3.799578905E0,8.523854613E-1,7.956972122E0
3.216468492E1,1.186299443E0,2.060065031E0,6.336347580E0
3.218135158E1,-8.924734592E-1,-6.595048904E-1,4.786583900E0
3.219801825E1,-8.924734592E-1,-6.595048904E-1,4.786583900E0
3.221468492E1,-3.112967014E0,-2.803640366E0,4.004676819E0
3.223135158E1,-3.535074472E0,-2.560516119E0,3.902662277E0
3.224801825E1,-2.635881424E0,-2.642371893E0,3.388925076E0
3.226468491E1,-9.834923148E-1,-4.471301079E0,2.416428328E0
3.228135158E1,-3.390299380E-1,-5.259316444E0,1.879478216E0
3.229801825E1,6.963858753E-2,-5.853077412E0,9.491311312E-1
3.231468491E1,6.963858753E-2,-5.853077412E0,9.491311312E-1
3.233135158E1,-9.004147053E-1,-3.669846535E0,-1.589775532E-1
3.234801824E1,-1.052520037E0,-2.831129074E0,-3.123046160E-1
3.236468491E1,-1.171638608E0,-9.349667549E0,-8.914044499E-1
3.238135158E1,-1.171638608E0,-9.349667549E0,-8.914044499E-1
3.239801824E1,1.979812741E0,-5.281689763E-1,-4.344775677E-1
3.241468491E1,9.883792400E-1,6.761280537E0,6.375901103E-1
3.243135157E1,6.438514590E-1,9.497954369E0,6.711876988E-1
3.244801824E1,1.639561057E0,5.436925411E0,-7.197514176E-1
3.246468491E1,1.639561057E0,5.436925411E0,-7.197514176E-1
3.248135157E1,1.314581037E0,-1.343673468E0,-1.863290310E0
3.249801824E1,7.874047160E-1,-5.531151295E0,-1.512653947E0
3.251468490E1,8.258891702E-1,-7.719269276E0,-1.695913315E0
3.253135157E1,9.407317638E-1,-8.610521317E0,-1.757610679E0
3.254801824E1,5.638281703E-1,-8.852423668E0,-1.452178240E0
3.256468490E1,-1.891237378E0,-2.912374258E0,-1.449276656E-1
3.258135157E1,-1.653610945E0,-1.146135032E-1,4.524980783E-1
3.259801823E1,-1.811214089E0,2.598465979E-1,6.400335431E-1
3.261468490E1,-2.957807302E0,-1.524871141E-1,8.257364631E-1
3.263135157E1,-2.957807302E0,-1.524871141E-1,8.257364631E-1
3.264801823E1,-2.783710718E0,-1.493335366E0,-2.915352285E-1
3.266468490E1,-1.814879298E0,-1.040073633E0,-6.323977709E-1
3.268135156E1,-7.391463965E-2,-1.601458430E0,-1.233488679E0
3.269801823E1,2.107483447E-1,-2.895269871E0,-1.858403325E0
3.271468490E1,2.364046723E-1,-3.677176952E0,-1.790597439E0
3.273135156E1,4.489856064E-1,-3.840888739E0,-1.629329085E0
3.274801823E1,6.603448391E-1,-3.165272236E0,-1.299462080E0
3.276468489E1,3.011563420E-1,-1.714468360E0,-8.480330110E-1
3.278135156E1,-3.323104382E-1,-7.725148797E-1,-5.090031028E-1
3.279801823E1,-7.415898442E-1,-3.803396821E-1,-4.039343297E-1
3.281468489E1,-1.444084287E0,5.182424188E-1,-3.294088244E-1
3.283135156E1,-1.444084287E0,5.182424188E-1,-3.294088244E-1
3.284801822E1,-9.211840630E-1,3.031950951E0,-2.273944169E-1
3.286468489E1,-5.174024701E-1,4.001393318E0,9.621120058E-3
3.288135156E1,6.139190793E-1,3.794310331E0,8.141300082E-1
3.289801822E1,3.616930246E0,2.635118067E-1,2.064570189E0
3.291468489E1,3.616930246E0,2.635118067E-1,2.064570189E0
3.293135155E1,5.243663311E0,-4.451753616E0,2.792721033E0
3.294801822E1,4.477027893E0,-4.454196930E0,3.801869631E0
3.296468489E1,4.723206520E0,-5.646605015E0,3.497658968E0
3.298135155E1,4.723206520E0,-5.646605015E0,3.497658968E0
3.299801822E1,4.543612003E0,-4.791394234E0,2.478125811E0
3.301468488E1,1.872300506E0,-1.653381824E0,3.185507059E0
3.303135155E1,-5.259546041E-1,4.534907341E-1,3.683972836E0
3.304801822E1,-9.975422025E-1,1.609857798E0,3.011410713E0
3.306468488E1,-1.247996688E0,1.721035123E0,2.743851900E0
3.308135155E1,-3.539961338E0,-5.291616172E-2,2.974147797E0
3.309801821E1,-3.539961338E0,-5.291616172E-2,2.974147797E0
3.311468488E1,-1.924834967E0,-1.745011568E0,3.021184444E0
3.313135155E1,2.223547846E-1,-3.820119143E0,2.201403856E0
3.314801821E1,9.211840630E-1,-5.035129070E0,1.826332927E0
3.316468488E1,9.211840630E-1,-5.035129070E0,1.826332927E0
3.318135154E1,5.076286197E-1,-3.795684576E0,1.883143425E0
3.319801821E1,-1.551596522E-1,-2.383976221E0,1.705992579E0
3.321468488E1,-7.916807532E-1,-1.553810954E0,1.660177708E0
3.323135154E1,-1.004872561E0,-1.616119146E0,1.369406104E0
3.324801821E1,-1.124602079E0,-1.802432895E0,1.034041405E0
3.326468487E1,-1.829540014E0,-1.806098104E0,3.527744114E-2
3.328135154E1,-2.652374983E0,-1.889786601E0,-1.290910006E0
3.329801821E1,-2.291964769E0,-1.291749954E0,-2.489426613E0
3.331468487E1,-9.859357476E-1,-1.082223296E0,-2.547458887E0
3.333135154E1,9.419534802E-1,-1.598404050E0,-2.283565283E0
3.334801820E1,6.566796303E-1,-1.712635756E0,-2.271958828E0
3.336468487E1,-2.871064544E-1,-2.626489401E0,-1.683696032E0
3.338135154E1,-4.789179862E-1,-2.142073631E0,-9.133955836E-1
3.339801820E1,-6.719512343E-1,-3.021489978E-1,3.755291104E-1
3.341468487E1,-1.492953539E0,5.689441562E-1,4.897608459E-1
3.343135153E1,-2.248593330E0,3.032561779E0,1.144607902E0
3.344801820E1,-2.006079912E0,2.911610603E0,1.399338484E0
3.346468487E1,-1.659719586E0,1.396665931E0,1.347414970E0
3.348135153E1,-3.750709891E-1,-2.160170525E-1,9.430224895E-1
3.349801820E1,1.290757298E0,-3.343033791E0,2.893971801E-1
3.351468486E1,2.023795128E0,-4.371730328E0,-1.522580534E-1
3.353135153E1,2.023795128E0,-4.371730328E0,-1.522580534E-1
3.354801820E1,2.748280525E0,-5.506105900E0,-4.082103968E-1
3.356468486E1,1.350622058E0,-1.673540473E0,7.964149714E-1
3.358135153E1,1.014035583E0,-6.167443395E-1,8.709404469E-1
3.359801819E1,7.226530313E-1,-2.306778133E-1,1.623373181E-1
3.361468486E1,-5.864302069E-2,-1.336343050E0,-4.210385382E-1
3.363135153E1,-5.864302069E-2,-1.336343050E0,-4.210385382E-1
3.364801819E1,-9.889900684E-1,-1.884288788E0,-5.236638188E-1
3.366468486E1,-1.389717340E0,-6.149117351E-1,-6.354520917E-1
3.368135152E1,-1.389717340E0,-6.149117351E-1,-6.354520917E-1
3.369801819E1,-1.396436930E0,1.589699268E0,-5.352702737E-1
3.371468486E1,-1.706756234E0,1.666668177E0,-3.416261375E-1
3.373135152E1,-1.888793945E0,2.891681194E-1,-1.803578287E-1
3.374801819E1,-1.888793945E0,2.891681194E-1,-1.803578287E-1
3.376468485E1,-1.628565550E0,2.045404434E0,-1.809686869E-1
3.378135152E1,-1.215010047E0,1.020373225E0,-3.593412042E-1
3.379801819E1,-3.891208768E-1,8.560506105E-1,-4.448622763E-1
3.381468485E1,4.489856064E-1,6.159807444E-1,-1.650862098E-1
3.383135152E1,6.517927051E-1,1.214017391E0,2.612974048E-1
3.384801818E1,1.014035583E0,1.574427605E0,1.690721035E0
3.386468485E1,1.666439176E0,6.062069535E-1,2.925889492E0
3.388135152E1,3.079369307E0,-5.703186393E-1,3.307069302E0
3.389801818E1,3.550956964E0,-1.394986033E0,3.283856392E0
3.391468485E1,3.830122232E0,-2.346713305E0,3.009577990E0
3.393135151E1,3.830122232E0,-2.346713305E0,3.009577990E0
