"Time (s)","Acceleration x (m/s^2)","Acceleration y (m/s^2)","Acceleration z (m/s^2)"
2.929317900E-2,1.921436548E0,4.917250633E0,8.870193481E0
4.595984500E-2,1.926222205E0,4.764110088E0,9.384650230E0
6.262651100E-2,1.926222205E0,4.764110088E0,9.384650230E0
7.929317700E-2,1.804188251E0,4.766502857E0,8.812766075E0
9.595984300E-2,1.844866276E0,4.802394867E0,8.614161491E0
1.126265090E-1,1.823330879E0,4.900500774E0,8.604590416E0
1.292931750E-1,1.773081541E0,4.886143684E0,8.702695847E0
1.459598410E-1,1.665404558E0,4.828716278E0,8.800801277E0
1.626265070E-1,1.665404558E0,4.759324074E0,8.626125336E0
1.792931730E-1,1.598405480E0,4.706682205E0,8.717052460E0
1.959598390E-1,1.560120344E0,4.646861553E0,8.719446182E0
2.126265050E-1,1.524227977E0,4.670789719E0,8.659625053E0
2.292931710E-1,1.490728498E0,4.768895626E0,8.542376518E0
2.459598370E-1,1.500299811E0,4.792823792E0,8.575876236E0
2.626265030E-1,1.596012712E0,4.862215519E0,8.714659691E0
2.792931690E-1,1.521835208E0,4.919643402E0,8.731410027E0
2.959598350E-1,1.471585870E0,4.878965378E0,8.750552177E0
3.126265010E-1,1.562513232E0,4.950749874E0,8.752944946E0
3.292931670E-1,1.653440475E0,4.965106964E0,8.657232285E0
3.459598330E-1,1.588834286E0,4.931607246E0,8.681160927E0
3.626264990E-1,1.378265858E0,4.926821709E0,8.965906143E0
3.792931650E-1,1.158126116E0,4.840680122E0,9.123832703E0
3.959598310E-1,1.105484009E0,4.797609329E0,9.073583603E0
4.126264970E-1,1.179661512E0,4.840680122E0,8.963513374E0
4.292931630E-1,1.277767301E0,4.957928658E0,8.807980537E0
4.459598290E-1,1.280160069E0,5.039284706E0,8.736195564E0
4.626264950E-1,1.249053478E0,4.957928658E0,8.671588898E0
4.792931610E-1,1.217946768E0,5.065605640E0,8.587840080E0
4.959598270E-1,1.416550994E0,5.273781300E0,8.307880402E0
5.126264930E-1,1.586441398E0,5.441278458E0,8.027919769E0
5.292931590E-1,1.732403636E0,5.575276852E0,7.917850018E0
5.459598250E-1,1.849651933E0,5.627918720E0,7.922635555E0
5.626264910E-1,1.835294962E0,5.608776093E0,7.874779224E0
5.792931570E-1,1.844866276E0,5.532206059E0,7.956135273E0
5.959598230E-1,1.825723648E0,5.455635548E0,7.862815380E0
6.126264890E-1,1.777867198E0,5.465207100E0,7.767102242E0
6.292931550E-1,1.768295884E0,5.556134224E0,7.575676441E0
6.459598210E-1,1.663011789E0,5.618347645E0,7.367500782E0
6.626264870E-1,1.469193101E0,5.582455158E0,7.310073376E0
6.792931530E-1,1.430907965E0,5.481956482E0,7.463213921E0
6.959598190E-1,1.569691658E0,5.513063431E0,7.709674358E0
7.126264850E-1,1.533799291E0,5.620740414E0,7.654639721E0
7.292931510E-1,1.442872047E0,5.699703693E0,7.692924976E0
7.459598170E-1,1.473978758E0,5.694917679E0,7.834101200E0
7.626264830E-1,1.478764415E0,5.759523869E0,7.762316704E0
7.792931490E-1,1.591227055E0,5.862415314E0,7.745566845E0
7.959598150E-1,1.586441398E0,5.895915031E0,7.716853142E0
8.126264810E-1,1.174875975E0,5.778666496E0,7.367500782E0
8.292931470E-1,9.547362328E-1,5.460421085E0,7.429714203E0
8.459598130E-1,1.507478237E0,5.434100151E0,7.896314621E0
8.626264790E-1,1.406979680E0,5.525027275E0,8.090133667E0
8.792931450E-1,1.378265858E0,5.357530117E0,8.231309891E0
8.959598110E-1,1.411765337E0,5.158925533E0,8.394021988E0
9.126264770E-1,1.380658627E0,5.194818020E0,8.305487633E0
9.292931430E-1,1.328016520E0,5.280959606E0,7.999206066E0
9.459598090E-1,1.311266780E0,5.213960648E0,7.668996811E0
9.626264750E-1,1.237089276E0,5.134997368E0,7.515855789E0
9.792931410E-1,1.170090318E0,5.051248550E0,7.747959614E0
9.959598070E-1,1.028913736E0,5.063212872E0,8.252845764E0
1.012626473E0,8.446664214E-1,5.099104881E0,8.470592499E0
1.029293139E0,8.757730722E-1,5.410171986E0,8.688339233E0
1.045959805E0,1.170090318E0,5.749952793E0,9.231510162E0
1.062626471E0,1.395015597E0,5.974878311E0,9.399007797E0
1.079293137E0,1.359123230E0,6.022734642E0,9.310472488E0
1.095959803E0,1.301695466E0,5.843272686E0,9.176474571E0
1.112626469E0,1.440479279E0,5.611168861E0,9.123832703E0
1.129293135E0,5.343173027E0,5.730810165E0,3.026920557E0
1.145959801E0,3.230310678E0,6.429514408E0,5.637490273E0
1.162626467E0,1.414158225E0,5.082355499E0,8.204988480E0
1.179293133E0,1.909472466E0,4.654039860E0,8.815158844E0
1.195959799E0,1.004985496E-1,3.409772158E0,8.202595711E0
1.212626465E0,2.560320199E-1,3.199203968E0,1.030588722E1
1.229293131E0,5.144568682E-1,3.699303865E0,1.010249710E1
1.245959797E0,1.167697430E0,4.910071850E0,9.401400566E0
1.262626463E0,8.087740541E-1,5.391029358E0,8.846264839E0
1.279293129E0,-1.435693540E-2,5.036891460E0,9.736394882E0
1.295959795E0,-7.896314561E-2,5.077569485E0,9.083154678E0
1.312626461E0,8.422735929E-1,5.228317261E0,6.994220734E0
1.329293127E0,2.902493954E0,6.168696880E0,7.030112743E0
1.345959793E0,2.419143677E0,5.888736725E0,9.080761909E0
1.362626459E0,7.728816867E-1,4.840680122E0,8.858229637E0
1.379293125E0,6.723831892E-1,4.216153622E0,9.188439369E0
1.395959791E0,4.857429862E-1,4.264009953E0,8.760123253E0
1.412626457E0,2.201396823E-1,4.366901398E0,8.752944946E0
1.429293123E0,9.571290575E-3,4.103690624E0,8.803194046E0
1.445959789E0,-3.541377485E-1,3.672982693E0,9.123832703E0
1.462626455E0,-2.177468538E-1,3.708875179E0,9.238688469E0
1.479293121E0,-1.722832322E-1,4.053441525E0,9.040083885E0
1.495959787E0,9.571290575E-3,4.029513359E0,9.099904060E0
1.512626453E0,3.158525825E-1,3.988835335E0,8.975478172E0
1.529293119E0,5.168496966E-1,4.357329845E0,9.241081238E0
1.545959785E0,7.848458290E-1,4.529613495E0,9.348757744E0
1.562626451E0,1.024128079E0,4.649254322E0,9.166903496E0
1.579293117E0,4.905286431E-1,4.515256405E0,9.068798065E0
1.595959783E0,3.972085714E-1,4.235296249E0,9.176474571E0
1.612626449E0,2.823530734E-1,4.352544308E0,8.989834785E0
1.629293115E0,1.483550072E-1,4.455435753E0,8.731410027E0
1.645959781E0,1.435693651E-1,4.326223373E0,8.563912392E0
1.662626447E0,3.708875179E-1,4.278367043E0,8.757730484E0
1.679293113E0,4.666004181E-1,4.024727821E0,8.489734650E0
1.695959779E0,5.288137794E-1,4.855037212E0,8.126026154E0
1.712626445E0,5.048855543E-1,4.362115860E0,8.752944946E0
1.729293111E0,4.881358147E-1,4.520041943E0,8.922835350E0
1.745959777E0,4.905286431E-1,4.563112736E0,9.090332985E0
1.762626443E0,5.312066078E-1,4.551148891E0,9.437292099E0
1.779293109E0,5.551348329E-1,4.668396950E0,9.614361763E0
1.795959775E0,5.575276613E-1,4.754538536E0,9.659825325E0
1.812626441E0,4.642075896E-1,4.386044025E0,9.846465111E0
1.829293107E0,4.354937077E-1,4.342973232E0,9.580862045E0
1.845959773E0,4.402793646E-1,4.977071285E0,9.248259544E0
1.862626439E0,6.652047038E-1,5.039284706E0,8.949156761E0
1.879293105E0,3.852444589E-1,5.352744102E0,8.685946465E0
1.895959771E0,8.087740541E-1,5.706882000E0,8.147561073E0
1.912626437E0,8.111668825E-1,5.893522263E0,7.838887215E0
1.929293103E0,1.117448211E0,5.826523304E0,7.513463020E0
1.945959769E0,1.103091240E0,5.319244862E0,7.738388538E0
1.962626435E0,3.852444589E-1,5.278566837E0,7.152146816E0
1.979293101E0,1.196411327E-1,5.161318302E0,6.970292568E0
1.995959767E0,5.312066078E-1,5.527420521E0,5.106283665E0
2.012626433E0,1.560120344E0,5.848058701E0,5.697310925E0
2.029293099E0,1.816152334E0,6.946363926E0,7.281359196E0
2.045959765E0,2.043470621E0,7.252645493E0,7.786244869E0
2.062626431E0,2.321038008E0,7.343572617E0,7.590033531E0
2.079293097E0,2.505285263E0,7.477570534E0,7.750352383E0
2.095959763E0,2.720639229E0,7.405786037E0,7.487142086E0
2.112626429E0,2.603390932E0,7.077969551E0,7.049255371E0
2.129293095E0,2.014756680E0,6.623332977E0,6.943971157E0
2.145959761E0,1.438086390E0,6.786045074E0,5.998806477E0
2.162626427E0,1.234696507E0,7.427321434E0,4.800002098E0
2.179293093E0,1.115055323E0,7.223931789E0,4.733003139E0
2.195959759E0,2.177468538E-1,5.974878311E0,6.051448345E0
2.212626425E0,-4.498506486E-1,5.931807518E0,5.431707382E0
2.229293091E0,-2.177468538E-1,6.305087566E0,-4.929214716E-1
2.245959757E0,1.548156261E0,5.991627693E0,1.052842021E0
2.262626423E0,-4.426721931E-1,4.814359188E0,3.201596737E0
2.279293089E0,2.392822690E-2,4.957928658E0,4.015156269E0
2.295959755E0,5.886343718E-1,4.287938118E0,4.476971149E0
2.312626421E0,-7.178467698E-3,4.146761417E0,6.147161484E0
2.329293087E0,-4.689932466E-1,4.084548473E0,8.305487633E0
2.345959753E0,1.459621787E-1,4.448257446E0,8.171489716E0
2.362626419E0,1.426122308E0,4.926821709E0,7.216753006E0
2.379293085E0,1.753939033E0,4.560719967E0,9.245866776E0
2.395959751E0,1.210768223E0,3.711267948E0,1.037767220E1
2.412626417E0,5.024927258E-1,3.352344513E0,1.083470058E1
2.429293083E0,1.962114573E-1,3.122633457E0,1.056431198E1
2.445959749E0,7.178468108E-1,2.947957516E0,1.016471100E1
2.462626415E0,1.002592683E0,3.273381472E0,9.568898201E0
2.479293081E0,1.368694544E0,2.780459881E0,9.908679008E0
2.495959747E0,1.885544300E0,2.510071039E0,1.051406288E1
2.512626413E0,1.785045743E0,1.607976794E0,1.123908806E1
2.529293079E0,1.282552958E0,4.426721931E-1,1.143290615E1
2.545959745E0,4.785645381E-2,-1.060020447E0,1.299781227E1
2.562626411E0,4.785645381E-2,-1.060020447E0,1.299781227E1
2.579293077E0,-1.753939033E0,-1.775474429E0,1.283510113E1
2.595959743E0,1.521835208E0,4.546363056E-1,1.370369530E1
2.612626409E0,2.818745136E0,1.301695466E0,1.300020504E1
2.629293075E0,2.139183521E0,1.194018483E0,9.846465111E0
2.645959741E0,1.770688772E0,1.141376376E0,9.939785004E0
2.662626407E0,-8.614161611E-1,1.373480201E0,1.089212894E1
2.679293073E0,2.153540403E-1,1.454836130E0,1.073420238E1
2.695959739E0,-4.642075896E-1,1.184447169E0,1.132762241E1
2.712626405E0,-1.000199914E0,7.202396393E-1,1.095912743E1
2.729293071E0,5.742774159E-2,-4.331009090E-1,1.295474148E1
2.745959737E0,-4.785645306E-1,-6.556333899E-1,1.212682533E1
2.762626403E0,5.024927482E-2,4.019941986E-1,1.133480072E1
2.779293069E0,3.541377485E-1,9.858429432E-1,1.019103146E1
2.795959735E0,5.479564071E-1,8.949156404E-1,9.626325607E0
2.812626401E0,7.896314859E-1,7.944171429E-1,9.743574142E0
2.829293067E0,4.618147612E-1,3.373879790E-1,9.616754532E0
2.845959733E0,5.551348329E-1,-1.674975902E-1,9.882357597E0
2.862626399E0,1.095912814E0,9.571290761E-2,1.041356373E1
2.879293065E0,8.949156404E-1,-1.507478207E-1,1.034895802E1
2.895959731E0,9.954141974E-1,3.613162339E-1,9.958928108E0
2.912626397E0,1.268195987E0,7.824530005E-1,1.017906761E1
2.929293063E0,1.531406522E0,9.188438654E-1,1.054038334E1
2.945959729E0,1.069591761E0,6.628118753E-1,1.047577763E1
2.962626395E0,1.081555843E0,4.929214716E-1,1.025324535E1
2.979293061E0,1.055234790E0,4.283152521E-1,1.066481018E1
2.995959727E0,1.131805062E0,3.517449200E-1,1.095434189E1
3.012626393E0,9.762716293E-1,8.159525394E-1,1.051167011E1
3.029293059E0,1.088734269E0,1.134197950E0,9.860821724E0
3.045959725E0,1.191625714E0,1.184447169E0,9.403793335E0
3.062626391E0,8.422735929E-1,7.968099117E-1,9.207581520E0
3.079293057E0,8.398807645E-1,5.455635786E-1,9.619147301E0
3.095959723E0,1.265803218E0,2.919243574E-1,1.066720295E1
3.112626389E0,1.261017561E0,4.450650215E-1,1.058584690E1
3.129293055E0,1.289731383E0,7.800601721E-1,1.014556789E1
3.145959721E0,1.464407444E0,1.028913736E0,9.997213364E0
3.162626387E0,1.141376376E0,5.838487148E-1,1.019103146E1
3.179293053E0,9.284151793E-1,8.111668825E-1,1.024606609E1
3.195959719E0,1.222732425E0,5.192425251E-1,1.016471100E1
3.212626385E0,7.992027402E-1,3.828516304E-1,1.079162979E1
3.229293051E0,1.146162033E0,1.081555843E0,1.034895802E1
3.245959717E0,1.610369682E0,1.701296926E0,1.023888779E1
3.262626383E0,2.072184324E0,1.974078655E0,1.059781170E1
3.279293049E0,2.428714991E0,2.380858421E0,1.073420238E1
3.295959715E0,2.600998163E0,2.725425005E0,1.072223854E1
3.312626381E0,2.510071039E0,3.134597778E0,1.092323494E1
3.329293047E0,2.352144718E0,3.524627686E0,1.098544884E1
3.345959713E0,2.234896421E0,3.529413462E0,1.052602673E1
3.362626379E0,1.864008784E0,3.507878065E0,9.968499184E0
3.379293045E0,1.634297848E0,3.931407690E0,9.664610863E0
3.395959711E0,1.641476393E0,4.402793884E0,9.597611427E0
3.412626377E0,1.426122308E0,4.599005222E0,8.937192917E0
3.429293043E0,8.566305041E-1,4.421936035E0,8.396414757E0
3.445959709E0,4.235295951E-1,4.072584152E0,8.386843681E0
3.462626375E0,-4.785645287E-3,3.613162279E0,8.662017822E0
3.479293041E0,-5.168496966E-1,3.737588882E0,8.461020470E0
3.495959707E0,-8.757730722E-1,4.082155228E0,8.106883049E0
3.512626373E0,-1.036092162E0,4.541577339E0,7.721638680E0
3.529293039E0,-1.012163997E0,4.699503899E0,7.922635555E0
3.545959705E0,-9.140582681E-1,4.706682205E0,8.432307243E0
3.562626371E0,-7.322037220E-1,4.919643402E0,8.401200294E0
3.579293037E0,-6.388836503E-1,4.931607246E0,8.580661774E0
3.595959703E0,-5.192425251E-1,4.776073933E0,9.071190834E0
3.612626369E0,-3.661018610E-1,4.682754040E0,9.377471924E0
3.629293035E0,-3.493520916E-1,4.766502857E0,9.238688469E0
3.645959701E0,-3.182454109E-1,4.957928658E0,8.889336586E0
3.662626367E0,-1.866401732E-1,5.271388054E0,8.456234932E0
3.679293033E0,-1.435693540E-2,5.601597786E0,8.082955360E0
3.695959699E0,2.321037948E-1,5.766702652E0,7.716853142E0
3.712626365E0,4.378865361E-1,5.692524910E0,7.496713161E0
3.729293031E0,6.939185858E-1,5.374279499E0,7.645068169E0
3.745959697E0,1.158126116E0,5.393422127E0,7.872386456E0
3.762626363E0,1.689332843E0,5.606383324E0,7.441678524E0
3.779293029E0,1.840080619E0,5.560919762E0,7.111468792E0
3.795959695E0,1.289731383E0,5.178068161E0,7.369893551E0
3.812626361E0,6.699903607E-1,4.900500774E0,7.807780266E0
3.829293027E0,2.632105052E-1,4.642076015E0,8.458627701E0
3.845959693E0,2.871387079E-2,4.371686935E0,8.877371788E0
3.862626359E0,5.982056633E-2,4.271188259E0,8.738588333E0
3.879293025E0,3.780659735E-1,4.476971149E0,7.664210796E0
3.895959691E0,6.939185858E-1,4.718646049E0,6.379265308E0
3.912626357E0,6.939185858E-1,4.718646049E0,6.379265308E0
3.929293023E0,6.939185858E-1,4.718646049E0,6.379265308E0
3.945959689E0,6.939185858E-1,4.718646049E0,6.379265308E0
3.962626355E0,6.939185858E-1,4.718646049E0,6.379265308E0
3.979293021E0,-8.374879509E-2,3.268595695E0,9.186046600E0
3.995959687E0,-3.517449200E-1,3.125026464E0,8.781659126E0
4.012626353E0,-9.523434043E-1,3.244667530E0,7.814958572E0
4.029293019E0,-1.730010748E0,4.055834293E0,7.278966427E0
4.045959685E0,-1.880758643E0,4.548755646E0,7.546962738E0
4.062626351E0,-1.100698471E0,4.486542225E0,7.817351341E0
4.079293017E0,-4.713860750E-1,4.141975880E0,8.413164139E0
4.095959683E0,-3.924229145E-1,4.204189301E0,8.805587769E0
4.112626349E0,-9.116654396E-1,4.407579422E0,8.980263710E0
4.129293015E0,-1.043270707E0,4.347758770E0,9.533005714E0
4.145959681E0,-9.571290612E-1,3.921836376E0,9.999606133E0
4.162626347E0,-9.858429432E-1,3.725624800E0,9.970891953E0
4.179293013E0,-1.213161111E0,3.917050600E0,9.906285286E0
4.195959679E0,-1.244267821E0,3.907479286E0,1.026999474E1
4.212626345E0,-1.287338614E0,3.988835335E0,1.020060253E1
4.229293011E0,-1.280160069E0,3.859622955E0,1.020299530E1
4.245959677E0,-1.249053478E0,3.598805189E0,1.062173939E1
4.262626343E0,-1.134197950E0,3.438486099E0,1.074616623E1
4.279293009E0,-1.002592683E0,3.455235958E0,1.037049294E1
4.295959675E0,-1.107876897E0,3.481556892E0,9.822537422E0
4.312626341E0,-1.311266780E0,3.584448338E0,9.604789734E0
4.329293007E0,-1.220339537E0,3.742374659E0,9.576076508E0
4.345959673E0,-1.014556766E0,3.866801500E0,9.341579437E0
4.362626339E0,-1.038485050E0,3.881158352E0,8.973084450E0
4.379293005E0,-1.048056364E0,3.780659676E0,8.827122688E0
4.395959671E0,-1.177268744E0,3.615555048E0,8.642875671E0
4.412626337E0,-1.371087432E0,3.562912941E0,8.724231720E0
4.429293003E0,-1.454836130E0,3.546163082E0,8.953942299E0
4.445959669E0,-1.249053478E0,3.505485058E0,8.980263710E0
4.462626335E0,-9.595218897E-1,3.515056372E0,8.824729919E0
4.479293001E0,-5.958128572E-1,3.543770313E0,8.949156761E0
4.495959667E0,-1.938186288E-1,3.507878065E0,9.037691116E0
4.512626333E0,6.221338734E-2,3.498306751E0,9.064012527E0
4.529292999E0,4.833501875E-1,3.584448338E0,9.437292099E0
4.545959665E0,1.103091240E0,3.749552965E0,9.547362328E0
4.562626331E0,1.682154298E0,3.830909014E0,9.449256897E0
4.579292997E0,1.931007862E0,3.806980848E0,9.379864693E0
4.595959663E0,2.088934183E0,3.969692707E0,9.147761345E0
4.612626329E0,2.311466694E0,4.175475597E0,8.848658562E0
4.629292995E0,2.397608280E0,4.156332970E0,8.745766640E0
4.645959661E0,2.294716835E0,4.256831646E0,8.834300995E0
4.662626327E0,2.201396942E0,4.089334011E0,9.174081802E0
4.679292993E0,2.787638426E0,3.974478483E0,9.918250084E0
4.695959659E0,2.947957516E0,3.847658873E0,8.362915039E0
4.712626325E0,2.218146563E0,4.048655987E0,7.611568928E0
4.729292991E0,1.495514154E0,4.321437836E0,7.200003147E0
4.745959657E0,1.395015597E0,4.888536453E0,6.953542709E0
4.762626323E0,1.284945726E0,5.204389095E0,8.403593063E0
4.779292989E0,1.811366796E0,5.436492920E0,9.956535339E0
4.795959655E0,2.478964329E0,5.304887772E0,1.050449181E1
4.812626321E0,2.103291035E0,4.898108006E0,9.884750366E0
4.829292987E0,1.399801254E0,4.651647091E0,8.575876236E0
4.845959653E0,8.733802438E-1,4.476971149E0,8.157132149E0
4.862626319E0,8.398807645E-1,4.388436794E0,8.700303078E0
4.879292985E0,1.067198873E0,4.335794449E0,9.657432556E0
4.895959651E0,1.488335729E0,4.388436794E0,1.010010433E1
4.912626317E0,1.794616938E0,4.453042984E0,9.844072342E0
4.929292983E0,1.725225091E0,4.429114819E0,9.791430473E0
4.945959649E0,1.588834286E0,4.252045631E0,8.640482903E0
4.962626315E0,1.241874933E0,4.122833252E0,7.453642368E0
4.979292981E0,9.978070259E-1,4.051048756E0,7.116254330E0
4.995959647E0,8.063812256E-1,3.981656790E0,7.594819069E0
5.012626313E0,6.125625968E-1,3.720839262E0,7.743174076E0
5.029292979E0,4.857429862E-1,3.840480328E0,8.013563156E0
5.045959645E0,9.858429432E-1,4.431507587E0,8.901300430E0
5.062626311E0,1.433300734E0,4.716253281E0,9.212367058E0
5.079292977E0,1.026520967E0,4.764110088E0,8.676374435E0
5.095959643E0,5.814558864E-1,4.718646049E0,7.774280548E0
5.112626309E0,4.043870270E-1,4.500899315E0,7.334001541E0
5.129292975E0,4.905286431E-1,4.548755646E0,7.544569969E0
5.145959641E0,7.800601721E-1,4.752145767E0,8.286344528E0
5.162626307E0,9.906286001E-1,4.668396950E0,9.044869423E0
5.179292973E0,1.100698471E0,4.809573650E0,8.994620323E0
5.195959639E0,1.127019525E0,4.950749874E0,9.444471359E0
5.212626305E0,1.557727575E0,4.699503899E0,9.107083321E0
5.229292971E0,2.206182480E0,4.493721008E0,7.872386456E0
5.245959637E0,1.184447169E0,4.654039860E0,6.065805435E0
5.262626303E0,1.296909928E0,5.218746185E0,3.981656790E0
5.279292969E0,2.687139750E0,4.902893543E0,3.720839262E0
5.295959635E0,3.055634499E0,4.618147850E0,5.915057659E0
5.312626301E0,4.213760853E0,4.230510235E0,6.068198204E0
5.329292967E0,4.819144726E0,4.663611412E0,5.649454117E0
5.345959633E0,4.924428940E0,4.218546391E0,5.706882000E0
5.362626299E0,4.596612453E0,2.620140791E0,4.938786030E0
5.379292965E0,4.132404804E0,2.297109663E-1,3.512663603E0
5.395959631E0,4.948357105E0,-2.871387079E-2,3.244667530E0
5.412626297E0,4.948357105E0,-2.871387079E-2,3.244667530E0
5.429292963E0,4.948357105E0,-2.871387079E-2,3.244667530E0
5.445959629E0,4.948357105E0,-2.871387079E-2,3.244667530E0
5.462626295E0,4.948357105E0,-2.871387079E-2,3.244667530E0
5.479292961E0,4.948357105E0,-2.871387079E-2,3.244667530E0
5.495959627E0,9.920642853E0,2.021935225E0,6.970292568E0
5.512626293E0,9.516255379E0,1.923829436E0,5.826523304E0
5.529292959E0,9.626325607E0,1.533799291E0,3.151347399E0
5.545959625E0,9.750752449E0,1.517049551E0,2.825923443E0
5.562626291E0,1.028674412E1,1.416550994E0,6.740581512E0
5.579292957E0,9.702896118E0,1.519442320E0,1.205743313E1
5.595959623E0,9.494720459E0,1.205982566E0,1.145683479E1
5.612626289E0,8.300702095E0,1.289731383E0,1.027956581E1
5.629292955E0,8.810373306E0,2.912065268E0,9.040083885E0
5.645959621E0,9.765109062E0,3.993621111E0,8.851051331E0
5.662626287E0,9.444471359E0,3.720839262E0,8.606983185E0
5.679292953E0,7.585247993E0,2.624926329E0,8.295916557E0
5.695959619E0,6.111268997E0,1.574477315E0,7.994420528E0
5.712626285E0,4.658825874E0,1.402194023E0,8.949156761E0
5.729292951E0,3.974478483E0,1.057627559E0,1.023888779E1
5.745959617E0,3.665804386E0,1.856830359E0,9.521040916E0
5.762626283E0,3.929014683E0,2.792423964E0,8.370093346E0
5.779292949E0,4.005585194E0,3.275774240E0,7.958528042E0
5.795959615E0,3.431307554E0,3.014956474E0,8.006384850E0
5.812626281E0,3.005385160E0,2.148754835E0,8.673981667E0
5.829292947E0,2.624926329E0,1.478764415E0,9.475577354E0
5.845959613E0,2.591426849E0,1.497906923E0,9.389435768E0
5.862626279E0,3.302095175E0,2.337787628E0,8.494520187E0
5.879292945E0,4.149154663E0,3.215953588E0,8.286344528E0
5.895959611E0,4.735395908E0,3.266202927E0,7.630711555E0
5.912626277E0,4.989035130E0,2.880958557E0,7.226324558E0
5.929292943E0,5.039284706E0,2.151147604E0,6.680760860E0
5.945959609E0,4.883750916E0,1.684547186E0,6.321837425E0
5.962626275E0,5.089533806E0,1.452443361E0,7.523034573E0
5.979292941E0,5.036891460E0,1.016949654E0,8.654839516E0
5.995959607E0,5.283352375E0,4.120440483E0,1.419422436E1
6.012626273E0,2.921636343E0,2.991028309E0,1.116251755E1
6.029292939E0,3.218346357E0,2.029113531E0,1.024606609E1
6.045959605E0,5.496313572E0,2.780459881E0,9.913464546E0
6.062626271E0,6.072983742E0,3.077169895E0,8.078168869E0
6.079292937E0,5.766702652E0,2.261217356E0,5.280959606E0
6.095959603E0,5.012963295E0,9.499505758E-1,4.802394867E0
6.112626269E0,3.541377544E0,5.503492057E-2,2.400001049E0
6.129292935E0,3.900300980E0,1.124626622E-1,2.591426849E0
6.145959601E0,3.823730469E0,-2.919243574E-1,3.948157310E0
6.162626267E0,3.330809116E0,-7.369893789E-1,5.527420521E0
6.179292933E0,4.491328239E0,5.718846321E-1,9.169296265E0
6.195959599E0,4.764110088E0,7.968099117E-1,9.762716293E0
6.212626265E0,5.321637630E0,7.417750359E-1,8.906085968E0
6.229292931E0,5.522634506E0,3.048455954E0,1.062652493E1
6.245959597E0,8.195417404E0,5.261816978E0,1.515853119E1
6.262626263E0,8.099704742E0,5.020142078E0,8.580661774E0
6.279292929E0,2.486142635E0,4.106083870E0,9.951749802E0
6.295959595E0,4.469792843E0,2.256431818E0,7.494320393E0
6.312626261E0,2.845066071E0,1.598405480E0,6.029912949E0
6.329292927E0,4.335794449E0,1.643869162E0,6.070590973E0
6.345959593E0,4.522434711E0,2.490928411E0,6.879364967E0
6.362626259E0,4.558327198E0,3.622733593E0,7.386643410E0
6.379292925E0,4.264009953E0,4.275974274E0,5.089533806E0
6.395959591E0,4.761716843E0,1.895115495E0,3.646661758E0
6.412626257E0,6.714260101E0,1.268195987E0,4.223331928E0
6.429292923E0,7.642675400E0,1.990828395E0,3.637090445E0
6.445959589E0,8.226524353E0,3.390629768E0,2.608176708E0
6.462626255E0,8.736195564E0,3.775874138E0,3.869194269E0
6.479292921E0,9.619147301E0,4.307080746E0,3.242274761E0
6.495959587E0,8.918049812E0,3.012563705E0,3.792623997E0
6.512626253E0,7.338787079E0,1.507478237E0,5.295316696E0
6.529292919E0,6.881757736E0,1.466800332E0,6.352943897E0
6.545959585E0,7.506284714E0,1.933400750E0,5.965306759E0
6.562626251E0,7.518248558E0,2.524427891E0,5.029713154E0
6.579292917E0,8.432307243E0,2.744567633E0,4.677968502E0
6.595959583E0,9.413364410E0,2.703889608E0,4.271188259E0
6.612626249E0,9.647860527E0,2.730210543E0,4.481756687E0
6.629292915E0,8.611768723E0,2.876172781E0,3.775874138E0
6.645959581E0,8.104490280E0,2.868994236E0,4.737788677E0
6.662626247E0,8.477770805E0,2.928814888E0,4.249652863E0
6.679292913E0,9.126225471E0,3.326023579E0,3.598805189E0
6.695959579E0,9.116654396E0,3.591626883E0,4.017549038E0
6.712626245E0,8.980263710E0,3.773481369E0,3.419343472E0
6.729292911E0,9.209974289E0,3.787838221E0,1.964507341E0
6.745959577E0,9.274580956E0,4.711467743E0,1.727617979E0
6.762626243E0,1.048056316E1,6.290730953E0,1.550549030E0
6.779292909E0,1.216511059E1,7.008577347E0,2.136790514E0
6.795959575E0,1.342612743E1,6.690331936E0,1.785045743E0
6.812626241E0,1.363908863E1,5.687739372E0,5.742774159E-2
6.829292907E0,1.316052437E1,4.546362877E0,-1.842473447E-1
6.845959573E0,1.202154064E1,3.531806231E0,-1.462014675E0
6.862626239E0,1.084905815E1,2.627319336E0,-7.944171429E-1
6.879292905E0,1.051167011E1,1.909472466E0,-1.067198873E0
6.895959571E0,1.138504982E1,2.354537487E0,-9.571290575E-3
6.912626237E0,1.077966595E1,2.323430777E0,1.902294040E0
6.929292903E0,1.157408333E1,2.225325108E0,1.854437590E0
6.945959569E0,1.177268696E1,2.909672260E0,8.279166222E-1
6.962626235E0,1.043031406E1,3.005385160E0,9.762716293E-1
6.979292901E0,9.214759827E0,2.574677229E0,2.167897224E0
6.995959567E0,8.822337151E0,3.125026464E0,4.357329845E0
7.012626233E0,8.748159409E0,3.756731510E0,4.876572609E0
7.029292899E0,7.496713161E0,3.512663603E0,5.886343479E0
7.045959565E0,6.075376511E0,3.811766386E0,4.924428940E0
7.062626231E0,6.324230194E0,2.873780012E0,5.398207664E0
7.079292897E0,7.654639721E0,2.971885681E0,8.551948547E0
7.095959563E0,7.671389580E0,3.981656790E0,1.189711380E1
7.112626229E0,7.537391186E0,4.120440483E0,1.149990559E1
7.129292895E0,7.226324558E0,4.974678040E0,9.279366493E0
7.145959561E0,6.020341873E0,4.905286312E0,6.994220734E0
7.162626227E0,4.584648132E0,4.058227062E0,6.553941250E0
7.179292893E0,3.474378586E0,3.139383316E0,6.084948063E0
7.195959559E0,3.940979004E0,3.414557934E0,4.474578381E0
7.212626225E0,1.864008784E0,3.163311481E0,6.929614544E0
7.229292891E0,7.034898400E-1,4.914857864E0,8.315058708E0
7.245959557E0,1.052842021E0,6.041877270E0,8.202595711E0
7.262626223E0,-6.532405615E-1,4.560719967E0,7.487142086E0
7.279292889E0,-8.087740541E-1,3.103491068E0,8.252845764E0
7.295959555E0,-2.392822690E-2,8.183453679E-1,1.143769264E1
7.312626221E0,1.471585870E0,4.567898273E0,5.271388054E0
7.329292887E0,6.077769399E-1,6.764509678E0,6.707081795E0
7.345959553E0,-8.901300430E-1,7.496713161E0,7.034898758E0
7.362626219E0,-2.187039852E0,6.510870457E0,7.235895634E0
7.379292885E0,-1.885544300E0,5.503491879E0,7.221538544E0
7.395959551E0,-2.581855536E0,4.460221291E0,5.647061348E0
7.412626217E0,-3.577269793E0,3.555734396E0,6.613761902E0
7.429292883E0,-4.256831646E0,3.180061340E0,7.709674358E0
7.445959549E0,-3.615555048E0,3.761517286E0,8.920442581E0
7.462626215E0,-3.900300980E0,4.295116425E0,9.946963310E0
7.479292881E0,-2.249253273E0,4.742574692E0,9.276973724E0
7.495959547E0,-2.579462767E0,5.168497086E0,7.556533813E0
7.512626213E0,-3.280559778E0,3.680161238E0,8.781659126E0
7.529292879E0,-4.024727821E0,3.213560820E0,7.862815380E0
7.545959545E0,-3.340380430E0,5.024927616E0,6.101697922E0
7.562626211E0,-2.581855536E0,6.742974281E0,5.233103275E0
7.579292877E0,-4.120440483E0,6.489335060E0,7.791030407E0
7.595959543E0,-5.010570526E0,5.587240696E0,6.977470875E0
7.612626209E0,-5.558526993E0,4.610969067E0,5.824130535E0
7.629292875E0,-6.190232277E0,3.144168854E0,3.996013880E0
7.645959541E0,-8.157132149E0,1.737189293E0,5.912664890E0
7.662626207E0,-8.918049812E0,1.588834286E0,5.036891460E0
7.679292873E0,-7.238288403E0,1.957328916E0,5.422136307E0
7.695959539E0,-7.329215527E0,1.459621787E0,5.879165173E0
7.712626205E0,-6.965506554E0,1.052842021E0,6.120840549E0
7.729292871E0,-7.805387497E0,2.919243574E-1,7.503891945E0
7.745959537E0,-8.551948547E0,8.327022791E-1,5.723631859E0
7.762626203E0,-8.678768158E0,1.004985496E-1,5.891129494E0
7.779292869E0,-8.226524353E0,-1.435693540E-2,5.108676434E0
7.795959535E0,-8.346165657E0,-8.925228715E-1,4.546362877E0
7.812626201E0,-8.554341316E0,1.339980662E-1,4.807180882E0
7.829292867E0,-1.137308598E1,9.786644578E-1,2.285145521E0
7.845959533E0,-1.221296692E1,2.447857618E0,5.264210105E-1
7.862626199E0,-1.012881851E1,2.376072884E0,3.168097258E0
7.879292865E0,-1.027956581E1,3.031706333E0,3.385843992E0
7.895959531E0,-6.979863644E0,3.531806231E0,5.510670662E0
7.912626197E0,-9.370293617E0,4.421936035E0,6.690331936E0
7.929292863E0,-1.155015469E1,3.428914785E0,5.240281582E0
7.945959529E0,-1.249292660E1,4.307080805E-2,5.974878311E0
7.962626195E0,-1.163868904E1,6.053841114E-1,5.106283665E0
7.979292861E0,-9.217152596E0,1.184447169E0,2.297109842E0
7.995959527E0,-1.038245773E1,7.322037220E-1,2.967100143E0
8.012626193E0,-7.221538544E0,3.725624800E0,-1.928615093E0
8.029292859E0,-5.187639713E0,5.546562672E0,-1.832902193E0
8.045959525E0,-4.074976921E0,7.034898758E0,1.603191137E0
8.062626191E0,-7.111468792E0,5.419743061E0,3.823730469E0
8.079292857E0,-9.525827408E0,2.579462767E0,2.438286304E0
8.095959523E0,-6.305087566E0,1.500299811E0,-4.019941807E0
8.112626189E0,1.294517040E0,1.044706345E1,-1.197846985E1
8.129292855E0,-5.099104881E0,6.010770321E0,1.206939697E1
8.145959521E0,-1.911865234E0,9.949356079E0,3.646661758E0
8.162626187E0,-4.563112736E0,9.631111145E0,-9.595218897E-1
8.179292853E0,-9.133403778E0,5.326423168E0,-1.395015597E0
8.195959519E0,-2.567498684E0,7.542177200E0,-2.797209740E0
8.212626185E0,-7.513462901E-1,7.183253765E0,1.081555843E0
8.229292851E0,-9.475577474E-1,7.915457249E0,2.842673302E0
8.245959517E0,-1.138983607E0,8.860622406E0,2.632104874E0
8.262626183E0,-4.307080805E-1,6.994220734E0,2.017149448E0
8.279292849E0,1.387837082E-1,6.932007313E0,2.940778971E0
8.295959515E0,1.679761529E0,8.626125336E0,1.262213898E1
8.312626181E0,8.303094506E-1,7.953742504E0,-1.033699393E0
8.329292847E0,1.426122308E0,9.743574142E0,-2.682354212E0
8.345959513E0,3.242274761E0,9.973284721E0,-1.844866276E0
8.362626179E0,7.348358154E0,1.281356525E1,7.968099117E-1
8.379292845E0,1.137787151E1,1.520638752E1,-3.993621111E0
8.395959511E0,1.163629627E1,1.455793285E1,-4.283152580E0
8.412626177E0,4.876572609E0,1.042552853E1,2.251646042E0
8.429292843E0,1.184447169E0,7.731209755E0,2.285145521E0
8.445959509E0,2.593819857E0,8.114061356E0,6.317051649E-1
8.462626175E0,5.139782906E0,9.121439934E0,-2.392822644E-3
8.479292841E0,4.359723091E0,8.774480820E0,1.730010748E0
8.495959507E0,3.720839262E0,9.824930191E0,2.531606436E0
8.512626173E0,3.862015724E0,8.391629219E0,4.594219327E-1
8.529292839E0,2.634497643E0,8.958727837E0,7.345965505E-1
8.545959505E0,2.708675146E0,9.154939651E0,1.986042738E0
8.562626171E0,4.642076015E0,8.870193481E0,1.363908887E0
8.579292837E0,3.046063185E0,7.805387497E0,-5.168496966E-1
8.595959503E0,2.416750908E0,6.635297298E0,-1.261017561E0
8.612626169E0,2.354537487E0,5.479563713E0,-1.191625714E0
8.629292835E0,2.835494757E0,4.666004181E0,-2.361716032E0
8.645959501E0,2.254039049E0,3.553341627E0,-2.536391914E-1
8.662626167E0,6.269195080E-1,3.723232031E0,-8.446664214E-1
8.679292833E0,-1.083948612E0,3.036491871E0,-1.083948612E0
8.695959499E0,-2.289931297E0,2.036292076E0,-7.369893789E-1
8.712626165E0,-1.722832322E0,3.282952785E0,1.158126116E0
8.729292831E0,1.639083505E0,6.786045074E0,8.980263710E0
8.745959497E0,3.543770313E0,9.580862045E0,3.550948858E0
8.762626163E0,6.032305717E0,2.019781685E1,-2.433500528E0
8.779292829E0,1.019820976E1,3.016392136E1,-8.841479301E0
8.795959495E0,4.517649174E0,2.755813789E1,1.406979680E0
8.812626161E0,-5.407779217E-1,1.224646664E1,1.076291656E1
8.829292827E0,2.464607358E-1,6.929614544E0,2.849851847E0
8.845959493E0,2.488535643E0,7.006184578E0,-8.798408508E0
8.862626159E0,-7.058826685E-1,8.221738815E0,-2.610569477E0
8.879292825E0,-5.503492057E-2,1.014317513E1,2.897708178E0
8.895959491E0,2.706282377E0,1.053320503E1,-8.470591903E-1
8.912626157E0,3.775874138E0,9.348757744E0,-2.378465652E0
8.929292823E0,2.531606436E0,7.319644451E0,-1.043270707E0
8.945959489E0,1.995614052E0,7.666603565E0,1.234696507E0
8.962626155E0,2.801995277E0,9.521040916E0,1.402194023E0
8.979292821E0,1.483550072E0,9.482755661E0,-3.708875179E-1
8.995959487E0,9.690931439E-1,1.030588722E1,-5.335994363E-1
9.012626153E0,6.412764788E-1,9.934999466E0,1.385444283E0
9.029292819E0,1.050449133E0,9.128618240E0,2.615355253E0
9.045959485E0,1.895115495E0,9.016156197E0,8.327022791E-1
9.062626151E0,2.347358942E0,8.901300430E0,-2.344966233E-1
9.079292817E0,2.096112728E0,8.980263710E0,-6.460621357E-1
9.095959483E0,1.426122308E0,9.968499184E0,-8.614161611E-1
9.112626149E0,8.590233326E-1,1.060020447E1,-3.302095234E-1
9.129292815E0,1.627119422E0,9.961320877E0,-6.101697683E-1
9.145959481E0,2.132004976E0,9.769894600E0,1.141376376E0
9.162626147E0,1.737189293E0,9.042476654E0,-2.751746178E-1
9.179292813E0,1.478764415E0,9.384650230E0,-1.935793519E0
9.195959479E0,1.282552958E0,9.690931320E0,-2.045863390E0
9.212626145E0,9.140582681E-1,9.942177773E0,-2.775674164E-1
9.229292811E0,1.928615093E0,1.065045357E1,2.577069998E0
9.245959477E0,2.524427891E0,1.004746246E1,1.706082582E0
9.262626143E0,2.194218397E0,9.308079720E0,-9.906286001E-1
9.279292809E0,1.971685886E0,8.932407379E0,-2.120040894E0
9.295959475E0,1.304088354E0,8.815158844E0,-1.524227977E0
9.312626141E0,1.105484009E0,9.427721024E0,-9.690931439E-1
9.329292807E0,8.614161611E-1,9.779465675E0,-9.595218897E-1
9.345959473E0,6.149554253E-1,9.566504478E0,-6.891329288E-1
9.362626139E0,6.604190469E-1,9.317651749E0,-7.848458290E-1
9.379292805E0,6.891329288E-1,9.358329773E0,-1.261017561E0
9.395959471E0,5.742774606E-1,9.097511292E0,-1.469193101E0
9.412626137E0,3.517449200E-1,8.827122688E0,-1.536192179E0
9.429292803E0,3.134597540E-1,8.937192917E0,-1.404586911E0
9.445959469E0,3.517449200E-1,9.394221306E0,-7.657032460E-2
9.462626135E0,3.278166950E-1,9.712467194E0,1.268195987E0
9.479292801E0,3.517449200E-1,9.798608780E0,5.862415433E-1
9.495959467E0,4.307080805E-1,1.015753174E1,1.627119333E-1
9.512626133E0,4.067798331E-2,1.040399265E1,9.164510965E-1
9.529292799E0,-2.321037948E-1,1.026520920E1,4.115654826E-1
9.545959465E0,-3.996013701E-1,1.004267693E1,-3.038884699E-1
9.562626131E0,-5.479564071E-1,1.023888779E1,2.344966233E-1
9.579292797E0,-2.344966233E-1,1.033938694E1,1.866401732E-1
9.595959463E0,-2.536391914E-1,9.714859962E0,4.450650215E-1
9.612626129E0,-2.057827413E-1,9.387042999E0,-1.316052526E-1
9.629292795E0,3.732803464E-1,9.439684868E0,-7.393822074E-1
9.645959461E0,7.872386575E-1,9.427721024E0,2.392822644E-3
9.662626127E0,4.450650215E-1,9.379864693E0,2.057827413E-1
9.679292793E0,2.225325108E-1,9.485149384E0,-8.853443712E-2
9.695959459E0,4.977070987E-1,1.004985523E1,2.967100143E-1
9.712626125E0,7.178468108E-1,1.043270683E1,8.853443712E-2
9.729292791E0,5.694918036E-1,9.970891953E0,-5.264209956E-2
9.745959457E0,1.318445325E0,9.832108498E0,-1.555334777E-1
9.762626123E0,1.713261008E0,9.774680138E0,-2.153540403E-1
9.779292789E0,1.593619823E0,9.772287369E0,-6.053841114E-1
9.795959455E0,1.550549030E0,9.657432556E0,-3.326023519E-1
9.812626121E0,1.261017561E0,9.494720459E0,-8.159525394E-1
9.829292787E0,1.289731383E0,9.616754532E0,-1.241874933E0
9.845959453E0,1.483550072E0,9.777072906E0,-9.595218897E-1
9.862626119E0,1.615155339E0,9.748359680E0,-1.205982566E0
9.879292785E0,2.005185366E0,9.671789169E0,-1.179661512E0
9.895959451E0,2.624926329E0,9.588040352E0,-6.819544435E-1
9.912626117E0,2.919243574E0,8.956335068E0,-7.752745152E-1
9.929292783E0,2.416750908E0,8.944371223E0,-7.561319470E-1
9.945959449E0,2.242074728E0,9.621540070E0,1.100698411E-1
9.962626115E0,2.469393015E0,9.693324089E0,5.479564071E-1
9.979292781E0,2.309073925E0,1.023170948E1,1.131805062E0
9.995959447E0,2.014756680E0,1.113141060E1,1.545763373E0
1.001262611E1,2.175075769E0,1.153101254E1,3.759124279E0
1.002929278E1,2.356930256E0,1.299063396E1,7.724031448E0
1.004595945E1,3.548556089E0,1.275374508E1,1.263410378E1
1.006262611E1,4.981856823E0,1.005224800E1,-1.162911773E0
1.007929278E1,1.239482164E0,7.731209755E0,-5.680561066E0
1.009595944E1,1.507478207E-1,6.592226505E0,2.246860504E0
1.011262611E1,-2.921636343E0,5.434100151E0,7.676175117E0
1.012929278E1,-3.433700562E0,4.637290478E0,5.065605640E0
1.014595944E1,-1.701296926E0,6.809973240E0,3.984049797E0
1.016262611E1,1.459621787E-1,8.980263710E0,3.457628727E0
1.017929277E1,7.728816867E-1,8.906085968E0,2.146361828E0
1.019595944E1,1.359123230E0,7.664210796E0,1.890329838E0
1.021262610E1,1.502692580E0,6.321837425E0,2.340180635E0
1.022929277E1,1.517049551E0,5.489135265E0,2.871387243E0
1.024595944E1,1.722832322E0,5.376672268E0,3.668197155E0
1.026262610E1,2.330609322E0,5.962913990E0,4.522434711E0
1.027929277E1,3.091526747E0,8.276773453E0,6.695117950E0
1.029595944E1,3.792623997E0,1.065045357E1,7.628318787E0
1.031262610E1,3.412165165E0,1.223450184E1,6.783652306E0
1.032929277E1,1.844866276E0,1.197129154E1,5.381458282E0
1.034595943E1,-3.517449200E-1,1.089691448E1,4.646861553E0
1.036262610E1,-2.206182480E0,9.164510727E0,4.965106964E0
1.037929276E1,7.776673436E-1,8.398807526E0,6.991827965E0
1.039595943E1,3.938585997E0,9.360722542E0,7.123433113E0
1.041262610E1,3.735196114E0,9.688538551E0,6.089733601E0
1.042929276E1,1.909472466E0,9.772287369E0,4.711467743E0
1.044595943E1,0.000000000E0,9.128618240E0,4.359723091E0
1.046262610E1,-9.978070259E-1,8.664410591E0,5.000999451E0
1.047929276E1,-1.184447169E0,8.276773453E0,3.972085476E0
1.049595943E1,-1.459621787E0,7.841279984E0,7.968099117E-1
1.051262609E1,-1.086341500E0,8.224131584E0,-3.182454109E-1
1.052929276E1,-9.690931439E-1,8.080561638E0,8.135597110E-1
1.054595943E1,-1.031306505E0,7.697710514E0,3.103491068E0
1.056262609E1,-2.342573404E0,7.910671711E0,3.416950703E0
1.057929276E1,-4.625326157E0,9.190832138E0,9.475577474E-1
1.059595942E1,-7.207181931E0,1.061934662E1,-8.781659007E-1
1.061262609E1,-1.057866859E1,9.786644936E0,-2.021935225E0
1.062929276E1,-1.042792130E1,7.802994728E0,3.775874138E0
1.064595942E1,-6.230910301E0,7.176074982E0,4.149154663E0
1.066262609E1,-4.259224415E0,6.319444656E0,3.613162279E0
1.067929275E1,-3.706482172E0,6.388836384E0,3.749552965E0
1.069595942E1,-3.388236761E0,7.274180889E0,3.517449379E0
1.071262608E1,-2.553141832E0,7.994420528E0,2.622533560E0
1.072929275E1,-1.170090318E0,8.362915039E0,2.172683001E0
1.074595942E1,4.881358147E-1,8.176275253E0,2.900100946E0
1.076262608E1,1.581655741E0,8.130811691E0,3.711267948E0
1.077929275E1,1.476371527E0,7.819744587E0,3.900300980E0
1.079595942E1,1.033699393E0,7.621140003E0,4.364508629E0
1.081262608E1,5.790630579E-1,8.008777618E0,4.347758770E0
1.082929275E1,4.929214716E-1,8.346165657E0,3.649054527E0
1.084595941E1,9.882357717E-1,8.662017822E0,3.074777126E0
1.086262608E1,1.698904037E0,9.119047165E0,2.713460922E0
1.087929274E1,2.084148407E0,9.597611427E0,2.859423161E0
1.089595941E1,1.895115495E0,9.755537987E0,3.328416348E0
1.091262608E1,3.661018610E-1,9.707681656E0,3.596412420E0
1.092929274E1,-1.225125194E0,9.487542152E0,2.024327993E0
1.094595941E1,-1.665404558E0,9.193224907E0,6.101697683E-1
1.096262608E1,-1.414158225E0,1.010249710E1,1.330409408E0
1.097929274E1,-1.294517040E0,1.086820030E1,2.227717876E0
1.099595941E1,-1.344766378E0,1.082512951E1,1.543370605E0
1.101262607E1,-1.406979680E0,1.013599682E1,1.938186288E0
1.102929274E1,-1.395015597E0,9.803394318E0,1.988435626E0
1.104595941E1,-1.284945726E0,9.269794464E0,1.457229018E0
1.106262607E1,-6.412764788E-1,8.884550095E0,3.828516304E-1
1.107929274E1,1.746760458E-1,8.915657043E0,1.112662554E0
1.109595940E1,1.064806104E0,1.022453117E1,1.808973908E0
1.111262607E1,1.215553880E0,1.149512005E1,1.624726534E0
1.112929274E1,1.014556766E0,1.157886887E1,2.033899277E-1
1.114595940E1,5.910272002E-1,1.055234814E1,-8.829515576E-1
1.116262607E1,4.713860750E-1,1.016949654E1,-1.050449133E0
1.117929273E1,1.813759565E0,1.162911797E1,1.351944804E0
1.119595940E1,2.076970100E0,1.225125217E1,2.584248543E0
1.121262606E1,-2.344966233E-1,9.949356079E0,-2.002792597E0
1.122929273E1,-1.318445325E0,8.537590981E0,6.340980053E0
1.124595940E1,-6.147161484E0,7.635497093E0,-1.239482164E0
1.126262606E1,-5.383851051E0,1.011924744E1,1.572084427E0
1.127929273E1,-4.740181446E0,1.131565857E1,-6.149554253E-1
1.129595940E1,8.638089895E-1,1.207896900E1,2.672782898E0
1.131262606E1,5.936593056E0,1.083470058E1,-4.761717021E-1
1.132929273E1,2.646461725E0,1.044706345E1,3.251846075E0
1.134595939E1,1.292124242E-1,1.216989613E1,3.672982693E0
1.136262606E1,8.853443861E-1,8.740981102E0,-7.298108935E-1
1.137929272E1,1.545763373E0,7.377072334E0,-1.914258152E-1
1.139595939E1,1.725225091E0,8.255238533E0,-5.431707501E-1
1.141262606E1,-1.004985496E-1,1.064806080E1,3.828516304E-1
1.142929272E1,-1.107876897E0,1.162672520E1,-2.871387303E-1
1.144595939E1,-9.643075466E-1,1.291884899E1,8.135596663E-2
1.146262606E1,6.939185411E-2,1.270110226E1,1.088734269E0
1.147929272E1,1.825723648E0,9.669396400E0,2.048256159E0
1.149595939E1,-1.627119333E-1,9.097511292E0,4.522434771E-1
1.151262605E1,1.890329868E-1,9.343972206E0,9.212366939E-1
1.152929272E1,5.312066078E-1,1.083470058E1,-1.004985496E-1
1.154595939E1,2.390429735E0,1.393340588E1,2.560320199E-1
1.156262605E1,2.277967215E0,1.226321602E1,9.667003751E-1
1.157929272E1,1.816152334E0,8.537590981E0,1.007378340E0
1.159595938E1,-4.498506486E-1,6.848258495E0,5.694918036E-1
1.161262605E1,-2.416750938E-1,8.575876236E0,9.547362328E-1
1.162929272E1,3.732803464E-1,8.781659126E0,1.500299811E0
1.164595938E1,1.538584948E0,8.379665375E0,1.385444283E0
1.166262605E1,1.792224169E0,5.742774487E0,4.948357105E0
1.167929271E1,3.373879910E0,9.891928673E0,-1.507478207E-1
1.169595938E1,2.718246460E0,9.858428955E0,2.560320199E-1
1.171262604E1,3.127419233E0,9.717252731E0,-9.619147182E-1
1.172929271E1,5.656632900E0,1.057866859E1,-1.170090318E0
1.174595938E1,5.603990555E0,9.860821724E0,-4.067798331E-2
1.176262604E1,5.479563713E0,9.485149384E0,-8.733802438E-1
1.177929271E1,4.165904045E0,9.580862045E0,-1.708475351E0
1.179595938E1,2.916850805E0,9.853643417E0,-3.177668571E0
1.181262604E1,1.631905079E0,8.906085968E0,-3.759124279E0
1.182929271E1,8.446664214E-1,8.822337151E0,-3.053241730E0
1.184595937E1,1.014556766E0,8.884550095E0,-1.462014675E0
1.186262604E1,3.996013701E-1,5.783452511E0,-1.076770186E0
1.187929271E1,2.009970993E-1,5.465207100E0,-6.173482537E-1
1.189595937E1,-1.366301775E0,6.814758778E0,-1.964507341E0
1.191262604E1,-1.531406522E0,8.348558426E0,-4.402793646E-1
1.192929270E1,-4.331009090E-1,8.468199730E0,3.881158352E0
1.194595937E1,1.268195987E0,8.444271088E0,1.476371527E0
1.196262604E1,2.572284460E0,8.130811691E0,3.620340586E0
1.197929270E1,4.833501875E-1,9.221938133E0,-3.828516230E-2
1.199595937E1,-1.718046665E0,1.044467068E1,-1.395015597E0
1.201262603E1,-1.708475351E0,1.166261768E1,-1.406979680E0
1.202929270E1,-3.613162339E-1,1.232782269E1,5.766702294E-1
1.204595936E1,-1.962114573E-1,1.256471157E1,1.330409408E0
1.206262603E1,1.892722726E0,1.186122227E1,-1.411765367E-1
1.207929270E1,2.519642353E0,9.927821159E0,-1.098305583E0
1.209595936E1,1.612762451E0,8.791230202E0,-1.706082582E0
1.211262603E1,9.690931439E-1,8.260024071E0,-1.091127157E0
1.212929270E1,1.148554921E0,8.642875671E0,-3.110669553E-1
1.214595936E1,1.459621787E0,8.800801277E0,1.818545222E0
1.216262603E1,1.753939033E0,1.008335495E1,1.686939955E0
1.217929269E1,2.120040894E0,1.239721394E1,-8.901300430E-1
1.219595936E1,1.684547186E0,1.256710434E1,-7.274180651E-1
1.221262602E1,1.947757602E0,1.129890823E1,6.628118753E-1
1.222929269E1,3.862015724E0,1.048774147E1,1.143769264E0
1.224595936E1,3.208775282E0,9.566504478E0,3.163311481E0
1.226262602E1,4.874179840E0,9.016156197E0,3.692125320E0
1.227929269E1,4.431507587E0,9.243474007E0,3.828516230E-2
1.229595936E1,2.787638426E0,7.625925541E0,-1.292124242E-1
1.231262602E1,1.622333765E0,7.802994728E0,6.819544435E-1
1.232929269E1,1.339980662E-1,8.133204460E0,-2.878565550E0
1.234595935E1,3.230310678E-1,6.671189308E0,-1.476371527E0
1.236262602E1,8.685946465E-1,6.216553211E0,8.518448472E-1
1.237929269E1,1.158126116E0,8.090133667E0,2.833101988E0
1.239595935E1,9.188438654E-1,1.060259724E1,2.258824587E0
1.241262602E1,-2.184647083E0,1.260060406E1,1.875972986E0
1.242929268E1,-3.184846878E0,1.148315620E1,2.560320199E-1
1.244595935E1,-2.215753794E0,9.394221306E0,1.878365755E0
1.246262602E1,5.766702294E-1,9.908679008E0,4.587040901E0
1.247929268E1,3.290131092E0,1.177029419E1,6.853044033E0
1.249595935E1,4.098905087E0,1.160279655E1,4.666004181E0
1.251262601E1,4.527220249E0,9.382257462E0,3.223132133E0
1.252929268E1,3.775874138E0,6.934400082E0,1.978864312E0
1.254595934E1,2.545963287E0,7.149754047E0,1.897508383E0
1.256262601E1,1.416550994E0,8.152346611E0,1.490728498E0
1.257929268E1,1.883151412E0,8.535198212E0,1.040877819E0
1.259595934E1,1.505085468E0,9.233902931E0,1.459621787E0
1.261262601E1,2.366501570E0,9.413364410E0,1.703689694E0
1.262929268E1,3.759124279E0,9.516255379E0,2.378465652E0
1.264595934E1,5.146961689E0,9.547362328E0,3.029313564E0
1.266262601E1,6.130411625E0,9.367900848E0,2.790031195E0
1.267929267E1,5.008177757E0,8.807980537E0,9.786644578E-1
1.269595934E1,2.311466694E0,6.709474564E0,9.427721500E-1
1.271262600E1,2.919243574E-1,5.852844238E0,7.872386575E-1
1.272929267E1,6.149554253E-1,8.762516975E0,1.067198873E0
1.274595934E1,8.757730722E-1,1.096152020E1,1.725225091E0
1.276262600E1,5.264209956E-2,1.042074299E1,1.452443361E0
1.277929267E1,-2.991028428E-1,9.559326172E0,2.055434704E0
1.279595934E1,4.043870270E-1,8.877371788E0,1.148554921E0
1.281262600E1,7.920243144E-1,8.958727837E0,1.928615093E0
1.282929267E1,1.945364833E0,1.012881851E1,1.538584948E0
1.284595933E1,2.541177750E0,1.009771156E1,1.588834286E0
1.286262600E1,1.820937991E0,9.255437851E0,1.282552958E0
1.287929267E1,1.445264935E0,9.214759827E0,1.816152334E0
1.289595933E1,2.108076811E0,9.681360245E0,2.471785784E0
1.291262600E1,3.239881754E0,9.860821724E0,2.026720762E0
1.292929266E1,3.775874138E0,9.367900848E0,1.574477315E0
1.294595933E1,3.115455151E0,9.568898201E0,1.545763373E0
1.296262600E1,2.036292076E0,9.327222824E0,1.641476393E0
1.297929266E1,1.701296926E0,8.724231720E0,1.447657704E0
1.299595933E1,1.524227977E0,8.391629219E0,9.762716293E-1
1.301262599E1,1.002592683E0,8.910871506E0,1.004985452E0
1.302929266E1,8.303094506E-1,9.458827972E0,9.906286001E-1
1.304595932E1,1.617548108E0,9.540184021E0,1.732403636E0
1.306262599E1,2.646461725E0,9.202795982E0,1.883151412E0
1.307929266E1,3.799802303E0,9.573683739E0,2.160718918E0
1.309595932E1,3.565305710E0,1.017667484E1,1.849651933E0
1.311262599E1,3.046063185E0,1.063370419E1,1.572084427E0
1.312929266E1,3.148954630E0,1.006660461E1,1.868794441E0
1.314595932E1,3.203989506E0,8.977870941E0,2.151147604E0
1.316262599E1,2.352144718E0,8.824729919E0,2.254039049E0
1.317929265E1,8.829515576E-1,9.209974289E0,1.919043779E0
1.319595932E1,-7.896314561E-2,9.123832703E0,1.100698471E0
1.321262598E1,-1.842473447E-1,8.946763992E0,1.172483116E-1
1.322929265E1,6.652047038E-1,8.941978455E0,6.412764788E-1
1.324595932E1,1.938186288E0,8.879764557E0,1.351944804E0
1.326262598E1,2.833101988E0,8.805587769E0,1.684547186E0
1.327929265E1,2.706282377E0,8.784051895E0,1.596012712E0
1.329595932E1,2.313859463E0,9.238688469E0,1.490728498E0
1.331262598E1,2.273181438E0,9.530612946E0,1.414158225E0
1.332929265E1,2.804388046E0,9.315258980E0,1.579262972E0
1.334595931E1,3.282952785E0,9.305686951E0,1.763510346E0
1.336262598E1,2.737389088E0,9.628718376E0,1.852044702E0
1.337929265E1,2.766103029E0,9.796216011E0,2.213361025E0
1.339595931E1,2.612962246E0,9.432506561E0,1.950150490E0
1.341262598E1,2.746960402E0,9.221938133E0,2.242074728E0
1.342929264E1,2.124826431E0,9.834501266E0,1.332802176E0
1.344595931E1,1.904686809E0,1.007617569E1,1.433300734E0
1.346262598E1,2.239681959E0,9.777072906E0,9.140582681E-1
1.347929264E1,1.363908887E0,9.142974854E0,1.928615093E0
1.349595931E1,3.421736360E-1,9.035298347E0,1.158126116E0
1.351262597E1,6.221338734E-2,9.585647583E0,6.245267391E-1
1.352929264E1,2.823530734E-1,9.640682220E0,5.216353536E-1
1.354595930E1,1.586441398E0,9.200403214E0,1.210768223E0
1.356262597E1,2.667997360E0,9.104690552E0,1.823330879E0
1.357929264E1,3.139383316E0,9.061619759E0,2.165504456E0
1.359595930E1,2.871387243E0,8.889336586E0,1.780260086E0
1.361262597E1,2.344966173E0,9.238688469E0,1.368694544E0
1.362929264E1,2.009970903E0,9.710074425E0,1.304088354E0
1.364595930E1,1.811366796E0,9.860821724E0,1.447657704E0
1.366262597E1,1.741974831E0,9.772287369E0,1.665404558E0
1.367929263E1,1.859223247E0,9.377471924E0,1.701296926E0
1.369595930E1,2.179861546E0,9.068798065E0,1.588834286E0
1.371262596E1,2.653640270E0,9.396614075E0,1.450050473E0
1.372929263E1,2.754138947E0,9.832108498E0,1.442872047E0
1.374595930E1,2.210968018E0,9.944570541E0,1.397408366E0
1.376262596E1,1.808973908E0,9.516255379E0,1.428515077E0
1.377929263E1,1.887937069E0,9.286544800E0,1.502692580E0
1.379595930E1,2.251646042E0,9.343972206E0,1.629512191E0
1.381262596E1,2.746960402E0,9.375079155E0,1.682154298E0
1.382929263E1,3.065205812E0,9.087940216E0,1.610369682E0
1.384595929E1,2.991028309E0,8.743373871E0,1.543370605E0
1.386262596E1,2.639283419E0,8.712266922E0,1.488335729E0
1.387929263E1,2.347358942E0,8.829515457E0,1.225125194E0
1.389595929E1,2.129612207E0,8.805587769E0,1.115055323E0
1.391262596E1,2.100898266E0,8.798408508E0,1.387837172E0
1.392929262E1,1.971685886E0,9.073583603E0,1.579262972E0
1.394595929E1,1.942971945E0,9.238688469E0,1.241874933E0
1.396262596E1,2.304288149E0,1.059063339E1,2.309073925E0
1.397929262E1,2.486142635E0,1.128933716E1,2.660818815E0
1.399595929E1,2.009970903E0,1.191147137E1,3.460021496E0
1.401262595E1,1.356730461E0,1.104287624E1,3.519842148E0
1.402929262E1,1.555334687E0,9.942177773E0,3.907479286E0
1.404595928E1,2.251646042E0,1.038724327E1,4.158725739E0
1.406262595E1,1.773081541E0,1.084666538E1,3.134597778E0
1.407929262E1,1.856830359E0,1.084666538E1,2.524427891E0
1.409595928E1,2.304288149E0,1.035852909E1,1.538584948E0
1.411262595E1,2.837887764E0,1.028913784E1,2.134397745E0
1.412929262E1,2.065006018E0,9.580862045E0,1.907079697E0
1.414595928E1,2.301895380E0,9.645467758E0,3.328416348E0
1.416262595E1,2.376072884E0,9.777072906E0,3.457628727E0
1.417929261E1,1.974078655E0,9.635896683E0,3.046063185E0
1.419595928E1,7.585247755E-1,9.164510727E0,2.684746981E0
1.421262595E1,2.919243574E-1,9.111868858E0,2.876172781E0
1.422929261E1,2.392822644E-3,9.269794464E0,3.689732552E0
1.424595928E1,-3.924229145E-1,9.678967476E0,3.869194269E0
1.426262594E1,-8.087740541E-1,9.566504478E0,2.811566591E0
1.427929261E1,-8.901300430E-1,9.166903496E0,2.220539331E0
1.429595928E1,-9.355936646E-1,8.772088051E0,1.856830359E0
1.431262594E1,-1.014556766E0,8.367700577E0,1.919043779E0
1.432929261E1,-8.279166222E-1,8.298309326E0,2.560320139E0
1.434595927E1,-1.062413216E0,8.271987915E0,2.864208698E0
1.436262594E1,-1.196411371E0,8.142775536E0,1.818545222E0
1.437929261E1,-1.416550994E0,7.479963779E0,1.378265858E0
1.439595927E1,-1.450050473E0,7.018148899E0,1.892722726E0
1.441262594E1,-1.502692580E0,6.857829571E0,2.557927370E0
1.442929260E1,-1.962114573E0,6.731009960E0,2.081755638E0
1.444595927E1,-2.177468538E0,7.238288403E0,2.301895380E0
1.446262594E1,-2.256431818E0,7.819744587E0,2.435893536E0
1.447929260E1,-2.263610125E0,8.008777618E0,2.062613010E0
1.449595927E1,-2.519642353E0,8.298309326E0,1.935793519E0
1.451262593E1,-2.912065268E0,8.740981102E0,1.507478237E0
1.452929260E1,-2.969492912E0,9.492327690E0,1.354337573E0
1.454595926E1,-2.596212626E0,1.039202881E1,1.672582984E0
1.456262593E1,-1.914258122E0,1.095434189E1,1.356730461E0
1.457929260E1,-1.339980721E0,1.070788097E1,1.239482164E0
1.459595926E1,-4.115654826E-1,9.999606133E0,9.547362328E-1
1.461262593E1,2.033899277E-1,9.801001549E0,1.060020447E0
1.462929260E1,-2.249253243E-1,1.044467068E1,2.297109842E0
1.464595926E1,-1.517049551E0,1.080120182E1,2.620140791E0
1.466262593E1,-2.256431818E0,1.150469112E1,2.758924484E0
1.467929259E1,-2.507678032E0,1.184447193E1,2.670390129E0
1.469595926E1,-2.979064226E0,1.153579807E1,2.096112728E0
1.471262593E1,-3.273381472E0,1.072463131E1,1.612762451E0
1.472929259E1,-3.543770313E0,9.726823807E0,1.998006940E0
1.474595926E1,-3.440878868E0,9.394221306E0,2.421536446E0
1.476262592E1,-2.952743053E0,9.415757179E0,2.309073925E0
1.477929259E1,-2.584248543E0,9.963713646E0,2.845066071E0
1.479595926E1,-2.976671457E0,1.014317513E1,2.629712105E0
1.481262592E1,-3.692125320E0,9.851250648E0,1.730010748E0
1.482929259E1,-3.802195072E0,8.169096947E0,2.203789711E0
1.484595925E1,-3.577269793E0,7.219145775E0,2.115255117E0
1.486262592E1,-2.569891453E0,6.802794933E0,1.395015597E0
1.487929259E1,-1.950150490E0,7.860422611E0,1.653440475E0
1.489595925E1,-2.821137905E0,9.896714211E0,2.756531715E0
1.491262592E1,-4.096512318E0,1.066481018E1,2.246860504E0
1.492929258E1,-4.443471432E0,9.954142570E0,2.342573404E0
1.494595925E1,-3.225524902E0,8.776873589E0,2.366501570E0
1.496262592E1,-2.725425005E0,7.896314621E0,1.830509305E0
1.497929258E1,-2.450250387E0,8.018348694E0,1.665404558E0
1.499595925E1,-2.167897224E0,7.929814339E0,1.789831281E0
1.501262591E1,-2.213361025E0,7.874779224E0,1.864008784E0
1.502929258E1,-1.820937991E0,7.204789162E0,1.701296926E0
1.504595924E1,-3.029313564E0,7.707281590E0,2.294716835E0
1.506262591E1,-3.359523058E0,8.523234367E0,3.093919754E0
1.507929258E1,-2.892922640E0,8.389236450E0,1.916650891E0
1.509595924E1,-3.376272678E0,9.214759827E0,2.141576290E0
1.511262591E1,-3.342773199E0,9.784252167E0,2.402393818E0
1.512929258E1,-2.239681959E0,1.002114105E1,2.158325911E0
1.514595924E1,-1.708475351E0,8.080561638E0,2.237289190E0
1.516262591E1,-1.873580098E0,6.702296257E0,1.899901152E0
1.517929257E1,-2.395215511E0,5.536991596E0,1.830509305E0
1.519595924E1,-2.821137905E0,5.618347645E0,2.656033039E0
1.521262591E1,-3.507878065E0,6.245266914E0,2.103291035E0
1.522929257E1,-3.871587038E0,1.175354481E1,1.959721804E0
1.524595924E1,-3.962514400E0,1.489053535E1,2.467000246E0
1.526262590E1,-4.510470867E0,1.568255997E1,3.505485058E0
1.527929257E1,-4.414757729E0,1.409133244E1,2.935993433E0
1.529595924E1,-3.522234917E0,9.293723106E0,1.914258122E0
1.531262590E1,-2.203789711E0,4.658825874E0,4.000799656E0
1.532929257E1,-9.667003751E-1,3.290131092E0,4.144368649E0
1.534595923E1,-5.264210105E-1,5.417350292E0,2.359323025E0
1.536262590E1,-6.723831892E-1,6.652047157E0,2.179861546E0
1.537929256E1,-9.523434043E-1,7.606783390E0,2.943171740E0
1.539595923E1,-1.531406522E0,7.068397999E0,2.811566591E0
1.541262590E1,-2.311466694E0,6.166304111E0,2.342573404E0
1.542929256E1,-2.813959360E0,7.223931789E0,2.153540373E0
1.544595923E1,-3.567698479E0,8.429914474E0,1.842473388E0
1.546262590E1,-3.644268990E0,9.767501831E0,1.533799291E0
1.547929256E1,-3.505485058E0,1.051406288E1,1.861616015E0
1.549595923E1,-3.653840065E0,1.028435135E1,1.581655741E0
1.551262589E1,-4.082155228E0,9.659825325E0,1.823330879E0
1.552929256E1,-3.979264021E0,9.099904060E0,1.993221283E0
1.554595922E1,-3.316452265E0,8.635697365E0,1.493121386E0
1.556262589E1,-2.316252232E0,8.834300995E0,1.454836130E0
1.557929256E1,-2.091326952E0,8.578269005E0,1.832902193E0
1.559595922E1,-1.897508383E0,7.951349735E0,1.526620865E0
1.561262589E1,-1.677368641E0,8.030312538E0,1.725225091E0
1.562929256E1,-1.708475351E0,7.881958008E0,1.777867198E0
1.564595922E1,-1.911865234E0,7.948956966E0,1.277767301E0
1.566262589E1,-1.840080619E0,8.626125336E0,1.564906001E0
1.567929255E1,-1.567298889E0,9.554540634E0,1.768295884E0
1.569595922E1,-1.529013634E0,1.003789139E1,1.234696507E0
1.571262589E1,-2.108076811E0,9.781859398E0,1.464407444E0
1.572929255E1,-1.976471543E0,9.559326172E0,1.347159147E0
1.574595922E1,-1.847259045E0,9.566504478E0,1.462014675E0
1.576262588E1,-1.646261930E0,1.029870892E1,1.019342422E0
1.577929255E1,-1.490728498E0,1.099980545E1,1.153340459E0
1.579595922E1,-1.538584948E0,1.142812061E1,1.062413216E0
1.581262588E1,-1.942971945E0,1.107876873E1,7.633104324E-1
1.582929255E1,-1.493121386E0,1.061216831E1,7.298108935E-1
1.584595921E1,-1.179661512E0,1.006181908E1,1.306481123E0
1.586262588E1,-1.801795483E0,9.085547447E0,8.015955687E-1
1.587929254E1,-1.543370605E0,8.384450912E0,1.414158225E0
1.589595921E1,-1.330409408E0,8.405985832E0,1.093519926E0
1.591262588E1,-5.551348329E-1,9.104690552E0,1.095912814E0
1.592929254E1,-3.302095234E-1,9.963713646E0,4.115654826E-1
1.594595921E1,3.397808075E-1,1.097827053E1,1.794617027E-1
1.596262588E1,1.182054400E0,1.170568848E1,1.004985496E-1
1.597929254E1,8.374879360E-1,1.111944675E1,-3.828516230E-2
1.599595921E1,8.183453679E-1,1.020538902E1,1.339980721E0
1.601262587E1,1.684547186E0,1.004985523E1,8.159525394E-1
1.602929254E1,1.354337573E0,9.511469841E0,1.414158225E0
1.604595921E1,1.526620865E0,9.265008926E0,5.599204898E-1
1.606262587E1,1.371087432E0,9.205188751E0,8.087740541E-1
1.607929254E1,1.708475351E0,9.497113228E0,1.545763373E0
1.609595920E1,2.423929453E0,9.915857315E0,-4.761717021E-1
1.611262587E1,2.584248543E0,9.145368576E0,2.416750938E-1
1.612929254E1,2.206182480E0,8.937192917E0,9.571290612E-1
1.614595920E1,1.141376376E0,1.008814049E1,4.929214716E-1
1.616262587E1,1.194018483E0,1.135155106E1,1.270588875E0
1.617929253E1,2.275574446E0,1.116730309E1,1.878365755E0
1.619595920E1,2.282752752E0,1.116012478E1,8.925228715E-1
1.621262586E1,3.213560820E0,1.065763187E1,5.096712112E-1
1.622929253E1,3.201596737E0,1.029631615E1,1.368694544E0
1.624595920E1,3.445664644E0,9.937392235E0,8.662018180E-1
1.626262586E1,3.493520975E0,9.832108498E0,7.728816867E-1
1.627929253E1,2.974278450E0,9.669396400E0,9.140582681E-1
1.629595920E1,2.603390932E0,9.774680138E0,1.122233868E0
1.631262586E1,2.945564747E0,1.019103146E1,1.737189293E0
1.632929253E1,3.014956474E0,1.022213840E1,1.923829436E0
1.634595919E1,2.725425005E0,1.006181908E1,1.318445325E0
1.636262586E1,2.560320139E0,9.736394882E0,9.164510965E-1
1.637929252E1,2.263610125E0,9.061619759E0,1.098305583E0
1.639595919E1,2.088934183E0,9.202795982E0,1.301695466E0
1.641262586E1,1.892722726E0,8.812766075E0,9.714859724E-1
1.642929252E1,1.703689694E0,9.018548965E0,1.229910851E0
1.644595919E1,1.543370605E0,9.738788605E0,1.399801254E0
1.646262586E1,1.533799291E0,9.858428955E0,1.306481123E0
1.647929252E1,1.603191137E0,9.956535339E0,9.523434043E-1
1.649595919E1,1.201196909E0,9.726823807E0,1.060020447E0
1.651262585E1,8.925228715E-1,9.533005714E0,6.939185858E-1
1.652929252E1,8.590233326E-1,9.566504478E0,3.302095234E-1
1.654595918E1,-9.571290575E-3,1.027478027E1,5.240281820E-1
1.656262585E1,-9.212366939E-1,1.093519974E1,1.497906923E0
1.657929252E1,-7.657032609E-1,1.144487095E1,1.615155339E0
1.659595918E1,-1.316052526E-1,1.167936707E1,1.679761529E0
1.661262585E1,1.555334777E-1,1.133719349E1,2.053041935E0
1.662929252E1,1.603191197E-1,1.008814049E1,5.096712112E-1
1.664595918E1,-9.571290761E-2,9.166903496E0,7.465606928E-1
1.666262585E1,-2.536391914E-1,8.669196129E0,1.213161111E0
1.667929251E1,-2.967100143E-1,8.425128937E0,1.823330879E0
1.669595918E1,-4.761717021E-1,8.920442581E0,1.873580098E0
1.671262584E1,-8.231309652E-1,9.298508644E0,6.699903607E-1
1.672929251E1,-6.149554253E-1,9.870393753E0,5.096712112E-1
1.674595918E1,-2.488535494E-1,9.678967476E0,5.551348329E-1
1.676262584E1,-7.393822074E-1,9.162117958E0,1.091127157E0
1.677929251E1,-1.383051515E0,8.417949677E0,1.651047587E0
1.679595918E1,-1.923829436E0,8.276773453E0,1.117448211E0
1.681262584E1,-2.079362869E0,8.501698494E0,1.004985452E0
1.682929251E1,-1.581655741E0,8.930013657E0,9.786644578E-1
1.684595917E1,-1.299302697E0,9.183652878E0,7.728816867E-1
1.686262584E1,-1.210768223E0,9.286544800E0,1.677368641E0
1.687929251E1,-9.762716293E-1,9.736394882E0,1.861616015E0
1.689595917E1,-9.667003751E-1,1.020538902E1,6.699903607E-1
1.691262584E1,-1.430907965E0,1.018863869E1,8.781659007E-1
1.692929250E1,-2.258824587E0,1.029870892E1,8.853443861E-1
1.694595917E1,-2.792423964E0,1.060259724E1,1.189232826E0
1.696262584E1,-2.854637384E0,1.127258778E1,7.441678643E-1
1.697929250E1,-3.029313564E0,1.148315620E1,4.211367965E-1
1.699595917E1,-2.900100946E0,1.151426220E1,-3.158525825E-1
1.701262583E1,-2.684746981E0,1.098305607E1,2.177468538E-1
1.702929250E1,-2.081755638E0,9.968499184E0,2.656033039E-1
1.704595916E1,-1.215553880E0,9.911071777E0,5.670989752E-1
1.706262583E1,-1.272981644E0,9.061619759E0,6.771687865E-1
1.707929250E1,-2.342573404E0,8.379665375E0,-1.105484009E0
1.709595916E1,-3.457628727E0,8.891729355E0,-1.974078655E0
1.711262583E1,-2.967100143E0,9.552147865E0,-9.882357717E-1
1.712929250E1,-2.270788670E0,8.346165657E0,4.713860750E-1
1.714595916E1,-5.503492057E-2,6.010770321E0,1.328016520E0
1.716262583E1,-6.771687865E-1,4.285545349E0,1.634297848E0
1.717929249E1,-7.585247755E-1,5.479563713E0,3.110669553E-1
1.719595916E1,-2.871387303E-1,7.061219692E0,8.829515576E-1
1.721262582E1,-3.182454109E-1,8.537590981E0,1.667797327E0
1.722929249E1,-6.484549642E-1,8.559126854E0,8.542376757E-1
1.724595916E1,-1.040877819E0,8.173882484E0,9.738788009E-1
1.726262582E1,-2.309073925E0,8.288737297E0,7.896314859E-1
1.727929249E1,-3.163311481E0,8.733802795E0,9.475577474E-1
1.729595916E1,-3.421736479E0,9.631111145E0,1.203589797E0
1.731262582E1,-3.043670416E0,1.045663452E1,1.313659668E0
1.732929249E1,-2.359323025E0,9.946963310E0,1.667797327E0
1.734595915E1,-1.581655741E0,7.989634991E0,1.777867198E0
1.736262582E1,-1.071984529E0,5.977271080E0,1.318445325E0
1.737929248E1,-9.403793216E-1,4.922036171E0,3.924229145E-1
1.739595915E1,-8.518448472E-1,5.022534847E0,3.613162339E-1
1.741262582E1,-1.251446247E0,6.137589931E0,-1.914258115E-2
1.742929248E1,-1.964507341E0,8.257631302E0,1.100698411E-1
1.744595915E1,-2.438286304E0,1.111466122E1,8.398807645E-1
1.746262582E1,-2.545963287E0,1.335673618E1,1.024128079E0
1.747929248E1,-2.600998163E0,1.441197109E1,1.320838094E0
1.749595915E1,-2.438286304E0,1.346680546E1,1.552941918E0
1.751262581E1,-2.282752752E0,1.102134132E1,1.067198873E0
1.752929248E1,-1.445264935E0,9.329615593E0,8.853443861E-1
1.754595914E1,-1.012163997E0,8.630910873E0,7.944171429E-1
1.756262581E1,-1.019342422E0,8.836693764E0,9.547362328E-1
1.757929248E1,-1.186840057E0,9.403793335E0,9.188438654E-1
1.759595914E1,-9.954141974E-1,9.621540070E0,7.298108935E-1
1.761262581E1,-6.915257573E-1,9.513862610E0,5.168496966E-1
1.762929248E1,-5.599204898E-1,8.882157326E0,3.254238665E-1
1.764595914E1,-1.651047617E-1,8.772088051E0,6.771687865E-1
1.766262581E1,-3.134597540E-1,9.183652878E0,8.398807645E-1
1.767929247E1,-4.498506486E-1,9.868000984E0,9.236295223E-1
1.769595914E1,1.387837082E-1,1.055234814E1,1.256231904E0
1.771262581E1,4.019941986E-1,1.116969585E1,1.083948612E0
1.772929247E1,4.905286431E-1,1.116969585E1,1.342373490E0
1.774595914E1,8.566305041E-1,1.117687416E1,9.475577474E-1
1.776262580E1,1.658226132E0,1.127019501E1,4.785645306E-1
1.777929247E1,2.407179594E0,1.168893814E1,3.756731451E-1
1.779595914E1,1.986042738E0,1.132762241E1,1.615155339E0
1.781262580E1,2.045863390E0,1.010728264E1,3.254238665E-1
1.782929247E1,1.899901152E0,9.485149384E0,6.484549642E-1
1.784595913E1,2.270788670E0,1.021735287E1,1.725225091E0
1.786262580E1,1.969292998E0,1.097348499E1,1.768295884E0
1.787929247E1,1.744367719E0,1.128455162E1,4.307080805E-1
1.789595913E1,9.595218897E-1,1.004746246E1,1.292124242E-1
1.791262580E1,4.163511395E-1,9.432506561E0,6.340979934E-1
1.792929246E1,5.934200287E-1,9.164510727E0,3.589234054E-1
1.794595913E1,6.771687865E-1,8.949156761E0,8.733802438E-1
1.796262580E1,1.363908887E0,9.166903496E0,9.906286001E-1
1.797929246E1,1.545763373E0,9.090332985E0,5.958128572E-1
1.799595913E1,1.438086390E0,8.848658562E0,7.250252366E-1
1.801262579E1,1.361516118E0,8.985049248E0,1.610369682E0
1.802929246E1,6.867401004E-1,9.901499748E0,1.820937991E0
1.804595912E1,2.081755698E-1,1.126301575E1,1.816152334E0
1.806262579E1,2.679961324E-1,1.186361504E1,1.892722726E0
1.807929246E1,-7.657032460E-2,1.172004509E1,1.751546144E0
1.809595912E1,-2.943171859E-1,1.097348499E1,9.643075466E-1
1.811262579E1,-3.421736360E-1,1.004985523E1,4.498506486E-1
1.812929246E1,-6.580262184E-1,9.312865257E0,6.484549642E-1
1.814595912E1,-4.522434771E-1,9.355937004E0,1.086341500E0
1.816262579E1,-2.632105052E-1,9.879964828E0,1.392622828E0
1.817929245E1,1.914258115E-2,1.043509960E1,1.390229940E0
1.819595912E1,3.996013701E-1,1.065045357E1,8.829515576E-1
1.821262578E1,2.321037948E-1,1.065763187E1,6.963114142E-1
1.822929245E1,-1.196411345E-2,1.055474091E1,7.058826685E-1
1.824595912E1,-3.541377485E-1,1.057866859E1,3.565305769E-1
1.826262578E1,-1.074377418E0,1.036810017E1,5.216353536E-1
1.827929245E1,-1.567298889E0,1.007378292E1,7.848458290E-1
1.829595912E1,-1.914258122E0,9.822537422E0,9.810572863E-1
1.831262578E1,-2.584248543E0,9.832108498E0,6.221339107E-1
1.832929245E1,-2.919243574E0,9.978070259E0,5.431707501E-1
1.834595911E1,-2.344966173E0,1.004028416E1,3.493520916E-1
1.836262578E1,-2.124826431E0,9.954142570E0,1.986042857E-1
1.837929244E1,-1.950150490E0,9.308079720E0,2.799602449E-1
1.839595911E1,-1.663011789E0,8.760123253E0,3.972085714E-1
1.841262578E1,-1.596012712E0,8.164310455E0,1.282552958E0
1.842929244E1,-1.033699393E0,7.451249599E0,1.603191137E0
1.844595911E1,-1.110269666E0,7.295716286E0,2.632105052E-1
1.846262578E1,-2.072184324E0,8.068597794E0,-1.012163997E0
1.847929244E1,-3.259024382E0,9.714859962E0,-9.834501147E-1
1.849595911E1,-3.744767427E0,1.067677498E1,-2.751746178E-1
1.851262577E1,-4.041477680E0,1.039442158E1,-2.416750938E-1
1.852929244E1,-2.502892494E0,8.894122124E0,1.153340459E0
1.854595910E1,-5.551348329E-1,6.951149940E0,2.495713949E0
1.856262577E1,-5.910272002E-1,6.671189308E0,1.792224169E0
1.857929244E1,-7.489534616E-1,7.178467751E0,4.761717021E-1
1.859595910E1,-5.958128572E-1,6.159125328E0,1.196411371E0
1.861262577E1,-9.978070259E-1,5.826523304E0,2.311466694E0
1.862929244E1,-1.433300734E0,6.034698486E0,1.579262972E0
1.864595910E1,-1.938186288E0,7.156932354E0,1.576870084E0
1.866262577E1,-2.031506538E0,8.003992081E0,1.344766378E0
1.867929243E1,-1.976471543E0,8.458627701E0,1.043270707E0
1.869595910E1,-2.170290232E0,8.228917122E0,1.009771109E0
1.871262577E1,-2.151147604E0,7.678567886E0,1.442872047E0
1.872929243E1,-1.806581140E0,6.948757172E0,1.318445325E0
1.874595910E1,-1.229910851E0,7.097112179E0,1.256231904E0
1.876262576E1,-9.355936646E-1,7.814958572E0,7.896314859E-1
1.877929243E1,-8.159525394E-1,8.176275253E0,6.077769399E-1
1.879595910E1,-8.327022791E-1,9.269794464E0,6.197410822E-1
1.881262576E1,-1.160519004E0,1.010010433E1,4.905286431E-1
1.882929243E1,-1.579262972E0,1.064566803E1,1.363908887E0
1.884595909E1,-1.804188251E0,1.100219822E1,1.440479279E0
1.886262576E1,-1.395015597E0,1.083948612E1,1.361516118E0
1.887929243E1,-1.043270707E0,9.796216011E0,8.997012973E-1
1.889595909E1,-7.465606928E-1,9.597611427E0,8.733802438E-1
1.891262576E1,1.339980662E-1,1.053081226E1,1.217946768E0
1.892929242E1,6.532405615E-1,1.132522964E1,1.002592683E0
1.894595909E1,6.364908218E-1,1.194257736E1,7.513462901E-1
1.896262576E1,2.057827413E-1,1.177508068E1,9.403793216E-1
1.897929242E1,4.785645381E-2,1.126780224E1,8.542376757E-1
1.899595909E1,5.000999570E-1,1.071266651E1,1.253839016E0
1.901262575E1,8.303094506E-1,1.010488987E1,1.208375454E0
1.902929242E1,1.289731383E0,1.002592659E1,1.091127157E0
1.904595908E1,1.380658627E0,1.021496010E1,1.445264935E0
1.906262575E1,2.024327993E0,1.081316566E1,1.024128079E0
1.907929242E1,2.270788670E0,1.152144146E1,8.422735929E-1
1.909595908E1,2.577069998E0,1.113141060E1,1.438086390E0
1.911262575E1,2.187039852E0,1.038245773E1,1.371087432E0
1.912929242E1,1.658226132E0,1.051645565E1,1.093519926E0
1.914595908E1,1.433300734E0,1.140419292E1,1.105484009E0
1.916262575E1,1.311266780E0,1.099501991E1,2.416750908E0
1.917929241E1,1.387837172E0,9.899106979E0,2.732603550E0
1.919595908E1,1.397408366E0,9.482755661E0,2.378465652E0
1.921262574E1,1.378265858E0,9.588040352E0,2.074577332E0
1.922929241E1,1.502692580E0,1.028435135E1,2.108076811E0
1.924595908E1,1.294517040E0,1.068634605E1,2.390429735E0
1.926262574E1,9.308080077E-1,1.054516983E1,2.263610125E0
1.927929241E1,9.068797827E-1,1.040877819E1,1.828116536E0
1.929595908E1,1.019342422E0,1.036092186E1,1.227517962E0
1.931262574E1,6.436693072E-1,1.039920712E1,7.082754970E-1
1.932929241E1,-3.541377485E-1,1.035135078E1,4.953143001E-1
1.934595907E1,-8.327022791E-1,1.034417248E1,1.091127157E0
1.936262574E1,-7.513462901E-1,1.045902824E1,1.507478237E0
1.937929240E1,-7.680960894E-1,1.039681435E1,1.619940877E0
1.939595907E1,-8.231309652E-1,1.047099209E1,1.447657704E0
1.941262574E1,-1.328016520E0,1.056670475E1,1.263410330E0
1.942929240E1,-1.284945726E0,1.069830990E1,1.636690736E0
1.944595907E1,-1.225125194E0,1.079402256E1,1.301695466E0
1.946262574E1,-7.752745152E-1,1.087059307E1,1.426122308E0
1.947929240E1,-4.737788737E-1,1.029392338E1,1.270588875E0
1.949595907E1,-3.876372576E-1,9.937392235E0,8.949156404E-1
1.951262573E1,-8.973084688E-1,9.915857315E0,1.148554832E-1
1.952929240E1,-1.586441398E0,9.726823807E0,2.249253243E-1
1.954595906E1,-1.576870084E0,9.851250648E0,7.178468108E-1
1.956262573E1,-1.356730461E0,1.020538902E1,8.159525394E-1
1.957929240E1,-1.277767301E0,1.014556789E1,5.934200287E-1
1.959595906E1,-1.069591761E0,9.875179291E0,1.067198873E0
1.961262573E1,-1.414158225E0,9.391828537E0,4.067798331E-2
1.962929240E1,-2.785245657E0,9.779465675E0,-2.928814888E0
1.964595906E1,-3.716053486E0,1.153819084E1,-2.199003935E0
1.966262573E1,-2.818745136E0,1.143769264E1,1.622333765E0
1.967929239E1,-9.188438654E-1,7.178467751E0,2.005185366E0
1.969595906E1,-1.091127157E0,4.883750916E0,1.940579176E0
1.971262573E1,-1.026520967E0,5.139782906E0,-6.460621208E-2
1.972929239E1,-4.067798555E-1,5.259424210E0,6.939185858E-1
1.974595906E1,-2.991028428E-1,6.833901405E0,1.674975872E0
1.976262572E1,-4.785645306E-1,6.101697922E0,8.183453679E-1
1.977929239E1,-9.858429432E-1,6.443871498E0,9.188438654E-1
1.979595906E1,-1.507478237E0,7.068397999E0,1.174875975E0
1.981262572E1,-2.208575249E0,7.176074982E0,6.604190469E-1
1.982929239E1,-2.313859463E0,7.630711555E0,9.619147182E-1
1.984595905E1,-1.852044702E0,7.836493969E0,1.201196909E0
1.986262572E1,-1.385444283E0,7.676175117E0,1.107876897E0
1.987929239E1,-9.547362328E-1,7.460821152E0,1.060020447E0
1.989595905E1,-5.790630579E-1,7.606783390E0,7.393822074E-1
1.991262572E1,-9.236295223E-1,8.070990562E0,7.704889178E-1
1.992929238E1,-1.308874011E0,8.396414757E0,1.026520967E0
1.994595905E1,-1.694118381E0,8.638090134E0,1.280160069E0
1.996262572E1,-1.962114573E0,8.791230202E0,1.631905079E0
1.997929238E1,-2.210968018E0,9.186046600E0,1.119840980E0
1.999595905E1,-2.160718918E0,9.444471359E0,2.321037948E-1
2.001262571E1,-1.787438512E0,1.069830990E1,9.308080077E-1
2.002929238E1,-1.639083505E0,1.177268696E1,1.088734269E0
2.004595904E1,-1.170090318E0,1.277528000E1,2.273181528E-1
2.006262571E1,-1.148554921E0,1.292602825E1,-1.866401732E-1
2.007929238E1,-6.723831892E-1,1.183968639E1,7.082754970E-1
2.009595904E1,-4.211367965E-1,1.085623646E1,1.483550072E0
2.011262571E1,4.785645381E-2,1.029631615E1,5.910272002E-1
2.012929238E1,1.098305583E0,1.045184898E1,1.318445325E0
2.014595904E1,2.213361025E0,1.111705399E1,1.146162033E0
2.016262571E1,2.529213428E0,1.115294647E1,1.249053478E0
2.017929237E1,2.823530674E0,1.110269737E1,1.567298889E0
2.019595904E1,2.935993433E0,1.119123173E1,8.279166222E-1
2.021262570E1,2.744567633E0,1.143529987E1,1.452443361E0
2.022929237E1,3.110669374E0,1.149272728E1,1.493121386E0
2.024595904E1,2.268395901E0,1.030349445E1,1.890329868E-1
2.026262570E1,1.198804140E0,9.743574142E0,1.782652855E0
2.027929237E1,1.304088354E0,1.091605663E1,2.983849764E0
2.029595904E1,1.361516118E0,1.139462185E1,3.232703447E0
2.031262570E1,9.260223508E-1,1.137069321E1,2.828316450E0
2.032929237E1,5.383850932E-1,1.067677498E1,2.366501570E0
2.034595903E1,2.440679073E-1,1.025324535E1,1.763510346E0
2.036262570E1,1.316052526E-1,9.994820595E0,1.464407444E0
2.037929236E1,5.958128572E-1,9.779465675E0,1.689332843E0
2.039595903E1,9.858429432E-1,9.564111710E0,1.722832322E0
2.041262570E1,9.092726111E-1,9.195617676E0,1.170090318E0
2.042929236E1,2.297109663E-1,8.537590981E0,5.192425251E-1
2.044595903E1,-4.378865361E-1,8.264809608E0,2.081755698E-1
2.046262570E1,-9.020941257E-1,8.755337715E0,9.834501147E-1
2.047929236E1,-9.068797827E-1,9.719645500E0,1.806581140E0
2.049595903E1,-1.076770186E0,1.104766178E1,1.978864312E0
2.051262569E1,-8.709874153E-1,1.204786205E1,2.244467735E0
2.052929236E1,-5.575276613E-1,1.228714466E1,1.919043779E0
2.054595903E1,-5.407779217E-1,1.173918819E1,1.349551916E0
2.056262569E1,-8.685946465E-1,1.062652493E1,1.138983607E0
2.057929236E1,-1.306481123E0,9.686145782E0,8.446664214E-1
2.059595902E1,-1.574477315E0,9.265008926E0,8.997012973E-1
2.061262569E1,-1.622333765E0,9.466006279E0,9.882357717E-1
2.062929236E1,-1.617548108E0,9.817750931E0,8.685946465E-1
2.064595902E1,-1.737189293E0,1.017906761E1,5.575276613E-1
2.066262569E1,-1.581655741E0,1.040159988E1,6.819544435E-1
2.067929235E1,-1.471585870E0,9.882357597E0,1.198804140E0
2.069595902E1,-8.111668825E-1,9.303294182E0,9.738788009E-1
2.071262569E1,-1.000199914E0,8.757730484E0,-7.752745152E-1
2.072929235E1,-1.294517040E0,9.142974854E0,-7.896314859E-1
2.074595902E1,-2.608176768E-1,9.219545364E0,1.730010748E0
2.076262568E1,1.351944804E0,7.231110096E0,3.177668571E0
2.077929235E1,9.092725813E-2,4.898108006E0,2.483749866E0
2.079595902E1,-4.378865361E-1,5.185246468E0,2.569891453E0
2.081262568E1,-7.920243144E-1,6.910471916E0,2.299502611E0
2.082929235E1,-1.564906001E0,7.554141045E0,1.976471543E0
2.084595901E1,-2.531606436E0,7.267002583E0,2.124826431E0
2.086262568E1,-2.177468538E0,7.066005230E0,2.215753794E0
2.087929234E1,-1.950150490E0,6.360122681E0,1.777867198E0
2.089595901E1,-1.887937069E0,6.759724140E0,2.287538528E0
2.091262568E1,-1.617548108E0,7.204789162E0,2.115255117E0
2.092929234E1,-1.014556766E0,6.525227547E0,1.986042738E0
2.094595901E1,-4.594219327E-1,6.226124287E0,1.942971945E0
2.096262568E1,-5.886343718E-1,5.608776093E0,1.859223247E0
2.097929234E1,-1.215553880E0,5.592026711E0,1.182054400E0
2.099595901E1,-1.064806104E0,6.484549522E0,1.031306505E0
2.101262567E1,-6.221339107E-1,7.467999458E0,5.024927258E-1
2.102929234E1,1.220339537E-1,8.920442581E0,3.828516230E-2
2.104595900E1,1.165304661E0,1.036092186E1,5.264209956E-2
2.106262567E1,1.995614052E0,1.222493076E1,8.183453679E-1
2.107929234E1,2.132004976E0,1.314377499E1,9.762716293E-1
2.109595900E1,1.395015597E0,1.229432297E1,7.010970116E-1
2.111262567E1,1.292124271E0,1.106680489E1,-1.722832322E-1
2.112929234E1,9.020941257E-1,1.055713367E1,-2.895315289E-1
2.114595900E1,1.036092162E0,1.090170002E1,8.614161611E-1
2.116262567E1,1.605584025E0,1.258146191E1,5.407779217E-1
2.117929233E1,2.404786825E0,1.439761353E1,4.570291340E-1
2.119595900E1,2.629712105E0,1.479003716E1,3.732803464E-1
2.121262566E1,1.093519926E0,1.313181114E1,1.926222205E0
2.122929233E1,1.036092162E0,1.215793228E1,2.421536446E0
2.124595900E1,1.000199914E0,1.139222908E1,2.737389088E0
2.126262566E1,8.925228715E-1,1.092084217E1,1.964507341E0
2.127929233E1,2.799602449E-1,1.081316566E1,2.122433662E0
2.129595900E1,4.809573591E-1,1.088495064E1,1.895115495E0
2.131262566E1,8.733802438E-1,1.003071213E1,2.433500528E0
2.132929233E1,1.445264935E0,1.009053326E1,3.081955671E0
2.134595899E1,1.904686809E0,1.056909752E1,2.770888567E0
2.136262566E1,1.832902193E0,1.071266651E1,2.531606436E0
2.137929232E1,1.720439434E0,1.071745300E1,2.397608280E0
2.139595899E1,1.610369682E0,1.037049294E1,2.029113531E0
2.141262566E1,1.272981644E0,1.032502937E1,2.416750908E0
2.142929232E1,1.289731383E0,1.070788097E1,2.507678032E0
2.144595899E1,1.552941918E0,1.089452171E1,2.175075769E0
2.146262566E1,1.536192179E0,1.059541893E1,1.715653777E0
2.147929232E1,1.502692580E0,1.010010433E1,1.399801254E0
2.149595899E1,7.513462901E-1,9.719645500E0,1.344766378E0
2.151262565E1,1.722832322E-1,9.722038269E0,1.050449133E0
2.152929232E1,-4.546363056E-1,1.022213840E1,1.217946768E0
2.154595899E1,-9.332008362E-1,1.079880905E1,9.379864931E-1
2.156262565E1,-1.493121386E0,1.143529987E1,8.997012973E-1
2.157929232E1,-2.577069998E0,1.142812061E1,4.019941986E-1
2.159595898E1,-3.019742250E0,1.190668583E1,6.580262184E-1
2.161262565E1,-2.560320139E0,1.284227943E1,1.081555843E0
2.162929232E1,-1.607976794E0,1.303370476E1,9.523434043E-1
2.164595898E1,-2.416750938E-1,1.227996540E1,1.914258152E-1
2.166262565E1,4.211367965E-1,1.124387360E1,-1.794617027E-1
2.167929231E1,4.618147612E-1,9.868000984E0,1.651047617E-1
2.169595898E1,1.842473447E-1,9.020941734E0,4.402793646E-1
2.171262565E1,-1.435693622E0,9.736394882E0,-2.660818815E0
2.172929231E1,-1.871187329E0,1.042552853E1,1.698904037E-1
2.174595898E1,-9.379864931E-1,7.850851059E0,2.261217356E0
2.176262564E1,7.776673436E-1,4.508078098E0,2.955136061E0
2.177929231E1,-4.187439680E-1,2.902493954E0,2.053041935E0
2.179595898E1,-8.350951076E-1,4.737788677E0,1.028913736E0
2.181262564E1,-1.313659668E0,6.029912949E0,1.438086390E0
2.182929231E1,-1.914258122E0,5.536991596E0,1.909472466E0
2.184595897E1,-2.928814888E0,6.034698486E0,5.431707501E-1
2.186262564E1,-2.691925526E0,6.108876228E0,1.311266780E0
2.187929230E1,-2.416750908E0,5.888736725E0,1.612762451E0
2.189595897E1,-2.773281336E0,5.886343479E0,1.323230863E0
2.191262564E1,-3.302095175E0,5.867201328E0,1.617548108E0
2.192929230E1,-3.251846075E0,6.281159401E0,1.529013634E0
2.194595897E1,-2.469393015E0,6.723831654E0,1.651047587E0
2.196262564E1,-2.086541414E0,7.056434155E0,9.403793216E-1
2.197929230E1,-1.718046665E0,7.269395351E0,1.244267821E0
2.199595897E1,-1.249053478E0,7.635497093E0,9.786644578E-1
2.201262563E1,-9.188438654E-1,8.563912392E0,9.619147182E-1
2.202929230E1,-3.493520916E-1,1.013838959E1,5.886343718E-1
2.204595896E1,4.953143001E-1,1.227517986E1,1.194018483E0
2.206262563E1,7.178468108E-1,1.342852020E1,9.667003751E-1
2.207929230E1,4.187439680E-1,1.360080433E1,9.571290612E-1
2.209595896E1,-2.129612118E-1,1.186122227E1,1.670190215E0
2.211262563E1,-3.278166950E-1,9.863214493E0,1.526620865E0
2.212929230E1,-4.259224236E-1,9.013762474E0,1.411765337E0
2.214595896E1,1.459621787E-1,9.707681656E0,1.019342422E0
2.216262563E1,6.364908218E-1,1.079641533E1,8.973084688E-1
2.217929229E1,3.876372576E-1,1.144008541E1,1.117448211E0
2.219595896E1,-2.273181528E-1,1.160519028E1,1.296909928E0
2.221262562E1,-6.101697683E-1,1.176311588E1,1.459621787E0
2.222929229E1,5.503492057E-2,1.252164078E1,1.605584025E0
2.224595896E1,7.944171429E-1,1.204546928E1,1.852044702E0
2.226262562E1,1.170090318E0,1.064806080E1,1.880758643E0
2.227929229E1,1.875972986E0,1.008335495E1,1.988435626E0
2.229595896E1,2.813959360E0,1.025803089E1,1.727617979E0
2.231262562E1,3.029313564E0,1.001156998E1,2.045863390E0
2.232929229E1,3.127419233E0,9.877572060E0,2.158325911E0
2.234595895E1,2.919243574E0,9.956535339E0,2.222932339E0
2.236262562E1,2.407179594E0,1.020778179E1,1.387837172E0
2.237929229E1,2.017149448E0,1.016949654E1,2.050648928E0
2.239595895E1,1.641476393E0,1.007139015E1,2.072184324E0
2.241262562E1,1.588834286E0,9.966106415E0,1.832902193E0
2.242929228E1,1.605584025E0,9.870393753E0,1.694118381E0
2.244595895E1,9.595218897E-1,9.621540070E0,1.942971945E0
2.246262562E1,8.853443861E-1,9.616754532E0,1.849651933E0
2.247929228E1,5.575276613E-1,9.611968994E0,1.873580098E0
2.249595895E1,-3.708875179E-1,9.463613510E0,1.450050473E0
2.251262561E1,-1.251446247E0,9.803394318E0,1.167697430E0
2.252929228E1,-1.603191137E0,1.050449181E1,1.347159147E0
2.254595895E1,-2.014756680E0,1.107159042E1,1.447657704E0
2.256262561E1,-2.536391973E0,1.138744259E1,6.580262184E-1
2.257929228E1,-3.053241730E0,1.188036442E1,9.140582681E-1
2.259595894E1,-2.545963287E0,1.204546928E1,1.294517040E0
2.261262561E1,-1.942971945E0,1.126540947E1,1.299302697E0
2.262929228E1,-1.581655741E0,1.079402256E1,8.566305041E-1
2.264595894E1,-1.509871125E0,9.992427826E0,7.968099117E-1
2.266262561E1,-1.464407444E0,9.595218658E0,8.279166222E-1
2.267929227E1,-1.251446247E0,9.243474007E0,1.548156261E0
2.269595894E1,-8.494520187E-1,8.676374435E0,-2.153540403E-2
2.271262561E1,-1.555334687E0,8.472985268E0,-3.653840065E0
2.272929227E1,-2.050648928E0,1.036092186E1,-6.604190469E-1
2.274595894E1,-2.416750938E-1,1.022692394E1,2.644068956E0
2.276262560E1,7.274180651E-1,5.422136307E0,2.557927370E0
2.277929227E1,6.652047038E-1,2.775674343E0,2.189432621E0
2.279595894E1,6.795616150E-1,4.634897232E0,1.337587833E0
2.281262560E1,1.435693651E-1,6.809973240E0,1.186840057E0
2.282929227E1,-1.100698411E-1,6.821937561E0,2.222932339E0
2.284595893E1,-3.110669553E-1,6.573083878E0,2.041077614E0
2.286262560E1,-9.834501147E-1,6.151947021E0,1.761117458E0
2.287929226E1,-1.289731383E0,6.472585201E0,2.309073925E0
2.289595893E1,-2.306680918E0,6.845865726E0,2.261217356E0
2.291262560E1,-2.670390129E0,6.721438885E0,2.352144718E0
2.292929226E1,-1.911865234E0,6.620940208E0,2.050648928E0
2.294595893E1,-1.524227977E0,6.826723099E0,1.588834286E0
2.296262560E1,-1.148554921E0,7.082755089E0,1.868794441E0
2.297929226E1,-1.004985452E0,7.494320393E0,1.962114573E0
2.299595893E1,-7.274180651E-1,8.039883614E0,9.667003751E-1
2.301262559E1,-1.722832322E-1,8.879764557E0,6.364908218E-1
2.302929226E1,2.201396823E-1,1.028913784E1,4.881358147E-1
2.304595892E1,4.043870270E-1,1.161954689E1,2.919243574E-1
2.306262559E1,6.197410822E-1,1.313659668E1,9.906286001E-1
2.307929226E1,5.742774606E-1,1.342852020E1,1.201196909E0
2.309595892E1,8.135596663E-2,1.242114258E1,9.451649189E-1
2.311262559E1,-5.024927482E-2,1.124865913E1,1.249053478E0
2.312929226E1,1.962114573E-1,1.068873882E1,1.261017561E0
2.314595892E1,3.852444589E-1,1.099741268E1,2.967100143E-1
2.316262559E1,3.684946895E-1,1.067438221E1,7.345965505E-1
2.317929225E1,2.775674164E-1,1.057149029E1,6.723831892E-1
2.319595892E1,7.322037220E-1,1.079880905E1,1.129412293E0
2.321262558E1,1.093519926E0,1.105723381E1,1.540977836E0
2.322929225E1,1.615155339E0,1.174158096E1,1.966900229E0
2.324595892E1,2.376072884E0,1.276570892E1,1.940579176E0
2.326262558E1,2.866601467E0,1.313659668E1,1.926222205E0
2.327929225E1,2.988635540E0,1.173200989E1,2.117648125E0
2.329595892E1,3.287738323E0,1.070309544E1,2.352144718E0
2.331262558E1,3.005385160E0,1.058824062E1,2.268395901E0
2.332929225E1,2.261217356E0,1.052841949E1,2.239681959E0
2.334595891E1,1.481157184E0,1.061695385E1,1.911865234E0
2.336262558E1,9.690931439E-1,1.037767220E1,1.651047587E0
2.337929225E1,-2.153540403E-2,9.643074989E0,1.897508383E0
2.339595891E1,-3.062812984E-1,9.631111145E0,1.698904037E0
2.341262558E1,-8.374879509E-2,9.908679008E0,1.529013634E0
2.342929224E1,2.751746178E-1,1.020538902E1,1.457229018E0
2.344595891E1,7.274180651E-1,1.040159988E1,1.495514154E0
2.346262558E1,6.221338734E-2,1.037527943E1,1.347159147E0
2.347929224E1,-4.546363056E-1,1.030588722E1,9.451649189E-1
2.349595891E1,-9.355936646E-1,1.023170948E1,7.465606928E-1
2.351262557E1,-1.122233868E0,1.051645565E1,1.239482164E0
2.352929224E1,-1.753939033E0,1.105005455E1,3.421736360E-1
2.354595891E1,-2.538784742E0,1.174875927E1,5.575276613E-1
2.356262557E1,-3.043670416E0,1.183490086E1,4.953143001E-1
2.357929224E1,-2.790031195E0,1.183490086E1,2.368894368E-1
2.359595890E1,-2.701496840E0,1.151426220E1,-9.810572863E-2
2.361262557E1,-2.045863390E0,1.105005455E1,-5.359922647E-1
2.362929224E1,-1.098305583E0,1.067677498E1,-9.619147182E-1
2.364595890E1,-2.679961324E-1,1.019342422E1,-8.159525394E-1
2.366262557E1,2.512463629E-1,9.253045082E0,-2.201396823E-1
2.367929223E1,8.853443712E-2,8.461020470E0,-1.186840057E0
2.369595890E1,-1.131805062E0,9.145368576E0,-2.517249346E0
2.371262556E1,-1.797009826E0,1.042792130E1,4.785645287E-3
2.372929223E1,-6.675975323E-1,8.719446182E0,1.275374413E0
2.374595890E1,2.033899277E-1,5.426921844E0,3.031706333E0
2.376262556E1,3.613162339E-1,4.256831646E0,1.624726534E0
2.377929223E1,-4.259224236E-1,5.060820103E0,6.053841114E-1
2.379595890E1,-2.081755698E-1,5.201996326E0,2.124826431E0
2.381262556E1,-6.340979934E-1,5.321637630E0,2.009970903E0
2.382929223E1,-1.069591761E0,5.682953835E0,1.466800332E0
2.384595889E1,-1.141376376E0,6.448657036E0,1.880758643E0
2.386262556E1,-1.801795483E0,6.647261143E0,1.138983607E0
2.387929222E1,-1.454836130E0,7.281359196E0,1.861616015E0
2.389595889E1,-1.459621787E0,6.786045074E0,1.323230863E0
2.391262556E1,-1.359123230E0,6.611369133E0,1.641476393E0
2.392929222E1,-7.058826685E-1,6.704689026E0,1.995614052E0
2.394595889E1,-7.154539824E-1,6.652047157E0,1.332802176E0
2.396262556E1,-7.800601721E-1,6.991827965E0,8.542376757E-1
2.397929222E1,-5.072783828E-1,7.884350777E0,8.494520187E-1
2.399595889E1,-5.694918036E-1,9.408578873E0,1.124626622E-1
2.401262555E1,-3.373879790E-1,1.142094231E1,1.205982566E0
2.402929222E1,7.896314561E-2,1.272981644E1,1.143769264E0
2.404595888E1,6.460621357E-1,1.292124271E1,1.208375454E0
2.406262555E1,1.320838094E0,1.262931824E1,1.117448211E0
2.407929222E1,1.313659668E0,1.207657623E1,1.045663476E0
2.409595888E1,1.105484009E0,1.179900837E1,1.119840980E0
2.411262555E1,9.140582681E-1,1.126301575E1,1.409372568E0
2.412929222E1,6.317051649E-1,1.083230782E1,1.490728498E0
2.414595888E1,8.374879509E-2,1.051167011E1,2.175075769E0
2.416262555E1,-9.092725813E-2,1.083230782E1,2.237289190E0
2.417929221E1,3.732803464E-1,1.172722340E1,1.730010748E0
2.419595888E1,4.259224236E-1,1.231346512E1,1.172483087E0
2.421262554E1,-1.435693540E-2,1.222253799E1,1.617548108E0
2.422929221E1,2.297109663E-1,1.129890823E1,1.464407444E0
2.424595888E1,6.675975323E-1,9.719645500E0,2.093719721E0
2.426262554E1,1.129412293E0,8.231309891E0,2.263610125E0
2.427929221E1,1.366301775E0,8.800801277E0,2.541177750E0
2.429595888E1,1.438086390E0,1.044945621E1,2.507678032E0
2.431262554E1,1.562513232E0,1.080598736E1,2.036292076E0
2.432929221E1,1.624726534E0,1.036092186E1,2.084148407E0
2.434595887E1,1.880758643E0,9.554540634E0,2.239681959E0
2.436262554E1,2.428714991E0,9.154939651E0,2.244467735E0
2.437929221E1,2.900100946E0,9.767501831E0,2.581855536E0
2.439595887E1,3.175275564E0,1.081555843E1,2.213361025E0
2.441262554E1,3.340380430E0,1.129412270E1,1.813759565E0
2.442929220E1,3.120240688E0,1.135155106E1,1.636690736E0
2.444595887E1,2.378465652E0,1.130848026E1,1.337587833E0
2.446262554E1,5.312066078E-1,1.032742214E1,1.890329838E0
2.447929220E1,-2.727817893E-1,9.836894035E0,1.610369682E0
2.449595887E1,-6.053841114E-1,1.032981491E1,2.055434704E0
2.451262553E1,-9.188438654E-1,9.961320877E0,2.120040894E0
2.452929220E1,-1.016949654E0,9.724431038E0,1.655833244E0
2.454595887E1,-1.227517962E0,9.937392235E0,2.230110645E0
2.456262553E1,-1.560120344E0,1.003071213E1,1.964507341E0
2.457929220E1,-1.732403636E0,1.122951698E1,1.567298889E0
2.459595886E1,-1.548156261E0,1.127737331E1,1.038485050E0
2.461262553E1,-1.469193101E0,1.081555843E1,1.201196909E0
2.462929220E1,-1.038485050E0,1.023888779E1,1.751546144E0
2.464595886E1,-6.460621357E-1,1.010249710E1,1.871187329E0
2.466262553E1,-2.823530734E-1,9.626325607E0,1.452443361E0
2.467929219E1,-1.048056364E0,8.982656479E0,1.028913707E-1
2.469595886E1,-2.141576290E0,8.520841599E0,2.512463629E-1
2.471262552E1,-1.658226132E0,7.099504948E0,2.230110645E0
2.472929219E1,-1.284945726E0,4.426722050E0,2.500499725E0
2.474595886E1,-1.220339537E0,3.517449379E0,2.041077614E0
2.476262552E1,-1.284945726E0,6.226124287E0,2.041077614E0
2.477929219E1,-8.709874153E-1,8.111668587E0,1.715653777E0
2.479595886E1,-7.106683254E-1,7.668996811E0,2.447857618E0
2.481262552E1,-1.170090318E0,6.367300987E0,2.261217356E0
2.482929219E1,-1.651047587E0,5.608776093E0,2.081755638E0
2.484595885E1,-1.466800332E0,5.757131100E0,2.352144718E0
2.486262552E1,-1.744367719E0,6.556334019E0,2.024327993E0
2.487929218E1,-1.739582062E0,7.161718369E0,1.947757602E0
2.489595885E1,-2.084148407E0,7.745566845E0,1.356730461E0
2.491262552E1,-2.184647083E0,7.984848976E0,2.108076811E0
2.492929218E1,-1.854437590E0,8.023134232E0,1.591227055E0
2.494595885E1,-1.196411371E0,8.137989998E0,1.502692580E0
2.496262552E1,-6.484549642E-1,7.752745152E0,1.347159147E0
2.497929218E1,-4.785645381E-2,7.575676441E0,8.159525394E-1
2.499595885E1,1.746760458E-1,7.728816986E0,1.112662554E0
2.501262551E1,9.810572863E-1,9.504291534E0,1.198804140E0
2.502929218E1,1.739582062E0,1.136830044E1,1.411765337E0
2.504595884E1,1.524227977E0,1.177747345E1,1.801795483E0
2.506262551E1,7.226324677E-1,1.162193966E1,1.674975872E0
2.507929218E1,3.637090325E-1,1.151904774E1,1.591227055E0
2.509595884E1,1.361516118E0,1.161954689E1,1.167697430E0
2.511262551E1,1.167697430E0,1.145204926E1,1.361516118E0
2.512929218E1,1.146162033E0,1.176311588E1,1.612762451E0
2.514595884E1,7.800601721E-1,1.193779182E1,1.730010748E0
2.516262551E1,8.566305041E-1,1.230150127E1,1.782652855E0
2.517929217E1,8.255237937E-1,1.216989613E1,2.100898266E0
2.519595884E1,8.398807645E-1,1.197129154E1,2.301895380E0
2.521262551E1,1.112662554E0,1.173679543E1,2.785245657E0
2.522929217E1,1.423729420E0,1.183968639E1,2.751745939E0
2.524595884E1,1.741974831E0,1.161954689E1,3.072384357E0
2.526262550E1,1.998006940E0,1.099741268E1,2.723032236E0
2.527929217E1,2.045863390E0,1.038485050E1,2.600998163E0
2.529595884E1,2.208575249E0,1.026042366E1,2.299502611E0
2.531262550E1,1.962114573E0,9.688538551E0,1.397408366E0
2.532929217E1,1.557727575E0,8.595019341E0,8.015955687E-1
2.534595883E1,1.507478237E0,7.965706348E0,1.842473388E0
2.536262550E1,2.239681959E0,7.932207108E0,2.670390129E0
2.537929217E1,2.507678032E0,8.195417404E0,2.043470621E0
2.539595883E1,2.474178553E0,9.073583603E0,1.490728498E0
2.541262550E1,2.091326952E0,9.870393753E0,1.440479279E0
2.542929216E1,1.229910851E0,1.024845982E1,1.490728498E0
2.544595883E1,1.220339537E-1,1.011924744E1,1.684547186E0
2.546262550E1,-7.322037220E-1,1.018624592E1,1.789831281E0
2.547929216E1,-1.351944804E0,1.059063339E1,1.694118381E0
2.549595883E1,-1.481157184E0,1.111226845E1,1.852044702E0
2.551262549E1,-1.536192179E0,1.203350544E1,1.665404558E0
2.552929216E1,-1.698904037E0,1.265324593E1,2.076970100E0
2.554595883E1,-1.756331801E0,1.258624744E1,1.399801254E0
2.556262549E1,-1.686939955E0,1.251446247E1,5.790630579E-1
2.557929216E1,-1.062413216E0,1.184207916E1,6.125625968E-1
2.559595882E1,-6.340979934E-1,1.047099209E1,6.029912829E-1
2.561262549E1,-3.661018610E-1,9.568898201E0,7.848458290E-1
2.562929216E1,3.780659735E-1,9.018548965E0,1.009771109E0
2.564595882E1,3.924229145E-1,8.915657043E0,8.949156404E-1
2.566262549E1,1.627119333E-1,9.513862610E0,5.766702294E-1
2.567929215E1,-1.435693540E-2,9.461220741E0,1.246660590E0
2.569595882E1,2.153540403E-2,7.685746193E0,1.033699393E0
2.571262548E1,-7.178467698E-3,5.388636589E0,2.347358942E0
2.572929215E1,-2.225325108E-1,4.302295208E0,2.337787628E0
2.574595882E1,-4.115654826E-1,4.862215519E0,2.093719721E0
2.576262548E1,-7.058826685E-1,5.639883041E0,1.887937069E0
2.577929215E1,-1.150947690E0,5.381458282E0,2.120040894E0
2.579595882E1,-1.560120344E0,4.953142643E0,2.371287346E0
2.581262548E1,-1.658226132E0,5.637490273E0,1.820937991E0
2.582929215E1,-1.138983607E0,6.410371780E0,2.115255117E0
2.584595881E1,-9.906286001E-1,6.690331936E0,1.775474429E0
2.586262548E1,-1.213161111E0,6.967899323E0,1.844866276E0
2.587929214E1,-1.375872970E0,6.929614544E0,1.720439434E0
2.589595881E1,-1.304088354E0,7.130611420E0,1.524227977E0
2.591262548E1,-1.045663476E0,7.611568928E0,1.416550994E0
2.592929214E1,-5.982056856E-1,8.161917686E0,8.662018180E-1
2.594595881E1,-8.135596663E-2,8.824729919E0,1.138983607E0
2.596262548E1,4.977070987E-1,1.022931671E1,7.298108935E-1
2.597929214E1,1.380658627E0,1.161476135E1,5.958128572E-1
2.599595881E1,1.500299811E0,1.246899891E1,1.067198873E0
2.601262547E1,8.542376757E-1,1.194018459E1,1.048056364E0
2.602929214E1,4.522434771E-1,1.138026428E1,1.521835208E0
2.604595880E1,8.039883971E-1,1.108833981E1,8.422735929E-1
2.606262547E1,1.323230863E0,1.122951698E1,1.648654819E0
2.607929214E1,1.351944804E0,1.175115204E1,1.741974831E0
2.609595880E1,1.624726534E0,1.231346512E1,2.057827473E0
2.611262547E1,1.538584948E0,1.246899891E1,2.196611166E0
2.612929214E1,1.124626637E0,1.197607708E1,2.333002090E0
2.614595880E1,3.708875179E-1,1.106201935E1,2.447857618E0
2.616262547E1,-2.703889608E-1,1.085145092E1,2.268395901E0
2.617929213E1,3.613162339E-1,1.140180016E1,2.309073925E0
2.619595880E1,1.732403636E0,1.178465176E1,2.868994236E0
2.621262547E1,2.100898266E0,1.106441212E1,2.677568436E0
2.622929213E1,1.974078655E0,1.074138069E1,2.313859463E0
2.624595880E1,1.938186288E0,1.073420238E1,1.777867198E0
2.626262546E1,1.519442320E0,1.031067276E1,1.478764415E0
2.627929213E1,5.958128572E-1,1.018385315E1,2.007578135E0
2.629595880E1,1.124626622E-1,9.702896118E0,2.749353170E0
2.631262546E1,3.182454109E-1,9.454042435E0,2.292324066E0
2.632929213E1,7.322037220E-1,9.442078590E0,1.844866276E0
2.634595879E1,1.574477315E0,9.863214493E0,1.715653777E0
2.636262546E1,1.430907965E0,1.020299530E1,2.002792597E0
2.637929213E1,1.194018483E0,1.077966595E1,1.789831281E0
2.639595879E1,7.417750359E-1,1.098066330E1,1.411765337E0
2.641262546E1,6.077769399E-1,1.110030460E1,9.882357717E-1
2.642929212E1,2.153540403E-1,1.066720295E1,1.198804140E0
2.644595879E1,-2.703889608E-1,1.018146038E1,9.236295223E-1
2.646262546E1,-6.819544435E-1,1.055952644E1,8.757730722E-1
2.647929212E1,-9.427721500E-1,1.142812061E1,1.131805062E0
2.649595879E1,-6.628118753E-1,1.210768223E1,1.383051515E0
2.651262545E1,-6.221339107E-1,1.273938751E1,9.212366939E-1
2.652929212E1,-8.518448472E-1,1.206939697E1,5.982056856E-1
2.654595879E1,-1.540977836E0,1.109791183E1,4.019941986E-1
2.656262545E1,-1.818545222E0,1.073898792E1,6.675975323E-1
2.657929212E1,-1.232303619E0,1.100937653E1,-2.632105052E-1
2.659595878E1,-1.840080619E0,1.062652493E1,-6.580262184E-1
2.661262545E1,-1.177268744E0,9.511469841E0,-8.183453679E-1
2.662929212E1,-8.757730722E-1,7.211967468E0,5.886343718E-1
2.664595878E1,2.297109663E-1,4.876572609E0,2.246860504E0
2.666262545E1,6.484549642E-1,3.907479286E0,1.727617979E0
2.667929211E1,5.886343718E-1,5.584847927E0,2.031506538E0
2.669595878E1,9.499505758E-1,6.123233318E0,1.785045743E0
2.671262544E1,2.057827413E-1,5.788238049E0,1.840080619E0
2.672929211E1,-6.221338734E-2,4.560719967E0,2.663211584E0
2.674595878E1,-1.339980721E0,4.668396950E0,2.146361828E0
2.676262544E1,-2.368894339E0,5.302495003E0,1.473978758E0
2.677929211E1,-2.055434704E0,7.305287361E0,1.785045743E0
2.679595878E1,-1.524227977E0,8.252845764E0,1.648654819E0
2.681262544E1,-1.012163997E0,8.772088051E0,1.478764415E0
2.682929211E1,-9.403793216E-1,8.858229637E0,1.952543259E0
2.684595877E1,-1.131805062E0,8.279166222E0,1.158126116E0
2.686262544E1,-7.489534616E-1,8.001599312E0,1.220339537E0
2.687929210E1,-4.833501875E-1,7.992027760E0,1.308874011E0
2.689595877E1,-5.000999570E-1,8.169096947E0,9.834501147E-1
2.691262544E1,-5.335994363E-1,8.221738815E0,9.523434043E-1
2.692929210E1,-9.092725813E-2,8.817551613E0,5.718846321E-1
2.694595877E1,4.929214716E-1,9.906285286E0,6.939185858E-1
2.696262544E1,5.312066078E-1,1.094716358E1,1.445264935E0
2.697929210E1,5.790630579E-1,1.202393341E1,9.882357717E-1
2.699595877E1,1.272981644E0,1.298106289E1,9.427721500E-1
2.701262543E1,1.194018483E0,1.288056469E1,1.371087432E0
2.702929210E1,7.657032609E-1,1.211246777E1,1.873580098E0
2.704595876E1,1.076770201E-1,1.138265705E1,2.100898266E0
2.706262543E1,5.814558864E-1,1.174397373E1,1.150947690E0
2.707929210E1,7.752745152E-1,1.176550865E1,1.466800332E0
2.709595876E1,9.332008362E-1,1.185643578E1,2.435893536E0
2.711262543E1,1.048056364E0,1.199282742E1,2.493321180E0
2.712929210E1,1.172483087E0,1.169372463E1,2.600998163E0
2.714595876E1,1.751546144E0,1.086102200E1,2.589034081E0
2.716262543E1,1.780260086E0,9.473184586E0,2.533999205E0
2.717929209E1,1.397408366E0,9.030512810E0,2.134397745E0
2.719595876E1,1.170090318E0,9.901499748E0,1.730010748E0
2.721262543E1,1.103091240E0,9.937392235E0,1.710868239E0
2.722929209E1,1.354337573E0,9.846465111E0,1.909472466E0
2.724595876E1,1.538584948E0,9.822537422E0,1.545763373E0
2.726262542E1,2.012363911E0,9.968499184E0,1.684547186E0
2.727929209E1,2.419143677E0,1.011446095E1,2.505285263E0
2.729595876E1,2.555534601E0,1.028913784E1,2.450250387E0
2.731262542E1,2.155933142E0,1.023170948E1,2.354537487E0
2.732929209E1,1.440479279E0,1.033699417E1,1.998006940E0
2.734595875E1,6.077769399E-1,1.017906761E1,1.414158225E0
2.736262542E1,2.033899277E-1,9.942177773E0,1.014556766E0
2.737929209E1,-3.972085714E-1,1.015035343E1,6.197410822E-1
2.739595875E1,-9.451649189E-1,1.046859932E1,1.165304661E0
2.741262542E1,-9.355936646E-1,1.107398319E1,1.502692580E0
2.742929208E1,-5.790630579E-1,1.177029419E1,1.280160069E0
2.744595875E1,-3.445664644E-1,1.209093285E1,1.502692580E0
2.746262542E1,-1.866401732E-1,1.247378445E1,1.517049551E0
2.747929208E1,-4.211367965E-1,1.218664551E1,1.196411371E0
2.749595875E1,-8.781659007E-1,1.113619614E1,1.928615093E0
2.751262541E1,-1.308874011E0,1.070070267E1,1.947757602E0
2.752929208E1,-9.786644578E-1,1.047817039E1,1.689332843E0
2.754595874E1,-5.862415433E-1,9.324830055E0,3.517449200E-1
2.756262541E1,-8.111668825E-1,8.709874153E0,-1.186840057E0
2.757929208E1,-3.565305769E-1,9.650253296E0,-3.972085714E-1
2.759595874E1,3.158525825E-1,1.194736385E1,-1.100698411E-1
2.761262541E1,1.787438512E0,1.204786205E1,1.112662554E0
2.762929208E1,3.766302824E0,7.953742504E0,2.806781054E0
2.764595874E1,3.383451223E0,3.785445452E0,3.019742250E0
2.766262541E1,2.249253273E0,1.971685886E0,1.856830359E0
2.767929207E1,1.440479279E0,2.809173822E0,1.323230863E0
2.769595874E1,-1.962114573E-1,4.132404804E0,9.667003751E-1
2.771262540E1,-7.154539824E-1,4.965106964E0,1.940579176E0
2.772929207E1,-1.430907965E0,5.910272121E0,2.024327993E0
2.774595874E1,-1.720439434E0,6.063412666E0,2.361716032E0
2.776262540E1,-2.124826431E0,6.360122681E0,2.531606436E0
2.777929207E1,-2.146361828E0,7.367500782E0,2.957528830E0
2.779595874E1,-2.041077614E0,8.154739380E0,2.857030153E0
2.781262540E1,-1.756331801E0,8.329415321E0,2.821137905E0
2.782929207E1,-1.756331801E0,7.910671711E0,2.021935225E0
2.784595873E1,-1.328016520E0,7.518248558E0,1.950150490E0
2.786262540E1,-1.390229940E0,7.094718933E0,1.244267821E0
2.787929206E1,-1.232303619E0,7.802994728E0,2.392822690E-2
2.789595873E1,-9.667003751E-1,9.492327690E0,7.441678643E-1
2.791262540E1,-9.643075466E-1,1.165543938E1,1.093519926E0
2.792929206E1,-4.546362907E-2,1.372044468E1,6.699903607E-1
2.794595873E1,9.858429432E-1,1.489771366E1,1.363908887E0
2.796262540E1,1.062413216E0,1.425643730E1,1.718046665E0
2.797929206E1,4.307080805E-1,1.203589821E1,2.311466694E0
2.799595873E1,3.421736360E-1,9.990034103E0,2.366501570E0
2.801262539E1,5.048855543E-1,8.977870941E0,2.366501570E0
2.802929206E1,1.150947690E0,9.315258980E0,2.373680115E0
2.804595873E1,1.703689694E0,1.000678444E1,2.541177750E0
2.806262539E1,2.170290232E0,1.097109222E1,2.957528830E0
2.807929206E1,2.591426849E0,1.170329571E1,3.266202927E0
2.809595872E1,2.852244616E0,1.206939697E1,2.883351326E0
2.811262539E1,2.246860504E0,1.127019501E1,2.490928411E0
2.812929206E1,2.120040894E0,1.026760197E1,2.409572363E0
2.814595872E1,2.335394859E0,9.528220177E0,2.333002090E0
2.816262539E1,2.203789711E0,9.820143700E0,2.519642353E0
2.817929205E1,2.086541414E0,1.004028416E1,2.402393818E0
2.819595872E1,1.895115495E0,9.719645500E0,1.926222205E0
2.821262539E1,2.017149448E0,9.327222824E0,1.519442320E0
2.822929205E1,2.019542217E0,9.841679573E0,2.368894339E0
2.824595872E1,2.088934183E0,1.012642574E1,2.550748825E0
2.826262538E1,1.665404558E0,9.774680138E0,2.593819857E0
2.827929205E1,1.392622828E0,9.683753014E0,2.584248543E0
2.829595872E1,1.026520967E0,9.860821724E0,2.333002090E0
2.831262538E1,9.475577474E-1,1.035613632E1,2.136790514E0
2.832929205E1,9.930213690E-1,1.080359459E1,2.045863390E0
2.834595871E1,8.398807645E-1,1.083470058E1,1.923829436E0
2.836262538E1,3.182454109E-1,1.048056316E1,1.861616015E0
2.837929205E1,-1.938186288E-1,1.020778179E1,1.639083505E0
2.839595871E1,-8.327022791E-1,1.091127110E1,1.600798368E0
2.841262538E1,-1.552941918E0,1.172961617E1,1.471585870E0
2.842929204E1,-2.029113531E0,1.233978653E1,9.595218897E-1
2.844595871E1,-2.266003132E0,1.214118195E1,1.162911773E0
2.846262538E1,-1.545763373E0,1.220100307E1,1.598405480E0
2.847929204E1,-7.752745152E-1,1.148554897E1,1.359123230E0
2.849595871E1,-2.895315289E-1,1.073898792E1,9.260223508E-1
2.851262537E1,3.110669367E-2,9.657432556E0,9.858429432E-1
2.852929204E1,-4.785645306E-1,8.714659691E0,6.029912829E-1
2.854595870E1,-1.251446247E0,8.312665939E0,5.312066078E-1
2.856262537E1,-1.507478207E-1,7.518248558E0,2.242074728E0
2.857929204E1,-1.531406492E-1,4.754538536E0,2.792423964E0
2.859595870E1,-3.565305769E-1,2.868994236E0,2.438286304E0
2.861262537E1,-6.005984545E-1,3.991228104E0,1.280160069E0
2.862929204E1,-7.848458290E-1,6.963113785E0,1.773081541E0
2.864595870E1,-1.043270707E0,7.463213921E0,1.957328916E0
2.866262537E1,-1.670190215E0,6.364908218E0,2.342573404E0
2.867929203E1,-2.206182480E0,5.871986866E0,2.098505497E0
2.869595870E1,-1.988435626E0,6.230910301E0,1.840080619E0
2.871262536E1,-1.634297848E0,6.618547440E0,1.564906001E0
2.872929203E1,-1.536192179E0,7.467999458E0,1.667797327E0
2.874595870E1,-1.502692580E0,8.032705307E0,2.172683001E0
2.876262536E1,-1.550549030E0,8.020741463E0,2.079362869E0
2.877929203E1,-1.076770186E0,7.960920811E0,2.122433662E0
2.879595870E1,-5.479564071E-1,7.592426300E0,1.605584025E0
2.881262536E1,-4.546363056E-1,7.590033531E0,1.598405480E0
2.882929203E1,-3.493520916E-1,7.934599876E0,1.502692580E0
2.884595869E1,-8.135596663E-2,8.269595146E0,1.227517962E0
2.886262536E1,3.876372576E-1,8.982656479E0,1.390229940E0
2.887929202E1,6.723831892E-1,1.038006496E1,1.478764415E0
2.889595869E1,1.019342422E0,1.187318611E1,1.418943882E0
2.891262536E1,7.872386575E-1,1.195214939E1,1.493121386E0
2.892929202E1,9.643075466E-1,1.161476135E1,1.493121386E0
2.894595869E1,1.366301775E0,1.155254745E1,1.605584025E0
2.896262536E1,1.284945726E0,1.155972576E1,1.942971945E0
2.897929202E1,1.088734269E0,1.185882950E1,1.576870084E0
2.899595869E1,1.179661512E0,1.261256790E1,9.667003751E-1
2.901262535E1,1.122233868E0,1.273220921E1,1.502692580E0
2.902929202E1,9.978070259E-1,1.258864021E1,2.146361828E0
2.904595869E1,1.423729420E0,1.250728416E1,2.285145521E0
2.906262535E1,1.356730461E0,1.137308598E1,3.031706333E0
2.907929202E1,1.239482164E0,1.053320503E1,3.031706333E0
2.909595868E1,9.164510965E-1,1.018863869E1,2.854637384E0
2.911262535E1,1.057627559E0,1.013360405E1,2.392822742E0
2.912929202E1,1.325623751E0,9.784252167E0,2.201396942E0
2.914595868E1,1.727617979E0,9.317651749E0,1.909472466E0
2.916262535E1,1.993221283E0,8.934800148E0,1.557727575E0
2.917929201E1,2.167897224E0,8.879764557E0,1.306481123E0
2.919595868E1,2.538784742E0,9.198010445E0,1.634297848E0
2.921262535E1,2.845066071E0,9.611968994E0,2.797209740E0
2.922929201E1,3.005385160E0,9.753145218E0,2.785245657E0
2.924595868E1,2.517249346E0,9.623932838E0,2.450250387E0
2.926262534E1,1.966900229E0,9.276973724E0,2.067398787E0
2.927929201E1,1.280160069E0,9.375079155E0,1.737189293E0
2.929595868E1,7.633104324E-1,1.015274620E1,1.753939033E0
2.931262534E1,-2.871387079E-2,1.087298584E1,2.012363911E0
2.932929201E1,-5.144568682E-1,1.148315620E1,2.153540373E0
2.934595867E1,-1.009771109E0,1.178465176E1,1.634297848E0
2.936262534E1,-1.184447169E0,1.152622700E1,1.490728498E0
2.937929201E1,-8.829515576E-1,1.157886887E1,8.303094506E-1
2.939595867E1,-3.900300860E-1,1.169372463E1,9.978070259E-1
2.941262534E1,8.374879509E-2,1.155972576E1,1.115055323E0
2.942929200E1,-7.657032460E-2,1.126540947E1,1.301695466E0
2.944595867E1,-1.674975902E-1,1.107876873E1,1.339980721E0
2.946262534E1,-7.657032460E-2,1.061456108E1,1.674975872E0
2.947929200E1,-4.450650215E-1,9.999606133E0,2.404786825E0
2.949595867E1,-4.211367965E-1,9.588040352E0,2.703889608E0
2.951262533E1,-1.095912814E0,9.408578873E0,-7.417750359E-2
2.952929200E1,-1.813759565E0,9.968499184E0,-7.298108935E-1
2.954595866E1,-1.634297848E0,9.056833267E0,1.050449133E0
2.956262533E1,-5.288137794E-1,6.463014126E0,1.916650891E0
2.957929200E1,4.115654826E-1,3.239881754E0,2.916850805E0
2.959595866E1,2.297109663E-1,1.758724689E0,2.203789711E0
2.961262533E1,-4.498506486E-1,3.574877024E0,1.718046665E0
2.962929200E1,-1.258624673E0,5.087141037E0,2.132004976E0
2.964595866E1,-1.775474429E0,5.912664890E0,1.993221283E0
2.966262533E1,-2.132004976E0,6.453442574E0,1.974078655E0
2.967929199E1,-1.789831281E0,6.836294174E0,1.703689694E0
2.969595866E1,-1.275374413E0,6.290730953E0,2.050648928E0
2.971262532E1,-1.337587833E0,6.989434719E0,2.031506538E0
2.972929199E1,-2.282752752E0,7.805387497E0,1.564906001E0
2.974595866E1,-2.639283419E0,8.176275253E0,1.576870084E0
2.976262532E1,-1.646261930E0,8.580661774E0,2.218146563E0
2.977929199E1,-1.349551916E0,8.824729919E0,1.986042738E0
2.979595866E1,-1.385444283E0,9.059226990E0,1.880758643E0
2.981262532E1,-7.800601721E-1,8.628518105E0,1.071984529E0
2.982929199E1,-3.828516230E-2,8.484949112E0,2.919243574E-1
2.984595865E1,2.799602449E-1,8.468199730E0,1.052842021E0
2.986262532E1,1.531406522E0,1.044227791E1,9.355936646E-1
2.987929199E1,1.801795483E0,1.237567902E1,1.103091240E0
2.989595865E1,1.179661512E0,1.255753326E1,1.277767301E0
2.991262532E1,1.272981644E0,1.242832088E1,1.586441398E0
2.992929198E1,1.069591761E0,1.162911797E1,1.835294962E0
2.994595865E1,6.843472719E-1,1.055713367E1,1.854437590E0
2.996262532E1,6.963114142E-1,1.010967541E1,1.660618901E0
2.997929198E1,7.058826685E-1,1.033460140E1,1.574477315E0
2.999595865E1,8.350951076E-1,1.098784161E1,7.441678643E-1
3.001262531E1,1.313659668E0,1.181815147E1,1.462014675E0
3.002929198E1,1.799402595E0,1.242353535E1,2.280359983E0
3.004595865E1,1.890329838E0,1.231107235E1,2.797209740E0
3.006262531E1,1.574477315E0,1.131326580E1,2.507678032E0
3.007929198E1,1.564906001E0,1.054995537E1,1.904686809E0
3.009595864E1,1.904686809E0,1.121515942E1,1.964507341E0
3.011262531E1,2.179861546E0,1.119362450E1,2.333002090E0
3.012929198E1,1.899901152E0,9.657432556E0,2.187039852E0
3.014595864E1,1.603191137E0,8.843872070E0,1.777867198E0
3.016262531E1,1.777867198E0,8.886942863E0,1.406979680E0
3.017929197E1,1.902294040E0,9.013762474E0,1.399801254E0
3.019595864E1,2.277967215E0,9.236295700E0,2.242074728E0
3.021262531E1,2.294716835E0,9.131011009E0,2.861815929E0
3.022929197E1,2.148754835E0,9.233902931E0,2.457428932E0
3.024595864E1,2.155933142E0,9.853643417E0,1.995614052E0
3.026262530E1,1.555334687E0,1.052363396E1,2.007578135E0
3.027929197E1,9.068797827E-1,1.132283688E1,2.172683001E0
3.029595864E1,4.115654826E-1,1.152144146E1,1.938186288E0
3.031262530E1,-3.230310678E-1,1.167936707E1,1.780260086E0
3.032929197E1,-7.178468108E-1,1.252164078E1,1.406979680E0
3.034595863E1,-9.332008362E-1,1.243549919E1,1.591227055E0
3.036262530E1,-9.690931439E-1,1.230628681E1,1.036092162E0
3.037929196E1,-1.464407444E0,1.180618668E1,1.313659668E0
3.039595863E1,-1.775474429E0,1.123430252E1,1.000199914E0
3.041262530E1,-2.062613010E0,9.982855797E0,7.417750359E-1
3.042929196E1,-2.055434704E0,9.092725754E0,4.331009090E-1
3.044595863E1,-1.244267821E0,8.575876236E0,4.115654826E-1
3.046262530E1,4.019941986E-1,8.360522270E0,2.120040894E0
3.047929196E1,9.571290612E-1,8.185846329E0,1.505085468E0
3.049595863E1,6.939185858E-1,9.736394882E0,-7.010970116E-1
3.051262529E1,7.178468257E-2,1.209093285E1,-8.566305041E-1
3.052929196E1,-6.053841114E-1,1.171525955E1,7.513462901E-1
3.054595862E1,-9.786644578E-1,7.814958572E0,2.249253273E0
3.056262529E1,-1.323230863E0,4.721039295E0,1.665404558E0
3.057929196E1,-7.680960894E-1,5.795416355E0,2.402393818E0
3.059595862E1,-1.124626622E-1,7.432106972E0,2.421536446E0
3.061262529E1,-5.192425251E-1,7.920242786E0,2.005185366E0
3.062929196E1,-1.325623751E0,7.470392227E0,2.572284460E0
3.064595862E1,-1.873580098E0,6.900900364E0,2.230110645E0
3.066262529E1,-1.653440475E0,6.719046116E0,1.794616938E0
3.067929195E1,-1.086341500E0,7.118647575E0,1.825723648E0
3.069595862E1,-9.403793216E-1,7.386643410E0,1.892722726E0
3.071262528E1,-9.092726111E-1,6.460621357E0,1.294517040E0
3.072929195E1,-2.775674164E-1,5.795416355E0,1.689332843E0
3.074595862E1,2.799602449E-1,4.599005222E0,2.313859463E0
3.076262528E1,-2.297109663E-1,3.725624800E0,1.875972986E0
3.077929195E1,-9.260223508E-1,4.228117466E0,2.050648928E0
3.079595862E1,-1.529013634E0,5.735595703E0,2.050648928E0
3.081262528E1,-8.973084688E-1,8.475378036E0,1.758724689E0
3.082929195E1,2.632105052E-1,1.160040379E1,6.484549642E-1
3.084595861E1,1.282552958E0,1.557488251E1,1.081555843E0
3.086262528E1,1.426122308E0,1.765663910E1,1.265803218E0
3.087929195E1,7.657032460E-2,1.482114315E1,5.599204898E-1
3.089595861E1,1.363908947E-1,1.201196957E1,8.374879360E-1
3.091262528E1,-1.339980662E-1,9.891928673E0,1.584048629E0
3.092929194E1,-1.986042857E-1,9.073583603E0,1.622333765E0
3.094595861E1,-4.043870270E-1,9.418149948E0,1.629512191E0
3.096262528E1,-9.810572863E-2,1.123908806E1,2.050648928E0
3.097929194E1,2.847459018E-1,1.201914787E1,1.249053478E0
3.099595861E1,8.135596663E-2,1.146162033E1,1.610369682E0
3.101262527E1,1.722832322E-1,1.074377346E1,2.060220242E0
3.102929194E1,6.939185858E-1,1.040877819E1,2.191825628E0
3.104595861E1,1.770688772E0,1.047817039E1,1.974078655E0
3.106262527E1,2.251646042E0,1.034417248E1,2.009970903E0
3.107929194E1,3.203989506E0,1.068634605E1,1.615155339E0
3.109595860E1,3.833301783E0,1.072463131E1,1.134197950E0
3.111262527E1,3.706482172E0,1.012403297E1,9.140582681E-1
3.112929194E1,3.629911900E0,9.384650230E0,1.201196909E0
3.114595860E1,3.079562664E0,8.683553696E0,1.892722726E0
3.116262527E1,3.062813044E0,8.927620888E0,1.634297848E0
3.117929193E1,2.986242771E0,9.920642853E0,1.225125194E0
3.119595860E1,1.837687731E0,1.040159988E1,2.132004976E0
3.121262527E1,1.256231904E0,1.029870892E1,1.801795483E0
3.122929193E1,4.785645306E-1,9.659825325E0,1.428515077E0
3.124595860E1,1.268195957E-1,9.303294182E0,1.213161111E0
3.126262526E1,5.886343718E-1,9.475577354E0,1.287338614E0
3.127929193E1,1.079162955E0,9.664610863E0,1.378265858E0
3.129595860E1,1.715653777E0,9.793823242E0,1.646261930E0
3.131262526E1,2.062613010E0,9.468399048E0,1.916650891E0
3.132929193E1,2.266003132E0,9.200403214E0,1.959721804E0
3.134595859E1,2.000399828E0,9.059226990E0,2.110469580E0
3.136262526E1,1.418943882E0,9.399007797E0,2.067398787E0
3.137929192E1,6.388836503E-1,9.753145218E0,1.940579176E0
3.139595859E1,-6.699903309E-2,1.045902824E1,1.856830359E0
3.141262526E1,-1.076770186E0,1.166022491E1,1.832902193E0
3.142929192E1,-1.713261008E0,1.237089348E1,1.115055323E0
3.144595859E1,-1.349551916E0,1.203111267E1,4.618147612E-1
3.146262526E1,-1.040877819E0,1.089212894E1,1.055234790E0
3.147929192E1,-1.194018483E0,9.791430473E0,8.135596663E-2
3.149595859E1,-1.339980721E0,9.004191399E0,3.756731451E-1
3.151262525E1,-7.345965505E-1,9.667003632E0,1.615155339E0
3.152929192E1,3.924229145E-1,1.103569794E1,1.103091240E0
3.154595858E1,8.997012973E-1,1.108116150E1,6.340979934E-1
3.156262525E1,-1.459621787E-1,1.041117096E1,2.392822690E-2
3.157929192E1,-9.332008362E-1,9.824930191E0,9.738788009E-1
3.159595858E1,-1.521835208E0,1.003549862E1,5.120640397E-1
3.161262525E1,-2.048256159E0,1.011685371E1,3.637090325E-1
3.162929192E1,-1.682154298E0,9.779465675E0,7.585247755E-1
3.164595858E1,-8.973084688E-1,8.470592499E0,2.017149448E0
3.166262525E1,-8.709874153E-1,5.862415314E0,2.490928411E0
3.167929191E1,-9.547362328E-1,5.237888813E0,1.938186288E0
3.169595858E1,-1.368694544E0,6.376872540E0,1.782652855E0
3.171262524E1,-1.136590719E0,6.879364967E0,1.713261008E0
3.172929191E1,-9.116654396E-1,6.659225464E0,2.199003935E0
3.174595858E1,-1.500299811E0,5.422136307E0,2.005185366E0
3.176262524E1,-1.749153376E0,5.548955917E0,1.794616938E0
3.177929191E1,-2.105684042E0,5.472385406E0,1.921436548E0
3.179595858E1,-1.641476393E0,6.278766632E0,1.730010748E0
3.181262524E1,-1.052842021E0,6.951149940E0,1.540977836E0
3.182929191E1,-1.387837172E0,7.403393269E0,1.196411371E0
3.184595857E1,-1.971685886E0,7.597211838E0,1.363908887E0
3.186262524E1,-1.895115495E0,7.755138397E0,1.663011789E0
3.187929191E1,-1.758724689E0,7.977670670E0,1.694118381E0
3.189595857E1,-1.416550994E0,8.417949677E0,1.421336651E0
3.191262524E1,-8.015955687E-1,9.334401131E0,1.203589797E0
3.192929190E1,1.507478207E-1,1.021974564E1,8.590233326E-1
3.194595857E1,7.202396393E-1,1.134197903E1,7.106683254E-1
3.196262524E1,1.294517040E0,1.201675510E1,9.882357717E-1
3.197929190E1,4.809573591E-1,1.091366386E1,1.016949654E0
3.199595857E1,-4.259224236E-1,9.320044518E0,1.227517962E0
3.201262523E1,-3.661018610E-1,8.834300995E0,1.514656782E0
3.202929190E1,1.268195957E-1,9.157332420E0,1.098305583E0
3.204595856E1,5.264210105E-1,1.020299530E1,1.256231904E0
3.206262523E1,1.265803218E0,1.126780224E1,1.500299811E0
3.207929190E1,1.196411371E0,1.165065384E1,1.318445325E0
3.209595856E1,1.304088354E0,1.145683479E1,1.330409408E0
3.211262523E1,1.421336651E0,1.114576817E1,1.694118381E0
3.212929190E1,1.332802176E0,1.087777138E1,1.512263894E0
3.214595856E1,1.612762451E0,1.135155106E1,1.820937991E0
3.216262523E1,1.842473388E0,1.132283688E1,1.689332843E0
3.217929189E1,1.741974831E0,1.123430252E1,1.864008784E0
3.219595856E1,1.651047587E0,1.095194912E1,2.112862349E0
3.221262523E1,1.622333765E0,1.045902824E1,2.098505497E0
3.222929189E1,1.284945726E0,1.046142101E1,2.407179594E0
3.224595856E1,1.138983607E0,1.101177025E1,2.538784742E0
3.226262522E1,9.332008362E-1,1.063131142E1,2.447857618E0
3.227929189E1,1.071984529E0,1.012881851E1,1.844866276E0
3.229595856E1,1.418943882E0,9.745966911E0,1.624726534E0
3.231262522E1,1.600798368E0,9.458827972E0,1.588834286E0
3.232929189E1,1.718046665E0,9.690931320E0,1.897508383E0
3.234595855E1,1.993221283E0,9.932606697E0,2.545963287E0
3.236262522E1,2.091326952E0,9.966106415E0,2.443071842E0
3.237929188E1,2.000399828E0,9.786644936E0,2.093719721E0
3.239595855E1,1.758724689E0,9.707681656E0,1.665404558E0
3.241262522E1,1.112662554E0,9.580862045E0,1.292124271E0
3.242929188E1,5.599204898E-1,9.659825325E0,1.567298889E0
3.244595855E1,3.828516304E-1,1.011924744E1,1.691725612E0
3.246262522E1,1.124626622E-1,1.030349445E1,1.875972986E0
3.247929188E1,-1.507478207E-1,1.050209904E1,1.732403636E0
3.249595855E1,-4.163511395E-1,1.057627583E1,1.763510346E0
3.251262521E1,-2.823530734E-1,1.082752228E1,1.629512191E0
3.252929188E1,-4.091726840E-1,1.102134132E1,1.560120344E0
3.254595855E1,-5.431707501E-1,1.112901783E1,1.435693622E0
3.256262521E1,-8.279166222E-1,1.108116150E1,1.335195065E0
3.257929188E1,-1.040877819E0,1.079880905E1,1.416550994E0
3.259595854E1,-1.265803218E0,1.083709335E1,1.318445325E0
3.261262521E1,-1.280160069E0,1.106201935E1,1.119840980E0
3.262929188E1,-1.095912814E0,1.117208862E1,6.197410822E-1
3.264595854E1,-7.298108935E-1,1.050927734E1,1.277767301E0
3.266262521E1,-1.086341500E0,9.001798630E0,3.254238665E-1
3.267929187E1,-1.488335729E0,8.997013092E0,1.938186288E-1
3.269595854E1,-1.481157184E0,9.748359680E0,1.284945726E0
3.271262520E1,-1.373480201E0,9.963713646E0,2.026720762E0
3.272929187E1,-8.135597110E-1,8.836693764E0,1.258624673E0
3.274595854E1,-8.973084688E-1,5.934200287E0,1.674975872E0
3.276262520E1,-8.566305041E-1,5.302495003E0,2.665604353E0
3.277929187E1,-1.196411371E0,5.252245903E0,1.596012712E0
3.279595854E1,-1.325623751E0,5.498706341E0,1.883151412E0
3.281262520E1,-1.249053478E0,5.809773445E0,2.088934183E0
3.282929187E1,-1.636690736E0,5.819344521E0,2.388036966E0
3.284595853E1,-1.765903115E0,5.960521221E0,2.033899307E0
3.286262520E1,-1.634297848E0,6.594619274E0,1.964507341E0
3.287929186E1,-1.651047587E0,6.783652306E0,1.816152334E0
3.289595853E1,-1.770688772E0,7.353144169E0,1.830509305E0
3.291262520E1,-1.978864312E0,8.327022552E0,1.986042738E0
3.292929186E1,-1.825723648E0,8.786444664E0,1.945364833E0
3.294595853E1,-1.636690736E0,8.693124771E0,1.911865234E0
3.296262520E1,-1.423729420E0,8.228917122E0,2.021935225E0
3.297929186E1,-1.076770186E0,7.707281590E0,1.481157184E0
3.299595853E1,-8.398807645E-1,7.915457249E0,1.722832322E0
3.301262519E1,-6.388836503E-1,8.197810173E0,1.801795483E0
3.302929186E1,-2.775674164E-1,8.563912392E0,6.939185858E-1
3.304595852E1,2.153540403E-2,9.556933403E0,6.364908218E-1
3.306262519E1,3.684946895E-1,1.123430252E1,8.925228715E-1
3.307929186E1,5.288137794E-1,1.246899891E1,1.148554921E0
3.309595852E1,2.679961324E-1,1.227517986E1,1.418943882E0
3.311262519E1,6.436693072E-1,1.145444202E1,1.229910851E0
3.312929186E1,1.268195987E0,1.049252701E1,1.184447169E0
3.314595852E1,1.124626637E0,9.427721024E0,1.483550072E0
3.316262519E1,8.494520187E-1,8.965906143E0,1.835294962E0
3.317929185E1,9.188438654E-1,9.793823242E0,1.861616015E0
3.319595852E1,1.284945726E0,1.152383423E1,1.746760488E0
3.321262518E1,1.868794441E0,1.213400364E1,1.409372568E0
3.322929185E1,1.854437590E0,1.121037388E1,2.342573404E0
3.324595852E1,1.538584948E0,1.026760197E1,2.364108801E0
3.326262518E1,1.471585870E0,1.001396275E1,2.124826431E0
3.327929185E1,1.818545222E0,1.051167011E1,1.627119422E0
3.329595852E1,1.820937991E0,1.097827053E1,1.837687731E0
3.331262518E1,1.765903115E0,1.116969585E1,2.196611166E0
3.332929185E1,1.959721804E0,1.043988514E1,1.768295884E0
3.334595851E1,1.634297848E0,9.942177773E0,2.067398787E0
3.336262518E1,1.569691658E0,9.923035622E0,1.986042738E0
3.337929185E1,1.294517040E0,9.726823807E0,2.172683001E0
3.339595851E1,1.277767301E0,9.482755661E0,2.014756680E0
3.341262518E1,1.667797327E0,9.422935486E0,2.007578135E0
3.342929184E1,2.072184324E0,9.451649666E0,1.737189293E0
3.344595851E1,2.333002090E0,9.401400566E0,1.864008784E0
3.346262518E1,2.136790514E0,9.214759827E0,2.136790514E0
3.347929184E1,1.787438512E0,9.265008926E0,2.115255117E0
3.349595851E1,1.452443361E0,9.748359680E0,1.986042738E0
3.351262517E1,9.858429432E-1,1.050927734E1,1.708475351E0
3.352929184E1,7.776673436E-1,1.133001518E1,1.660618901E0
3.354595850E1,8.566305041E-1,1.185882950E1,1.806581140E0
3.356262517E1,9.355936646E-1,1.129651546E1,1.768295884E0
3.357929184E1,1.000199914E0,1.035135078E1,2.098505497E0
3.359595850E1,8.422735929E-1,9.427721024E0,2.057827473E0
3.361262517E1,2.751746178E-1,8.575876236E0,1.672582984E0
3.362929184E1,-4.067798331E-2,8.202595711E0,1.636690736E0
3.364595850E1,-2.033899277E-1,8.736195564E0,1.871187329E0
3.366262517E1,-4.929214716E-1,9.681360245E0,1.890329838E0
3.367929183E1,-8.398807645E-1,1.035135078E1,1.064806104E0
3.369595850E1,-8.039883971E-1,1.066241741E1,1.495514154E0
3.371262516E1,-5.551348329E-1,1.088495064E1,1.797009826E0
3.372929183E1,-2.775674164E-1,1.099262714E1,1.514656782E0
3.374595850E1,1.435693540E-2,1.139701462E1,1.083948612E0
3.376262516E1,-2.560320199E-1,1.160758305E1,6.460621357E-1
3.377929183E1,-9.451649189E-1,1.133480072E1,5.982056856E-1
3.379595850E1,-1.481157184E0,1.083709335E1,1.081555843E0
3.381262516E1,-1.813759565E0,1.033220863E1,1.548156261E0
3.382929183E1,-1.567298889E0,9.430113792E0,8.374879360E-1
3.384595849E1,-8.518448472E-1,9.329615593E0,1.703689694E0
3.386262516E1,-7.010970116E-1,9.066405296E0,1.954936147E0
3.387929182E1,-8.039883971E-1,8.468199730E0,2.038684845E0
3.389595849E1,-9.092726111E-1,7.903493404E0,2.038684845E0
3.391262516E1,-1.177268744E0,7.295716286E0,1.624726534E0
3.392929182E1,-9.355936646E-1,7.671389580E0,2.019542217E0
3.394595849E1,-1.136590719E0,6.084948063E0,1.418943882E0
3.396262516E1,-1.390229940E0,5.941378593E0,1.646261930E0
3.397929182E1,-1.813759565E0,6.001199245E0,1.864008784E0
3.399595849E1,-2.122433662E0,5.979663849E0,2.084148407E0
3.401262515E1,-2.076970100E0,6.470192432E0,2.581855536E0
3.402929182E1,-2.234896421E0,6.350551128E0,1.990828395E0
3.404595848E1,-1.828116536E0,6.601797581E0,2.682354212E0
3.406262515E1,-2.227717876E0,6.704689026E0,2.423929453E0
3.407929182E1,-2.031506538E0,7.671389580E0,2.632104874E0
3.409595848E1,-2.452643156E0,8.118846893E0,2.258824587E0
3.411262515E1,-1.923829436E0,8.860622406E0,1.978864312E0
3.412929182E1,-1.363908887E0,9.336793900E0,1.895115495E0
3.414595848E1,-1.153340459E0,9.559326172E0,2.117648125E0
3.416262515E1,-1.313659668E0,9.920642853E0,2.297109842E0
3.417929181E1,-1.777867198E0,1.050927734E1,1.981257200E0
3.419595848E1,-2.313859463E0,1.152861977E1,1.694118381E0
3.421262515E1,-2.447857618E0,1.235414314E1,1.636690736E0
3.422929181E1,-2.263610125E0,1.236850071E1,1.813759565E0
3.424595848E1,-2.031506538E0,1.168893814E1,2.148754835E0
3.426262514E1,-2.007578135E0,1.071745300E1,2.514856577E0
3.427929181E1,-2.172683001E0,1.043270683E1,1.923829436E0
3.429595848E1,-2.206182480E0,1.057866859E1,1.591227055E0
3.431262514E1,-1.947757602E0,9.997213364E0,1.761117458E0
3.432929181E1,-1.617548108E0,8.482556343E0,1.756331801E0
3.434595847E1,-1.316052437E0,7.171289444E0,1.761117458E0
3.436262514E1,-9.475577474E-1,6.778866768E0,2.029113531E0
3.437929180E1,-6.293123364E-1,8.109275818E0,2.026720762E0
3.439595847E1,-4.283152521E-1,1.025563812E1,1.799402595E0
3.441262514E1,-3.661018610E-1,1.146401310E1,1.981257200E0
3.442929180E1,-6.915257573E-1,1.067677498E1,1.947757602E0
3.444595847E1,-1.411765337E0,9.674181938E0,1.875972986E0
3.446262514E1,-2.050648928E0,8.745766640E0,1.945364833E0
3.447929180E1,-2.012363911E0,8.331808090E0,1.517049551E0
3.449595847E1,-2.120040894E0,9.279366493E0,1.560120344E0
3.451262513E1,-1.624726534E0,9.879964828E0,1.722832322E0
3.452929180E1,-1.239482164E0,9.803394318E0,1.962114573E0
3.454595847E1,-1.067198873E0,9.997213364E0,1.789831281E0
3.456262513E1,-7.537391186E-1,1.042074299E1,1.835294962E0
3.457929180E1,-5.359922647E-1,1.003071213E1,1.990828395E0
3.459595846E1,-7.345965505E-1,9.011369705E0,2.093719721E0
3.461262513E1,-1.043270707E0,8.513663292E0,1.864008784E0
3.462929180E1,-1.016949654E0,9.334401131E0,1.789831281E0
3.464595846E1,-8.997012973E-1,1.025324535E1,1.612762451E0
3.466262513E1,-6.460621357E-1,1.039681435E1,1.607976794E0
3.467929179E1,-2.249253243E-1,9.451649666E0,1.469193101E0
3.469595846E1,1.028913707E-1,8.159524918E0,1.945364833E0
3.471262512E1,8.135596663E-2,7.176074982E0,2.129612207E0
3.472929179E1,-3.182454109E-1,7.585247993E0,1.775474429E0
3.474595846E1,-6.460621357E-1,9.348757744E0,1.380658627E0
3.476262512E1,-7.154539824E-1,1.163151073E1,1.663011789E0
3.477929179E1,-7.944171429E-1,1.288774300E1,1.110269666E0
3.479595846E1,-8.255237937E-1,1.171286678E1,1.198804140E0
3.481262512E1,-1.356730461E0,9.561718941E0,1.871187329E0
3.482929179E1,-1.660618901E0,8.336593628E0,1.993221283E0
3.484595845E1,-1.299302697E0,8.908478737E0,2.249253273E0
3.486262512E1,-8.709874153E-1,9.530612946E0,1.892722726E0
3.487929178E1,-5.551348329E-1,9.614361763E0,1.524227977E0
3.489595845E1,-5.527420044E-1,8.992227554E0,1.526620865E0
3.491262512E1,-9.978070259E-1,8.513663292E0,1.612762451E0
3.492929178E1,-9.858429432E-1,9.166903496E0,1.146162033E0
3.494595845E1,-1.411765367E-1,9.693324089E0,1.007378340E0
3.496262512E1,5.407779217E-1,9.068798065E0,1.840080619E0
3.497929178E1,5.383850932E-1,9.102297783E0,1.679761529E0
3.499595845E1,1.555334777E-1,1.001635551E1,2.053041935E0
