"Time (s)","Gyroscope x (rad/s)","Gyroscope y (rad/s)","Gyroscope z (rad/s)"
5.027880400E-2,-5.566505343E-2,4.894553870E-2,5.146535859E-2
6.694547000E-2,-5.566505343E-2,4.894553870E-2,5.146535859E-2
8.361213600E-2,1.495855153E-1,1.088102907E-1,3.924806044E-2
1.002788020E-1,1.025489271E-1,1.515708268E-1,5.513054505E-2
1.169454680E-1,3.840812296E-2,2.340375632E-1,5.268708616E-2
1.336121340E-1,7.864884101E-3,2.719111741E-1,2.703076601E-2
1.502788000E-1,1.947131567E-2,3.128391206E-1,3.817904973E-3
1.669454660E-1,2.557996288E-2,3.244455457E-1,-2.367101051E-2
1.836121320E-1,5.062541738E-2,3.000109792E-1,-2.183841541E-2
2.002787980E-1,1.233183295E-1,2.315941155E-1,-1.634063199E-2
2.169454640E-1,2.167806327E-1,1.234710440E-1,-1.389717404E-2
2.336121300E-1,2.729802132E-1,2.451094985E-2,-1.511890348E-2
2.502787960E-1,2.644280791E-1,-1.336266659E-2,-9.010255337E-3
2.669454620E-1,2.351065874E-1,3.061959706E-2,-2.061668597E-2
2.836121280E-1,1.911243200E-1,7.032580674E-2,-2.489273995E-2
3.002787940E-1,1.538615674E-1,1.045342386E-1,-1.023198478E-2
3.169454600E-1,1.422551423E-1,1.124754772E-1,-6.566796452E-3
3.336121260E-1,1.349247545E-1,9.781472385E-2,-3.161225095E-2
3.502787920E-1,1.245400533E-1,3.367391974E-2,-5.238165334E-2
3.669454580E-1,1.202640012E-1,-1.947131567E-2,-4.566214234E-2
3.836121240E-1,1.446985900E-1,-3.840812296E-2,-1.389717404E-2
4.002787900E-1,2.039524764E-1,-4.696023092E-2,1.420260593E-2
4.169454560E-1,2.821431756E-1,-6.101011857E-2,3.680460155E-2
4.336121220E-1,3.365101218E-1,-9.949459881E-2,4.169152305E-2
4.502787880E-1,3.927097023E-1,-1.440877318E-1,3.863719851E-2
4.669454540E-1,4.446332157E-1,-1.703549176E-1,5.390881747E-2
4.836121200E-1,5.124391913E-1,-1.782961637E-1,1.046105921E-1
5.002787860E-1,5.258781910E-1,-1.776852906E-1,1.217148080E-1
5.169454520E-1,4.855611324E-1,-1.544724256E-1,1.235474050E-1
5.336121180E-1,4.238637984E-1,-9.766200930E-2,1.094975099E-1
5.502787840E-1,3.859901726E-1,-3.413207084E-2,7.467821985E-2
5.669454500E-1,3.426187932E-1,1.412624773E-2,4.169152305E-2
5.836121160E-1,3.224602342E-1,8.681915700E-2,2.458730713E-2
6.002787820E-1,2.968039215E-1,1.454621702E-1,1.725693047E-2
6.169454480E-1,2.711476088E-1,2.053269297E-1,1.847865991E-2
6.336121140E-1,2.296088040E-1,2.493091822E-1,1.359174121E-2
6.502787800E-1,1.776852906E-1,2.407570779E-1,1.175914705E-2
6.669454460E-1,1.306487024E-1,1.601229310E-1,1.359174121E-2
6.836121120E-1,9.888373315E-2,1.088102907E-1,3.985892609E-2
7.002787780E-1,9.094249457E-2,1.027016416E-1,4.535670951E-2
7.169454440E-1,8.972076327E-2,9.781472385E-2,4.413498193E-2
7.336121100E-1,7.139482349E-2,7.154753804E-2,4.718930274E-2
7.502787760E-1,7.872519642E-2,7.704532146E-2,4.169152305E-2
7.669454420E-1,7.017309219E-2,7.154753804E-2,4.169152305E-2
7.836121080E-1,3.901898861E-2,6.666062027E-2,3.130681813E-2
8.002787740E-1,5.345066893E-4,5.871937796E-2,1.359174121E-2
8.169454400E-1,-1.051450968E-1,6.421715766E-2,5.513054505E-2
8.336121060E-1,-1.888335794E-1,1.168278884E-2,1.724165827E-1
8.502787720E-1,-1.753945500E-1,6.872228696E-4,1.424842030E-1
8.669454380E-1,-1.417969912E-1,2.817613818E-2,1.394298822E-1
8.836121040E-1,-1.027016416E-1,6.482802331E-2,1.632536054E-1
9.002787700E-1,-4.711294547E-2,1.448513120E-1,1.852447391E-1
9.169454360E-1,-1.412624773E-2,2.047160566E-1,2.182314396E-1
9.336121020E-1,-1.107192412E-2,1.949422210E-1,2.506072819E-1
9.502787680E-1,-4.222602770E-2,1.387426704E-1,2.842048407E-1
9.669454340E-1,-9.292780608E-2,6.421715766E-2,3.269653618E-1
9.836121000E-1,-1.295796931E-1,1.229365356E-2,3.837758005E-1
1.000278766E0,-1.081994250E-1,7.215840369E-2,4.509709179E-1
1.016945432E0,-8.681915700E-2,2.218202800E-1,5.242747068E-1
1.033612098E0,-1.149189398E-1,4.020253718E-1,5.859720111E-1
1.050278764E0,-1.240819097E-1,6.323214173E-1,5.853611827E-1
1.066945430E0,-5.627591908E-2,7.557160854E-1,5.279398561E-1
1.083612096E0,8.177952468E-2,7.050142884E-1,4.644099474E-1
1.100278762E0,2.601520419E-1,5.761218667E-1,4.436405599E-1
1.116945428E0,4.348593652E-1,4.508945644E-1,4.314232469E-1
1.133612094E0,-4.117992222E-1,9.065997005E-1,-7.131846249E-2
1.150278760E0,-1.309770465E0,1.090469956E0,-3.321577311E-1
1.166945426E0,-1.263955593E0,1.022663951E0,-3.588830680E-2
1.183612092E0,-1.003727198E0,8.345176578E-1,-3.649916872E-2
1.200278758E0,-9.890664220E-1,7.514400482E-1,3.697259128E-1
1.216945424E0,-7.123447061E-1,6.616429090E-1,6.042979956E-1
1.233612090E0,-4.496728480E-1,6.329322457E-1,6.812669635E-1
1.250278756E0,-1.039233729E-1,4.295142889E-1,4.375318885E-1
1.266945422E0,1.697440445E-1,3.550651670E-2,1.247691289E-1
1.283612088E0,5.820778012E-1,-3.206276596E-1,-1.817322709E-2
1.300278754E0,8.410844207E-1,-3.652207851E-1,-2.611446939E-2
1.316945420E0,4.849502742E-1,-3.908770978E-1,-5.910116807E-2
1.333612086E0,-2.634354308E-2,-2.699258626E-1,-2.490801066E-1
1.350278752E0,-4.307360351E-1,5.101484656E-1,-3.370446563E-1
1.366945418E0,-6.995165348E-1,6.787471175E-1,-1.715002805E-1
1.383612084E0,-8.131373525E-1,7.153990269E-1,-5.665770918E-2
1.400278750E0,-8.113048077E-1,6.286562085E-1,3.069595434E-2
1.416945416E0,-6.146063209E-1,4.313468933E-1,1.003345400E-1
1.433612082E0,-3.146717250E-1,2.670242786E-1,6.429351866E-2
1.450278748E0,-9.170607477E-2,1.350774765E-1,4.046979174E-2
1.466945414E0,1.763872057E-2,1.155297980E-1,7.101303339E-2
1.483612080E0,1.145371469E-3,7.826705277E-2,9.666935354E-2
1.500278746E0,-4.833467677E-2,9.170607477E-2,1.467602700E-1
1.516945412E0,-1.155297980E-1,2.004400045E-1,1.760817766E-1
1.533612078E0,-1.039233729E-1,2.413679510E-1,1.510363221E-1
1.550278744E0,1.886045001E-2,1.417969912E-1,1.003345400E-1
1.566945410E0,1.593593508E-1,-4.024071619E-2,4.963276163E-2
1.583612076E0,1.404225379E-1,1.229365356E-2,8.323032409E-2
1.600278742E0,5.245801434E-2,1.576794684E-1,1.449276656E-1
1.616945408E0,-2.145662531E-2,2.175442129E-1,1.565341055E-1
1.633612074E0,-9.659299254E-2,2.957349122E-1,1.559232324E-1
1.650278740E0,-1.589011997E-1,2.932914495E-1,1.620318890E-1
1.666945406E0,-9.720385820E-2,1.118646115E-1,1.632536054E-1
1.683612072E0,4.451677203E-2,-1.580612548E-2,1.131627038E-1
1.700278738E0,1.123227626E-1,-8.422297984E-2,6.795870513E-2
1.716945404E0,1.330921650E-1,-1.135444939E-1,7.712167501E-2
1.733612070E0,1.618028134E-1,-1.343138963E-1,7.589995116E-2
1.750278736E0,2.344957143E-1,-1.227074638E-1,7.223475724E-2
1.766945402E0,3.756054938E-1,-1.550832987E-1,6.673697382E-2
1.783612068E0,5.521454215E-1,-1.874591261E-1,5.879573524E-2
1.800278734E0,7.415134907E-1,-2.320522517E-1,4.230238497E-2
1.816945400E0,9.223294854E-1,-3.242928386E-1,3.985892609E-2
1.833612066E0,1.109254122E0,-4.568504989E-1,3.069595434E-2
1.850278732E0,1.223485827E0,-4.996110201E-1,4.108065739E-2
1.866945398E0,1.283350587E0,-4.727329910E-1,1.603520103E-2
1.883612064E0,1.355432630E0,-5.075522661E-1,-3.512472380E-3
1.900278730E0,1.439121008E0,-6.071232557E-1,-7.681624591E-2
1.916945396E0,1.606498003E0,-7.738893032E-1,-1.782197952E-1
1.933612062E0,1.829463601E0,-9.864702821E-1,-2.900080681E-1
1.950278728E0,2.148946047E0,-1.048778415E0,-3.455967605E-1
1.966945394E0,2.182543516E0,-1.363373876E0,-1.537852138E-1
1.983612060E0,2.120846272E0,-1.467831731E0,1.876882017E-1
2.000278726E0,1.690797329E0,-1.455614448E0,5.132791400E-1
2.016945392E0,1.398193121E0,-1.602832794E0,5.896372199E-1
2.033612058E0,1.395138741E0,-1.563737512E0,6.030762792E-1
2.050278724E0,1.489822865E0,-1.250974655E0,5.768090487E-1
2.066945390E0,1.374980211E0,-7.146354318E-1,5.529853702E-1
2.083612056E0,1.180114388E0,1.962403022E-2,5.297724605E-1
2.100278722E0,9.889137149E-1,8.534544706E-1,4.302015305E-1
2.116945388E0,7.439569235E-1,1.587103009E0,4.051560760E-1
2.133612054E0,4.476875365E-1,2.461861372E0,6.409498453E-1
2.150278720E0,1.117118970E-1,3.271868229E0,9.860884547E-1
2.166945386E0,-1.857792437E-1,3.503996849E0,1.238375664E0
2.183612052E0,-4.111883640E-1,3.381212950E0,1.437517524E0
2.200278718E0,-5.480220914E-1,3.672595501E0,1.852905631E0
2.216945384E0,-5.431351662E-1,3.695197344E0,2.407570839E0
2.233612050E0,-1.542509913E0,3.983525515E0,2.901760340E0
2.250278716E0,-2.003102064E0,2.918788195E0,2.692233801E0
2.266945382E0,-1.920024395E0,2.356792688E0,2.826013088E0
2.283612048E0,-1.766697288E0,1.800294876E0,3.072191715E0
2.300278714E0,-1.945069790E0,1.719049811E0,3.218188286E0
2.316945380E0,-2.156429052E0,1.744706154E0,3.424049854E0
2.333612046E0,-2.031812668E0,1.721493363E0,3.572489977E0
2.350278712E0,-2.050138474E0,1.865046501E0,3.614639521E0
2.366945378E0,-2.444757223E0,2.033645153E0,3.369071960E0
2.383612044E0,-2.417879105E0,2.009821415E0,2.904203892E0
2.400278710E0,-2.047695160E0,2.071518898E0,2.574337006E0
2.416945376E0,-1.696447849E0,2.105727196E0,2.439335823E0
2.433612042E0,-1.594433427E0,2.292651892E0,2.372140646E0
2.450278708E0,-1.770973325E0,2.555323839E0,2.312886715E0
2.466945374E0,-1.902920127E0,2.354959965E0,2.127183914E0
2.483612040E0,-1.790521026E0,1.896200657E0,1.915824652E0
2.500278706E0,-1.439884663E0,1.279838085E0,1.658039689E0
2.516945372E0,-1.061759353E0,9.615775347E-1,1.414304733E0
2.533612038E0,-9.469167590E-1,7.557160854E-1,1.345276952E0
2.550278704E0,-8.442915082E-1,8.504001498E-1,1.576794744E0
2.566945370E0,-8.442915082E-1,8.504001498E-1,1.576794744E0
2.583612036E0,-3.244455457E-1,8.210785985E-1,2.354425669E0
2.600278702E0,-1.277471036E-1,1.072144032E0,2.045938969E0
2.616945368E0,8.544471115E-2,1.085583091E0,1.489441037E0
2.633612034E0,1.367573589E-1,5.602393746E-1,1.073442101E0
2.650278700E0,2.974147797E-1,-2.320522517E-1,7.588467598E-1
2.666945366E0,5.906298757E-1,-9.430988431E-1,7.374665141E-1
2.683612032E0,5.631409883E-1,-1.360930324E0,5.193877816E-1
2.700278698E0,3.688859642E-1,-1.341382742E0,3.898844421E-1
2.716945364E0,1.275180187E-2,-1.026176453E0,3.037525117E-1
2.733612030E0,-2.193768173E-1,-4.482983947E-1,1.779143661E-1
2.750278696E0,-3.036761582E-1,-8.483384550E-2,2.414443046E-1
2.766945362E0,-2.022725940E-1,-4.329504073E-2,2.799287736E-1
2.783612028E0,-1.436295807E-1,-2.454912812E-1,3.049742281E-1
2.800278694E0,-1.576794684E-1,-4.379136860E-1,2.817613780E-1
2.816945360E0,-1.436295807E-1,-5.148826241E-1,2.469420880E-1
2.833612026E0,-5.566505343E-2,-6.193405390E-1,2.493855506E-1
2.850278692E0,1.641699113E-2,-5.490911007E-1,1.834121495E-1
2.866945358E0,1.336266659E-2,-2.259436101E-1,1.412624866E-1
2.883612024E0,-6.421715766E-2,1.411861181E-1,1.479819864E-1
2.900278690E0,-1.246927753E-1,2.645808160E-1,1.369864196E-1
2.916945356E0,-2.939786762E-2,9.781472385E-2,6.368265301E-2
2.933612022E0,1.654679924E-1,-1.697440445E-1,-4.199695215E-2
2.950278688E0,2.277761996E-1,-2.186132371E-1,-9.621120058E-3
2.966945354E0,2.027307451E-1,-2.289979309E-1,-3.161225095E-2
2.983612020E0,1.856265366E-1,-1.080467105E-1,-9.636391699E-2
3.000278686E0,1.935677826E-1,-2.367100911E-3,-1.507308781E-1
3.016945352E0,2.583194375E-1,1.962403022E-2,-1.776089370E-1
3.033612018E0,2.809214294E-1,-7.628174126E-2,-2.374736816E-1
3.050278684E0,2.369391769E-1,-2.216675580E-1,-3.260490894E-1
3.066945350E0,1.526398361E-1,-2.937496006E-1,-3.370446563E-1
3.083612016E0,8.361211419E-2,-3.206276596E-1,-3.425424397E-1
3.100278682E0,5.673406646E-2,-1.434768587E-1,-3.853029609E-1
3.116945348E0,1.043815166E-1,2.390008420E-2,-3.987419903E-1
3.133612014E0,1.825722158E-1,-5.306887627E-2,-4.256200492E-1
3.150278680E0,2.851974964E-1,-2.424369603E-1,-4.977020919E-1
3.166945346E0,4.043161273E-1,-4.214203358E-1,-5.465712547E-1
3.183612012E0,5.307651162E-1,-5.857429504E-1,-5.056433082E-1
3.200278678E0,6.193405390E-1,-5.716930628E-1,-5.221366882E-1
3.216945344E0,6.963095069E-1,-3.536143601E-1,-4.512763619E-1
3.233612010E0,7.983239293E-1,-3.383427262E-1,-4.958694875E-1
3.250278676E0,8.276454210E-1,-3.823249936E-1,-6.467530727E-1
3.266945342E0,8.459713459E-1,-3.200167716E-1,-7.964149714E-1
3.283612008E0,9.003383517E-1,-1.770744324E-1,-9.833396077E-1
3.300278674E0,1.000520110E0,-6.467530876E-2,-1.216079116E0
3.316945340E0,1.180725217E0,6.185005885E-3,-1.453705430E0
3.333612006E0,1.424460292E0,1.167515293E-1,-1.704770923E0
3.350278672E0,1.589393854E0,2.462548614E-1,-1.960112333E0
3.366945338E0,1.643149853E0,3.189477623E-1,-2.134819746E0
3.383612004E0,1.685299516E0,2.566395700E-1,-2.234390736E0
3.400278670E0,1.814192057E0,6.788235158E-2,-2.355952740E0
3.416945336E0,1.899102211E0,-2.552651167E-1,-2.533103466E0
3.433612002E0,1.794033527E0,-5.368737578E-1,-2.632674456E0
3.450278668E0,1.487379432E0,-5.808560252E-1,-2.581972599E0
3.466945334E0,1.108032346E0,-3.578903973E-1,-2.370613575E0
3.483612000E0,7.812197208E-1,-1.831830740E-1,-2.078620195E0
3.500278666E0,5.881864429E-1,-2.906952798E-1,-1.787237644E0
3.516945332E0,4.922806621E-1,-7.091376781E-1,-1.571602345E0
3.533611998E0,4.354702234E-1,-1.117806196E0,-1.392008066E0
3.550278664E0,3.969857395E-1,-1.296178699E0,-1.238070250E0
3.566945330E0,3.090212345E-1,-1.390251875E0,-1.178816319E0
3.583611996E0,1.978438348E-1,-1.409188747E0,-1.148273110E0
3.600278662E0,1.373682171E-1,-1.347491384E0,-1.104290843E0
3.616945328E0,1.740200967E-1,-1.285794020E0,-1.048091292E0
3.633611994E0,2.742019296E-1,-1.283350587E0,-1.027932763E0
3.650278660E0,3.365101218E-1,-1.300454736E0,-1.026710987E0
3.666945326E0,3.432296515E-1,-1.349934816E0,-1.041371703E0
3.683611992E0,3.242928386E-1,-1.453170896E0,-1.098793030E0
3.700278658E0,2.760345340E-1,-1.571678758E0,-1.194087982E0
3.716945324E0,1.569158882E-1,-1.614439249E0,-1.308930516E0
3.733611990E0,-2.023489587E-2,-1.519755244E0,-1.374293089E0
3.750278656E0,-1.106428802E-1,-1.318169832E0,-1.431714296E0
3.766945322E0,-1.216384470E-1,-1.280296206E0,-1.605810761E0
3.783611988E0,-1.711184978E-1,-1.398803949E0,-1.823278666E0
3.800278654E0,-1.711184978E-1,-1.398803949E0,-1.823278666E0
3.816945320E0,-3.287216127E-1,-1.573511362E0,-1.939342976E0
3.833611986E0,-3.775908053E-1,-1.499596715E0,-1.864206553E0
3.850278652E0,-4.221839309E-1,-1.243033409E0,-1.769522548E0
3.866945318E0,-5.089266896E-1,-8.227584958E-1,-1.662010312E0
3.883611984E0,-6.811906099E-1,-4.605156779E-1,-1.585652232E0
3.900278650E0,-9.316451550E-1,-3.505600393E-1,-1.565493703E0
3.916945316E0,-9.316451550E-1,-3.505600393E-1,-1.565493703E0
3.933611982E0,-9.316451550E-1,-3.505600393E-1,-1.565493703E0
3.950278648E0,-9.316451550E-1,-3.505600393E-1,-1.565493703E0
3.966945314E0,-7.416661978E-1,-8.563560843E-1,-1.647960424E0
3.983611980E0,-7.422770858E-1,-1.862373948E-1,-1.528230906E0
4.000278646E0,-8.846085668E-1,6.891318560E-1,-1.328478217E0
4.016945312E0,-1.097800374E0,1.138117433E0,-1.160490394E0
4.033611978E0,-1.144836903E0,8.540652990E-1,-1.051145554E0
4.050278644E0,-9.658535719E-1,3.977493346E-1,-9.338595271E-1
4.066945310E0,-6.964622140E-1,-4.818195850E-2,-8.385646343E-1
4.083611976E0,-4.154644012E-1,-4.232529402E-1,-8.507819176E-1
4.100278642E0,-1.619555205E-1,-5.967385173E-1,-8.941532969E-1
4.116945308E0,-2.390008420E-2,-8.270345330E-1,-9.161444306E-1
4.133611974E0,5.490147322E-2,-9.516509771E-1,-8.758273721E-1
4.150278640E0,9.086613543E-3,-7.842740417E-1,-8.257364631E-1
4.166945306E0,-1.595120728E-1,-5.057196617E-1,-7.884737253E-1
4.183611972E0,-3.244455457E-1,-3.475056887E-1,-7.371610999E-1
4.200278638E0,-3.397171795E-1,-3.633881807E-1,-6.430879235E-1
4.216945304E0,-1.595120728E-1,-6.034580469E-1,-5.850557685E-1
4.233611970E0,8.849903196E-2,-9.388228059E-1,-5.410735011E-1
4.250278636E0,3.346775472E-1,-1.042669773E0,-4.561632872E-1
4.266945302E0,5.203804374E-1,-9.082795978E-1,-3.578140438E-1
4.283611968E0,5.655844212E-1,-6.932551861E-1,-2.588539422E-1
4.300278634E0,4.623482823E-1,-5.118283033E-1,-1.531743407E-1
4.316945300E0,3.285689056E-1,-3.658316433E-1,-1.084284950E-2
4.333611966E0,2.564868629E-1,-2.143371850E-1,1.107192412E-1
4.350278632E0,2.155589163E-1,-1.037706509E-1,1.608101577E-1
4.366945298E0,1.550832987E-1,-2.680169232E-2,2.109010667E-1
4.383611964E0,7.017309219E-2,7.887791097E-2,2.897026241E-1
4.400278630E0,-5.383246019E-2,2.083812505E-1,3.801106215E-1
4.416945296E0,-1.417969912E-1,2.877936661E-1,5.096139312E-1
4.433611962E0,-1.265253723E-1,3.568213880E-1,6.745474339E-1
4.450278628E0,-5.994110554E-2,3.934732676E-1,8.193224072E-1
4.466945294E0,-2.084576152E-2,3.604865670E-1,9.286671877E-1
4.483611960E0,2.367100911E-3,3.354411125E-1,1.016631722E0
4.500278626E0,1.824958436E-2,3.299433291E-1,1.083215952E0
4.516945292E0,-6.872228696E-4,2.566395700E-1,1.153465390E0
4.533611958E0,-4.352411721E-3,2.022725940E-1,1.250592947E0
4.550278624E0,3.779725730E-2,1.595120728E-1,1.282968760E0
4.566945290E0,1.104901657E-1,1.020907760E-1,1.237153888E0
4.583611956E0,1.954003721E-1,3.184132650E-2,1.182786942E0
4.600278622E0,2.497673333E-1,-2.802342176E-2,1.128419995E0
4.616945288E0,2.424369603E-1,-8.727730811E-2,1.035568476E0
4.633611954E0,2.070067972E-1,-1.153770834E-1,9.402735829E-1
4.650278620E0,2.118937224E-1,-1.691331863E-1,8.547525406E-1
4.666945286E0,2.760345340E-1,-1.758527011E-1,7.826704979E-1
4.683611952E0,3.786598146E-1,2.328158319E-1,6.739365458E-1
4.700278618E0,3.627773225E-1,5.315287113E-1,4.809032977E-1
4.716945284E0,2.051742077E-1,4.997637570E-1,3.892735839E-1
4.733611950E0,2.069304511E-2,3.220020831E-1,4.106538594E-1
4.750278616E0,-1.772271395E-1,-1.184314117E-1,3.794997334E-1
4.766945282E0,-1.937204897E-1,-4.159225523E-1,3.672824502E-1
4.783611948E0,-9.903645515E-2,-4.806742370E-1,2.750418782E-1
4.800278614E0,5.421424750E-3,-2.112828493E-1,5.940660089E-2
4.816945280E0,5.421424750E-3,8.437569439E-2,-6.887500733E-2
4.833611946E0,-8.804088831E-2,1.350774765E-1,-6.582067907E-2
4.850278612E0,-1.448513120E-1,7.635809743E-5,-6.566796452E-3
4.866945278E0,-8.865175396E-2,-1.978438348E-1,4.780016840E-2
4.883611944E0,3.901898861E-2,-2.467130125E-1,8.567378670E-2
4.900278610E0,1.844048053E-1,-1.526398361E-1,8.017600328E-2
4.916945276E0,2.974147797E-1,6.421715766E-2,8.093958721E-3
4.933611942E0,3.719402850E-1,2.615264952E-1,-6.459894776E-2
4.950278608E0,3.481165767E-1,3.446041048E-1,-1.085812151E-1
4.966945274E0,2.344957143E-1,2.383136153E-1,-7.620538026E-2
4.983611940E0,1.306487024E-1,-6.345357746E-2,3.817904973E-3
5.000278606E0,1.477529258E-1,-3.536143601E-1,1.198822111E-1
5.016945272E0,2.363283187E-1,-5.973494053E-1,2.628245652E-1
5.033611938E0,3.542252183E-1,-8.465822339E-1,4.216494262E-1
5.050278604E0,4.458549321E-1,-8.172607422E-1,5.016726851E-1
5.066945270E0,4.941132367E-1,-5.283216834E-1,4.821250141E-1
5.083611936E0,5.270999670E-1,-4.415788651E-1,5.096139312E-1
5.100278602E0,5.362629294E-1,-6.462185979E-1,6.268999577E-1
5.116945268E0,5.417606831E-1,-1.009072304E0,8.553634286E-1
5.133611934E0,6.120101213E-1,-1.386586666E0,1.124143958E0
5.150278600E0,8.142064214E-1,-1.781816244E0,1.381928802E0
5.166945266E0,1.185612202E0,-1.957134366E0,1.611003160E0
5.183611932E0,1.590004683E0,-2.087248564E0,1.824194908E0
5.200278598E0,2.076864004E0,-2.128176451E0,2.099694967E0
5.216945264E0,2.606483698E0,-1.774485826E0,2.330601931E0
5.233611930E0,2.892979145E0,-1.333441496E0,2.463159561E0
5.250278596E0,2.654131174E0,-1.556941569E-1,2.720944405E0
5.266945262E0,2.002949238E0,-3.168861195E-2,3.008050919E0
5.283611928E0,1.474551201E0,-1.862373948E-1,3.033096313E0
5.300278594E0,1.312672019E0,-8.910989761E-2,3.156491041E0
5.316945260E0,1.411021233E0,4.222602770E-2,3.271333694E0
5.333611926E0,1.743942618E0,-3.475056887E-1,3.312261581E0
5.350278592E0,2.283336163E0,-6.639336348E-1,3.210858107E0
5.366945258E0,2.504469156E0,-5.368737578E-1,3.141219378E0
5.383611924E0,2.069533587E0,-1.275943816E-1,3.278663874E0
5.400278590E0,1.313282967E0,1.240819097E-1,3.488190651E0
5.416945256E0,1.313282967E0,1.240819097E-1,3.488190651E0
5.433611922E0,1.313282967E0,1.240819097E-1,3.488190651E0
5.450278588E0,1.313282967E0,1.240819097E-1,3.488190651E0
5.466945254E0,1.313282967E0,1.240819097E-1,3.488190651E0
5.483611920E0,1.313282967E0,1.240819097E-1,3.488190651E0
5.500278586E0,1.336495757E0,1.615202785E0,1.714850187E0
5.516945252E0,1.621769667E0,1.232801437E0,1.441182733E0
5.533611918E0,1.633376122E0,7.697659731E-1,1.193171620E0
5.550278584E0,1.347491384E0,3.244455457E-1,1.007468700E0
5.566945250E0,9.437097311E-1,4.337903559E-1,9.158390164E-1
5.583611916E0,8.453605175E-1,2.008599758E0,8.626937866E-1
5.600278582E0,4.977784455E-1,3.564472437E0,7.014254928E-1
5.616945248E0,2.467130125E-1,4.287125587E0,7.484620810E-1
5.633611914E0,2.344957143E-1,4.135631084E0,5.242747068E-1
5.650278580E0,4.360810816E-1,3.632278442E0,5.268708616E-2
5.666945246E0,7.146354318E-1,3.047680855E0,-4.842630625E-1
5.683611912E0,8.508582711E-1,2.518060923E0,-6.968439817E-1
5.700278578E0,8.209258914E-1,2.043419123E0,-5.984947681E-1
5.716945244E0,6.969203353E-1,1.803960085E0,-3.058905303E-1
5.733611910E0,6.627119184E-1,1.920024395E0,1.382081509E-1
5.750278576E0,6.859247684E-1,1.860159636E0,5.383245945E-1
5.766945242E0,7.567850947E-1,1.407508850E0,7.661771774E-1
5.783611908E0,8.606321216E-1,8.571196198E-1,7.997747064E-1
5.800278574E0,8.795689344E-1,3.659843504E-1,8.743002415E-1
5.816945240E0,8.386409879E-1,1.381317973E-1,1.086881161E0
5.833611906E0,7.995456457E-1,2.651916742E-1,1.363602877E0
5.850278572E0,7.567850947E-1,4.405098557E-1,1.637881160E0
5.866945238E0,7.201332450E-1,3.824777007E-1,1.829692721E0
5.883611904E0,7.323505282E-1,8.254310489E-2,1.836412191E0
5.900278570E0,7.732784748E-1,-3.560578227E-1,1.691637278E0
5.916945236E0,6.004037261E-1,-5.729147792E-1,1.485165000E0
5.933611902E0,2.613737583E-1,-6.975312233E-1,1.304349065E0
5.950278568E0,-5.749764666E-2,-9.821941853E-1,1.205999732E0
5.966945234E0,-1.020907760E-1,-1.098258495E0,1.110094070E0
5.983611900E0,-4.368446767E-1,-5.368737578E-1,1.059392214E0
6.000278566E0,-2.193691730E0,2.293262720E0,1.272125840E-1
6.016945232E0,-2.228511095E0,2.401996613E0,4.169152305E-2
6.033611898E0,-7.887027860E-1,1.406897902E0,3.672824502E-1
6.050278564E0,4.715112448E-1,9.218713045E-1,2.286161482E-1
6.066945230E0,1.134299517E0,8.620065451E-1,3.863719851E-2
6.083611896E0,1.043280721E0,6.567559838E-1,-2.173151523E-1
6.100278562E0,4.470766485E-1,6.414843798E-1,-2.148716897E-1
6.116945228E0,-3.757582009E-1,8.009964228E-2,4.841103405E-2
6.133611894E0,-9.041562080E-1,-6.407207847E-1,2.744309902E-1
6.150278560E0,-8.534544706E-1,-1.606498003E0,5.572614074E-1
6.166945226E0,-8.235220909E-1,-2.102520227E0,7.918334603E-1
6.183611892E0,-9.915099144E-1,-1.416519046E0,7.215840220E-1
6.200278558E0,-9.041562080E-1,-6.590467095E-1,5.047270060E-1
6.216945224E0,-7.092903852E-1,-5.460367799E-1,5.248855352E-1
6.233611890E0,-2.205985487E-1,-1.125747442E0,6.311760545E-1
6.250278556E0,5.118283033E-1,-5.796343088E-1,-2.489273995E-2
6.266945222E0,7.494547367E-1,-7.402917743E-1,-6.656898856E-1
6.283611888E0,9.376010895E-1,-1.648036838E0,-2.564104795E-1
6.300278554E0,1.205770731E0,-2.063424826E0,-4.444041103E-2
6.316945220E0,1.117195368E0,-2.904585600E0,3.507890999E-1
6.333611886E0,5.924624801E-1,-3.668166637E0,8.871283531E-1
6.350278552E0,2.888626754E-1,-3.492237568E0,1.007468700E0
6.366945218E0,4.415788651E-1,-2.727434874E0,1.027016401E0
6.383611884E0,4.440223277E-1,-1.677969217E0,1.340390086E0
6.400278550E0,1.165988147E-1,-1.852676511E0,1.969580770E0
6.416945216E0,-7.215840369E-2,-3.036532402E0,1.905439973E0
6.433611882E0,-3.360520005E-1,-3.357236385E0,1.357494235E0
6.450278548E0,-8.058069944E-1,-3.426875114E0,5.322159529E-1
6.466945214E0,-8.687260747E-1,-3.482463837E0,-3.443750143E-1
6.483611880E0,-7.251728773E-1,-3.545382738E0,-1.263726473E0
6.500278546E0,-4.655553102E-1,-3.207574606E0,-1.883143425E0
6.516945212E0,3.718639165E-2,-2.449491501E0,-1.958279729E0
6.533611878E0,8.056542873E-1,-1.503261805E0,-1.746920586E0
6.550278544E0,1.470885992E0,-1.329776287E0,-1.579543591E0
6.566945210E0,1.908876061E0,-1.196607709E0,-1.394451618E0
6.583611876E0,1.974238634E0,-9.748638272E-1,-1.246622324E0
6.600278542E0,1.736612201E0,-7.451786995E-1,-1.114675522E0
6.616945208E0,1.409188747E0,-5.820778012E-1,-1.048091292E0
6.633611874E0,9.821941853E-1,-5.307651162E-1,-1.012050271E0
6.650278540E0,6.199513674E-1,-2.125045806E-1,-1.032819629E0
6.666945206E0,2.766453922E-1,-2.216675580E-1,-1.036484838E0
6.683611872E0,-1.107192412E-2,-5.613083839E-1,-9.020945430E-1
6.700278538E0,-9.048434347E-2,-1.036561131E0,-6.498073936E-1
6.716945204E0,-3.507127464E-1,-1.210046768E0,-4.451677203E-1
6.733611870E0,-8.998801708E-1,-1.184390426E0,-4.268417656E-1
6.750278536E0,-1.307937860E0,-1.316337228E0,-6.137663722E-1
6.766945202E0,-1.375132918E0,-1.690797329E0,-6.522508860E-1
6.783611868E0,-1.444771528E0,-1.740277410E0,-6.119337678E-1
6.800278534E0,-1.855883598E0,-1.247309566E0,-5.593994260E-1
6.816945200E0,-2.369009972E0,-2.131154537E-1,-4.415025115E-1
6.833611866E0,-2.615799427E0,6.524799466E-1,-4.989238083E-1
6.850278532E0,-2.469802618E0,1.181488872E0,-4.787652791E-1
6.866945198E0,-1.885205030E0,1.584659576E0,-4.292852283E-1
6.883611864E0,-1.210810304E0,1.855272651E0,-3.065013885E-1
6.900278530E0,-5.046506524E-1,2.487517834E0,-4.734201822E-3
6.916945196E0,4.611265361E-1,3.332343817E0,4.882336855E-1
6.933611862E0,1.324278474E0,4.051942348E0,6.580541134E-1
6.950278528E0,1.597334981E0,4.335994720E0,3.984365463E-1
6.966945194E0,1.544800639E0,3.923660755E0,1.974620372E-1
6.983611860E0,1.343826175E0,3.072726250E0,4.326449931E-1
7.000278526E0,1.067715287E0,2.986594200E0,7.228057384E-1
7.016945192E0,8.123738170E-1,3.111821651E0,8.345940113E-1
7.033611858E0,8.190932870E-1,3.026911259E0,7.008146048E-1
7.050278524E0,8.728494048E-1,2.306090832E0,4.595230222E-1
7.066945190E0,8.331431746E-1,1.609705091E0,3.239110410E-1
7.083611856E0,8.087086082E-1,2.014097452E0,4.222602844E-1
7.100278522E0,9.351575971E-1,3.950538874E0,6.818777919E-1
7.116945188E0,1.020067811E0,5.513741970E0,9.928079844E-1
7.133611854E0,7.164680362E-1,6.160036564E0,1.181565166E0
7.150278520E0,2.253327519E-1,6.150873661E0,1.204778075E0
7.166945186E0,-3.130682046E-3,5.777024746E0,1.182176113E0
7.183611852E0,5.856665969E-2,5.089801788E0,1.253036380E0
7.200278518E0,7.322741300E-2,4.044001102E0,1.095433235E0
7.216945184E0,-9.353867173E-2,3.668319464E0,9.133955836E-1
7.233611850E0,-1.473711245E-2,3.388543367E0,7.032580972E-1
7.250278516E0,-1.107192412E-2,3.130147457E0,8.445205539E-2
7.266945182E0,-2.291506529E-1,2.973766088E0,-1.328630932E-2
7.283611848E0,-1.705076247E-1,2.618853569E0,1.937968582E-1
7.300278514E0,2.208199739E0,2.993313789E0,1.675296724E-1
7.316945180E0,1.983401537E0,4.233980179E0,2.335030586E-1
7.333611846E0,1.326111078E0,3.709858179E0,-1.922696829E-1
7.350278512E0,7.134137154E-1,3.367773771E0,-4.867065251E-1
7.366945178E0,3.047451675E-1,3.067839384E0,-5.386300087E-1
7.383611844E0,6.101011857E-2,2.774624109E0,-8.110756874E-1
7.400278510E0,-9.903645515E-2,2.027536631E0,-9.857830405E-1
7.416945176E0,-3.061959706E-2,1.321376920E0,-7.664825916E-1
7.433611842E0,3.792706728E-1,9.505819678E-1,-5.422952175E-1
7.450278508E0,7.952696085E-1,9.902881384E-1,-5.343539715E-1
7.466945174E0,8.923971057E-1,1.431332588E0,-3.889681399E-1
7.483611840E0,4.947241247E-1,2.075184107E0,-4.262309074E-1
7.500278506E0,-4.161516204E-2,2.246836901E0,-8.599448800E-1
7.516945172E0,1.379790753E-1,2.317086458E0,-9.692896605E-1
7.533611838E0,4.287507236E-1,2.224235058E0,-8.263473511E-1
7.550278504E0,2.680932879E-1,1.930409074E0,-8.556688428E-1
7.566945170E0,-2.743546367E-1,1.266399026E0,-1.314428329E0
7.583611836E0,-4.802160859E-1,1.345200658E0,-1.723707676E0
7.600278502E0,-5.492438078E-1,1.390404582E0,-2.132987022E0
7.616945168E0,-4.472293854E-1,1.340313673E0,-2.442084789E0
7.633611834E0,-4.826595485E-1,1.262122989E0,-2.589303017E0
7.650278500E0,-1.369100660E-1,1.303050876E0,-2.573420525E0
7.666945166E0,2.131154537E-1,1.318322539E0,-2.417649984E0
7.683611832E0,5.148826241E-1,1.312213898E0,-2.399935007E0
7.700278498E0,6.419425011E-1,1.366580844E0,-2.139706612E0
7.716945164E0,5.936841965E-1,1.299385786E0,-1.729816318E0
7.733611830E0,6.578249931E-1,1.532125235E0,-1.316871762E0
7.750278496E0,5.637518167E-1,1.419726133E0,-1.140942693E0
7.766945162E0,4.165334105E-1,1.289000988E0,-7.420479655E-1
7.783611828E0,1.288161129E-1,1.456377983E0,-5.099193454E-1
7.800278494E0,-1.167515293E-1,1.822286010E0,-9.453132749E-2
7.816945160E0,-9.414953738E-2,2.455142021E0,1.908952370E-2
7.833611826E0,1.428660005E-1,2.392222881E0,4.428769462E-3
7.850278492E0,-8.132137358E-2,1.364137411E0,5.390881747E-2
7.866945158E0,1.202640012E-1,7.795398235E-1,1.107192412E-1
7.883611824E0,-5.327504277E-1,1.527925581E-1,3.770562708E-1
7.900278490E0,-1.271286011E0,6.512582302E-1,2.591593862E-1
7.916945156E0,-5.962803960E-1,9.481384754E-1,7.179188132E-1
7.933611822E0,4.476875365E-1,7.825941443E-1,1.328172803E0
7.950278488E0,1.123914838E0,1.074587464E0,2.074649572E0
7.966945154E0,1.580841660E0,1.747760534E0,2.727053165E0
7.983611820E0,1.559461474E0,1.720882416E0,3.312872410E0
8.000278486E0,1.456225276E0,2.117944479E0,3.954280376E0
8.016945152E0,1.017013550E0,1.474703908E0,4.033082008E0
8.033611818E0,9.950223565E-1,8.015309572E-1,3.865705013E0
8.050278484E0,1.394527912E0,7.416661978E-1,3.381289244E0
8.066945150E0,1.703625560E0,1.431332588E0,3.534616232E0
8.083611816E0,9.602030516E-1,2.555934668E0,4.326297283E0
8.100278482E0,-4.997637570E-1,1.907196164E0,4.999470234E0
8.116945148E0,-2.984150887E0,-1.491655469E0,2.791804790E0
8.133611814E0,-8.919389248E-1,-7.091376781E-1,3.893193960E0
8.150278480E0,-1.668424457E-1,1.546785951E0,3.438099623E0
8.166945146E0,-1.518686175E0,7.312815189E-1,3.296379089E0
8.183611812E0,-2.117333651E0,-7.396808863E-1,4.496728420E0
8.200278478E0,-2.111225128E0,-2.828838348E0,4.690983295E0
8.216945144E0,-1.063591957E0,-5.137296200E0,4.149146080E0
8.233611810E0,2.870301008E-1,-5.809247494E0,3.615861416E0
8.250278476E0,1.607108831E0,-6.151942730E0,3.232238293E0
8.266945142E0,2.560057878E0,-6.300383091E0,3.011716127E0
8.283611808E0,3.020039082E0,-4.612563610E0,2.897484303E0
8.300278474E0,1.345047832E0,4.060494423E0,3.172984362E0
8.316945140E0,1.193553448E0,1.981110811E0,4.006204128E0
8.333611806E0,1.465999126E0,-9.999092817E-1,4.582249641E0
8.350278472E0,1.792811751E0,-2.549673319E0,4.607295036E0
8.366945138E0,1.187444806E0,-1.150792837E0,3.462534189E0
8.383611804E0,-4.894553870E-2,-1.923460513E-1,1.650098443E0
8.400278470E0,-9.707404971E-1,-3.145190179E-1,-2.655734718E-1
8.416945136E0,-7.807615399E-1,5.681806207E-1,-6.711876988E-1
8.433611802E0,-1.943313628E-1,1.101465583E0,2.397644334E-2
8.450278468E0,1.428660005E-1,7.990874648E-1,3.672824502E-1
8.466945134E0,2.082285285E-1,7.643445581E-2,-5.787943676E-2
8.483611800E0,1.905134469E-1,-4.421897531E-1,-1.336266696E-1
8.500278466E0,3.975966275E-1,-4.690677822E-1,7.651081681E-2
8.516945132E0,3.401753306E-1,-9.876919985E-1,6.429351866E-2
8.533611798E0,4.757873118E-1,-1.951025724E0,4.657844082E-2
8.550278464E0,6.553815603E-1,-3.168479204E0,2.596175298E-3
8.566945130E0,3.908770978E-1,-3.083569050E0,-4.628827870E-1
8.583611796E0,6.039925665E-2,-2.671846151E0,-7.689260244E-1
8.600278462E0,-4.100430012E-2,-2.468428135E0,-1.081077933E0
8.616945128E0,-2.926805913E-1,-2.122067928E0,-1.341306329E0
8.633611794E0,-8.864411712E-1,-2.043266296E0,-1.484859586E0
8.650278460E0,-1.064813614E0,-2.938794136E0,-1.503185511E0
8.666945126E0,-1.696447849E0,-1.806250811E0,-1.217911601E0
8.683611792E0,-2.179031134E0,-1.416442692E-1,-8.373429179E-1
8.700278458E0,-2.498513222E0,1.260290384E0,-3.138317764E-1
8.716945124E0,-1.891924620E0,1.023885727E0,2.829830945E-1
8.733611790E0,-1.246927753E-1,1.734321475E0,2.835939825E-1
8.750278456E0,1.013959169E0,2.676885843E0,-1.440113783E-1
8.766945122E0,1.614439249E0,3.641441345E0,-5.038107038E-1
8.783611788E0,1.535637736E0,3.161301613E0,-1.415220976E0
8.800278454E0,2.304105520E0,3.125871420E0,-1.986990452E0
8.816945120E0,3.643732071E0,7.018301964E0,-9.308052063E-1
8.833611786E0,3.381670952E0,7.467287540E0,8.078686893E-2
8.850278452E0,3.249036968E-1,2.808221817E0,9.457713962E-1
8.866945118E0,-5.413025618E-1,-2.644968033E0,1.399643898E0
8.883611784E0,-6.885209680E-1,-2.925354958E0,1.534645081E0
8.900278450E0,-1.106352448E0,-2.855716467E0,1.075885534E0
8.916945116E0,-1.562668443E0,-3.016984701E0,3.159697950E-1
8.933611782E0,-1.818620801E0,-2.809290648E0,-4.199695215E-2
8.950278448E0,-1.714162946E0,-1.771431446E0,-2.521344423E-1
8.966945114E0,-1.308548689E0,-5.411498547E-1,-6.992874742E-1
8.983611780E0,-9.817360640E-1,5.089266896E-1,-8.953750730E-1
9.000278446E0,-5.590176582E-1,9.096540213E-1,-7.841976881E-1
9.016945112E0,3.041343093E-1,1.006781459E0,-5.679515004E-1
9.033611778E0,1.316948056E0,1.228525400E0,-3.895790279E-1
9.050278444E0,1.674304008E0,1.657963395E0,-3.798051775E-1
9.066945110E0,1.440953612E0,2.234008789E0,-5.111411214E-1
9.083611776E0,1.076267362E0,2.507676363E0,-7.243329287E-1
9.100278442E0,8.917862177E-1,2.068464518E0,-7.848085165E-1
9.116945108E0,4.061487317E-1,1.455156207E0,-5.264127254E-1
9.133611774E0,-4.722748399E-1,2.676351368E-1,8.567378670E-2
9.150278440E0,-6.005564332E-1,-5.515345335E-1,1.882990748E-1
9.166945106E0,-3.959167302E-1,-9.595922232E-1,-2.244928107E-2
9.183611772E0,-4.105774760E-1,-1.261970282E0,-1.360701323E-1
9.200278438E0,-4.985420108E-1,-1.373758554E0,-1.458439678E-1
9.216945104E0,-3.879754841E-1,-1.039004683E0,-5.726857483E-2
9.233611770E0,4.940368980E-2,-7.506000996E-2,-1.030834317E-1
9.250278436E0,4.855611324E-1,7.752637863E-1,-2.173151523E-1
9.266945102E0,5.521454215E-1,9.542471170E-1,-2.093739063E-1
9.283611768E0,4.043161273E-1,6.824123263E-1,-1.806632578E-1
9.300278434E0,2.613737583E-1,4.796051979E-1,-8.903354406E-2
9.316945100E0,1.978438348E-1,4.130209386E-1,-3.039052337E-2
9.333611766E0,1.831830740E-1,2.877936661E-1,3.817904973E-3
9.350278432E0,1.709657758E-1,2.273180634E-1,6.979130208E-2
9.366945098E0,1.446985900E-1,1.888335794E-1,1.137735620E-1
9.383611764E0,7.261654735E-2,5.810851231E-2,1.351538301E-1
9.400278430E0,1.947131567E-2,-1.550832987E-1,1.919642538E-1
9.416945096E0,4.199695308E-3,-3.737728894E-1,3.135263622E-1
9.433611762E0,5.421424750E-3,-5.594757795E-1,4.356993139E-1
9.450278428E0,8.239039034E-2,-3.627773225E-1,5.102248192E-1
9.466945094E0,2.833648920E-1,2.273180634E-1,5.132791400E-1
9.483611760E0,4.458549321E-1,5.810087919E-1,4.473057389E-1
9.500278426E0,5.185478330E-1,6.573668718E-1,3.361283541E-1
9.516945092E0,5.038870573E-1,9.047670960E-1,2.499964088E-1
9.533611758E0,3.811032772E-1,1.090469956E0,1.785252392E-1
9.550278424E0,1.709657758E-1,8.510109782E-1,1.229365394E-1
9.566945090E0,-3.000873141E-2,5.877282619E-1,6.918043643E-2
9.583611756E0,-1.723402292E-1,6.872228696E-4,6.261364091E-3
9.600278422E0,-2.981783748E-1,-8.087086082E-1,1.113301069E-1
9.616945088E0,-5.254200697E-1,-1.523420453E0,3.434587121E-1
9.633611754E0,-8.045852780E-1,-2.054872751E0,4.766272306E-1
9.650278420E0,-9.573014379E-1,-2.265621185E0,5.175551772E-1
9.666945086E0,-9.713513851E-1,-2.260123253E0,5.890263915E-1
9.683611752E0,-9.065997005E-1,-2.294331789E0,6.250674129E-1
9.700278418E0,-7.770963311E-1,-2.163606644E0,5.218312144E-1
9.716945084E0,-6.744710803E-1,-1.944306254E0,3.636172712E-1
9.733611750E0,-6.194932461E-1,-1.781816244E0,3.153589368E-1
9.750278416E0,-5.834522247E-1,-1.671249628E0,2.793179154E-1
9.766945082E0,-6.353757381E-1,-1.514257431E0,2.139553875E-1
9.783611748E0,-7.007382512E-1,-1.376201987E0,1.516471803E-1
9.800278414E0,-6.732493639E-1,-1.205770731E0,8.200860023E-2
9.816945080E0,-6.176606417E-1,-1.065271854E0,7.040216774E-2
9.833611746E0,-5.712349415E-1,-1.026787281E0,9.361502528E-2
9.850278412E0,-5.022072196E-1,-8.569669127E-1,1.217148080E-1
9.866945078E0,-4.313468933E-1,-7.390699983E-1,1.290451884E-1
9.883611744E0,-4.191296101E-1,-6.321687102E-1,8.261945844E-2
9.900278410E0,-4.637227356E-1,-3.304014802E-1,-1.389717404E-2
9.916945076E0,-6.139954329E-1,7.338013500E-2,-1.330158114E-1
9.933611742E0,-8.363502622E-1,3.702604175E-1,-1.715002805E-1
9.950278408E0,-1.162551999E0,7.844267488E-1,-1.171333194E-1
9.966945074E0,-1.788077593E0,8.473458290E-1,-4.444041103E-2
9.983611740E0,-2.491183043E0,6.903535724E-1,-5.421425030E-2
1.000027841E1,-2.911458015E0,9.273691177E-1,-1.134681329E-1
1.001694507E1,-3.219333649E0,9.896773100E-1,-1.708894223E-1
1.003361174E1,-3.123427868E0,1.814955592E0,-2.356410921E-1
1.005027840E1,-2.477743864E0,3.148473501E0,-4.353938699E-1
1.006694507E1,-2.602971077E0,8.186351657E-1,-6.339249015E-1
1.008361174E1,-3.418475628E0,-8.178715706E-1,-2.429714650E-1
1.010027840E1,-2.558377981E0,2.847393453E-1,-2.228129357E-1
1.011694507E1,-1.009835839E0,1.507690668E0,-4.219548404E-1
1.013361173E1,2.216675580E-1,1.227914572E0,-7.939714789E-1
1.015027840E1,5.020545125E-1,3.006218374E-1,-1.223409414E0
1.016694507E1,5.093848705E-1,-4.904480577E-1,-1.508683324E0
1.018361173E1,5.112174749E-1,-1.050611019E0,-1.424383998E0
1.020027840E1,4.880045950E-1,-1.581452608E0,-1.211802959E0
1.021694506E1,5.240456462E-1,-1.671249628E0,-1.087186575E0
1.023361173E1,6.682097316E-1,-1.619326115E0,-9.882264733E-1
1.025027840E1,7.573959827E-1,-1.555185318E0,-8.801034093E-1
1.026694506E1,8.923971057E-1,-1.627267361E0,-8.526145220E-1
1.028361173E1,9.925789237E-1,-1.459890485E0,-1.018769741E0
1.030027839E1,9.149990678E-1,-9.156099558E-1,-1.381012559E0
1.031694506E1,8.447496295E-1,-4.464657903E-1,-1.812283039E0
1.033361173E1,9.467640519E-1,-1.673005968E-1,-2.103054762E0
1.035027839E1,8.820123672E-1,-7.017309219E-2,-2.150702238E0
1.036694506E1,4.782307744E-1,1.534034163E-1,-1.845880628E0
1.038361172E1,4.073704481E-1,4.142426848E-1,-1.353523612E0
1.040027839E1,5.301542878E-1,6.256018877E-1,-1.263726473E0
1.041694506E1,4.739547074E-1,1.043433428E0,-1.228907228E0
1.043361172E1,2.870301008E-1,1.469206095E0,-1.235015869E0
1.045027839E1,-7.276926935E-2,1.834503293E0,-1.143386126E0
1.046694505E1,-1.503490955E-1,2.052582026E0,-8.782708645E-1
1.048361172E1,2.313650399E-2,2.118555307E0,-5.227475166E-1
1.050027839E1,-1.271362305E-1,2.002490997E0,-7.070759684E-2
1.051694505E1,-3.354411125E-1,1.976834774E0,1.760817766E-1
1.053361172E1,-1.735619605E-1,1.841222763E0,8.872810751E-2
1.055027838E1,2.754236460E-1,1.962174058E0,-2.686277926E-1
1.056694505E1,8.019890785E-1,2.055025578E0,-7.719803452E-1
1.058361172E1,9.986875653E-1,1.429499984E0,-1.151938200E0
1.060027838E1,7.292962074E-1,4.679987729E-1,-1.508072376E0
1.061694505E1,-6.910407543E-2,-9.021708965E-1,-1.453094602E0
1.063361171E1,-3.158934414E-1,-1.312672019E0,-6.748528481E-1
1.065027838E1,-1.149189398E-1,-1.570456982E0,-3.382663727E-1
1.066694505E1,-1.436295807E-1,-1.283961415E0,-1.519526094E-1
1.068361171E1,-3.550651670E-2,-9.266055226E-1,3.680460155E-2
1.070027838E1,8.177952468E-2,-8.050433993E-1,1.736383140E-1
1.071694504E1,9.705114365E-2,-1.067715287E0,3.727802336E-1
1.073361171E1,4.199695308E-3,-1.614439249E0,5.505418777E-1
1.075027838E1,-1.436295807E-1,-2.173380613E0,6.971494555E-1
1.076694504E1,-1.851683855E-1,-2.222860575E0,7.741183639E-1
1.078361171E1,-1.283579618E-1,-1.826409340E0,8.486438990E-1
1.080027837E1,-1.351538301E-2,-1.318780661E0,9.842558503E-1
1.081694504E1,1.379790753E-1,-8.038216829E-1,1.164461017E0
1.083361171E1,2.143371850E-1,-3.267363012E-1,1.375209332E0
1.085027837E1,2.192240953E-1,5.749764666E-2,1.559079647E0
1.086694504E1,2.247218788E-1,3.494910002E-1,1.647044182E0
1.088361170E1,2.399934977E-1,6.738601923E-1,1.638492107E0
1.090027837E1,2.815323174E-1,1.285335898E0,1.608559728E0
1.091694504E1,4.061487317E-1,2.268828154E0,1.606116176E0
1.093361170E1,4.776198864E-1,2.880303860E0,1.676976562E0
1.095027837E1,5.551997423E-1,2.638401270E0,1.802814722E0
1.096694503E1,8.875101805E-1,1.849164009E0,1.758221507E0
1.098361170E1,1.379867196E0,1.207756042E0,1.622609615E0
1.100027837E1,1.572900414E0,8.613957167E-1,1.426522017E0
1.101694503E1,1.619937062E0,8.479566574E-1,1.328783631E0
1.103361170E1,1.630932570E0,7.245619893E-1,1.257923245E0
1.105027836E1,1.478216410E0,5.119810700E-1,1.165071845E0
1.106694503E1,1.101923704E0,1.473711245E-2,1.037401080E0
1.108361170E1,7.201332450E-1,-2.589302957E-1,9.518800378E-1
1.110027836E1,5.283216834E-1,-2.986365259E-1,8.333722949E-1
1.111694503E1,5.490911007E-1,-2.796997130E-1,7.246383429E-1
1.113361169E1,4.550178945E-1,-3.682751060E-1,7.319687009E-1
1.115027836E1,2.845866382E-1,-6.065123677E-1,8.144354820E-1
1.116694503E1,1.312595755E-1,-9.394336939E-1,9.256128669E-1
1.118361169E1,5.856665969E-2,-5.460367799E-1,7.539598346E-1
1.120027836E1,8.239039034E-2,7.441096306E-1,3.074176908E-1
1.121694502E1,-2.596938908E-1,7.538834810E-1,2.255618125E-1
1.123361169E1,3.615556061E-1,1.733710647E0,3.813323379E-1
1.125027836E1,1.170340538E0,2.535852492E-1,1.051450968E0
1.126694502E1,1.677358270E0,-1.511813998E0,1.308014154E0
1.128361169E1,7.671698332E-1,-1.491044521E0,1.098487616E0
1.130027835E1,-1.509599537E-1,-1.046945930E0,3.355174661E-1
1.131694502E1,-8.558979034E-1,-1.552131057E0,-9.002619982E-1
1.133361169E1,-1.221195102E0,-1.442786217E0,-1.465311885E0
1.135027835E1,2.931387424E-1,5.168679357E-1,-1.936288595E0
1.136694502E1,9.388228059E-1,5.138136148E-1,-1.887419462E0
1.138361168E1,4.373028278E-1,9.048434347E-2,-1.045647740E0
1.140027835E1,5.673406646E-2,-1.611919403E-1,-4.189005196E-1
1.141694502E1,7.811433077E-2,8.926261961E-2,-1.061377525E-1
1.143361168E1,2.369391769E-1,2.389244884E-1,-1.415679157E-1
1.145027835E1,-7.154753804E-2,2.615264952E-1,-3.352120519E-1
1.146694501E1,-1.863901168E-1,2.322049737E-1,-5.508472919E-1
1.148361168E1,-2.878700197E-2,3.922515512E-1,-5.306887627E-1
1.150027835E1,-6.299543381E-2,7.092903852E-1,-1.450803876E-2
1.151694501E1,-5.322159454E-2,9.524145722E-1,2.903134823E-1
1.153361168E1,8.116865903E-2,1.437441230E0,2.915352285E-1
1.155027834E1,2.435823344E-2,1.319544315E0,-5.849030241E-2
1.156694501E1,2.412152290E-1,1.583437920E0,-1.525634825E-1
1.158361168E1,9.094249457E-2,1.686673999E0,-2.044869810E-1
1.160027834E1,1.117118970E-1,1.413617492E0,2.023489624E-1
1.161694501E1,2.106719911E-1,1.391015410E0,1.828012913E-1
1.163361167E1,3.218493760E-1,1.499749422E0,1.113301069E-1
1.165027834E1,3.639990389E-1,1.466151834E0,-7.177661173E-3
1.166694501E1,4.788416326E-1,1.713552117E0,1.542433538E-2
1.168361167E1,2.949713171E-1,1.454545379E0,-7.177661173E-3
1.170027834E1,2.271653414E-1,1.529681802E0,-1.372918636E-1
1.171694500E1,1.269835234E-1,1.736764908E0,-2.643517256E-1
1.173361167E1,2.130390890E-2,1.811290383E0,-3.089448512E-1
1.175027834E1,-1.436295807E-1,2.293873549E0,-1.531743407E-1
1.176694500E1,-1.735619605E-1,2.807610989E0,-9.392046183E-2
1.178361167E1,-1.937204897E-1,3.257818222E0,5.818486959E-2
1.180027833E1,-1.387426704E-1,3.428249598E0,2.396117151E-1
1.181694500E1,-1.375209391E-1,3.201618671E0,2.829830945E-1
1.183361167E1,-1.412624773E-2,2.760574341E0,3.306305707E-1
1.185027833E1,1.300378442E-1,2.484463453E0,2.652680278E-1
1.186694500E1,2.436586916E-1,2.361068726E0,4.222602844E-1
1.188361166E1,3.114646673E-1,2.333579779E0,5.285507441E-1
1.190027833E1,3.212385178E-1,2.192470074E0,6.220130324E-1
1.191694500E1,2.546542585E-1,1.830227256E0,5.303833485E-1
1.193361166E1,1.874591261E-1,1.866268277E0,5.309942365E-1
1.195027833E1,1.184314117E-1,1.888259411E0,5.951350331E-1
1.196694499E1,9.582941234E-2,3.163745165E0,4.864010811E-1
1.198361166E1,1.935677826E-1,3.033630848E0,6.305651665E-1
1.200027833E1,3.639990389E-1,2.439259529E0,8.028290272E-1
1.201694499E1,4.440223277E-1,2.011654139E0,7.435751557E-1
1.203361166E1,3.456731141E-1,1.836946726E0,4.057669342E-1
1.205027832E1,1.899025887E-1,1.959730625E0,3.391826749E-1
1.206694499E1,1.056032479E-1,2.152763844E0,2.603811026E-1
1.208361166E1,8.788817376E-2,2.391612053E0,3.434587121E-1
1.210027832E1,2.418260872E-1,1.966450095E0,5.505418777E-1
1.211694499E1,4.085921645E-1,1.194927812E0,7.203623056E-1
1.213361165E1,3.407861888E-1,8.436806202E-1,6.757691503E-1
1.215027832E1,4.770090282E-1,1.340313673E0,5.480984449E-1
1.216694499E1,4.000400603E-1,1.990884662E0,3.562868834E-1
1.218361165E1,2.943604589E-1,2.010432243E0,1.522580534E-1
1.220027832E1,2.827540338E-1,1.103298187E0,-4.581485991E-4
1.221694498E1,-3.306305781E-2,4.075231552E-1,-2.368628234E-1
1.223361165E1,-5.058723688E-1,3.384954333E-1,-7.041743994E-1
1.225027832E1,-6.879100800E-1,8.925498128E-1,-7.163916826E-1
1.226694498E1,-7.575486898E-1,1.930409074E0,-3.346011937E-1
1.228361165E1,-6.543125510E-1,2.595029831E0,2.487746775E-1
1.230027831E1,-4.179078639E-1,2.518671751E0,6.580541134E-1
1.231694498E1,-2.407570779E-1,3.158858061E0,8.413135409E-1
1.233361165E1,-4.405862093E-2,2.223013401E0,7.545707226E-1
1.235027831E1,2.424369603E-1,1.201036572E0,5.346593857E-1
1.236694498E1,3.175733387E-1,1.103298187E0,4.973966479E-1
1.238361164E1,4.605156779E-1,1.185154080E0,7.325795889E-1
1.240027831E1,5.429824591E-1,9.487493634E-1,1.041066289E0
1.241694498E1,6.297252178E-1,8.198568821E-1,1.074663877E0
1.243361164E1,7.421243787E-1,-5.917752534E-2,6.635518670E-1
1.245027831E1,5.790234804E-1,-6.975312233E-1,3.239110410E-1
1.246694497E1,1.251509190E-1,-3.933205605E-1,-1.653916389E-1
1.248361164E1,-6.060542464E-1,1.350774765E-1,-4.329504073E-1
1.250027831E1,-9.884555936E-1,-1.825722158E-1,-2.338084877E-1
1.251694497E1,-7.752637863E-1,-2.173915058E-1,5.818486959E-2
1.253361164E1,-5.626828074E-1,-1.324812919E-1,9.789107740E-2
1.255027830E1,-4.185187221E-1,-1.850156635E-1,5.451968312E-2
1.256694497E1,-2.010508776E-1,-3.811032772E-1,5.451968312E-2
1.258361164E1,-1.827249229E-1,-5.723039508E-1,-4.382954910E-2
1.260027830E1,-1.912770271E-1,-8.826232553E-1,-9.819651395E-2
1.261694497E1,-1.766162813E-1,-1.003574491E0,-1.769980639E-1
1.263361163E1,-1.729510874E-1,-6.993638277E-1,-3.455967605E-1
1.265027830E1,-1.937204897E-1,-8.972076327E-2,-4.964803457E-1
1.266694497E1,-1.466839015E-1,5.223657489E-1,-5.337430835E-1
1.268361163E1,-1.228601784E-1,7.074577808E-1,-2.771798968E-1
1.270027830E1,2.741255611E-2,6.769145131E-1,2.145662606E-1
1.271694496E1,1.172096804E-1,4.863247275E-1,5.731438994E-1
1.273361163E1,6.589704007E-2,3.274998665E-1,4.344775677E-1
1.275027830E1,6.467530876E-2,2.377027571E-1,3.863719851E-2
1.276694496E1,-5.749764666E-2,6.971494108E-2,-1.653916389E-1
1.278361163E1,5.490147322E-2,2.206749097E-2,-2.564104795E-1
1.280027829E1,2.772562504E-1,-1.954003721E-1,-2.173151523E-1
1.281694496E1,8.177952468E-2,-5.136609077E-1,-7.803797722E-2
1.283361163E1,7.322741300E-2,-4.507418573E-1,-1.177441850E-1
1.285027829E1,8.849903196E-2,-2.363283187E-1,-2.130390853E-1
1.286694496E1,5.001455545E-2,-3.859901726E-1,-2.350302190E-1
1.288361162E1,1.275180187E-2,-6.071232557E-1,-1.928805560E-1
1.290027829E1,-4.955640435E-2,-6.217839718E-1,-1.452330947E-1
1.291694496E1,-1.051450968E-1,-5.350412130E-1,-1.311832070E-1
1.293361162E1,-8.132137358E-2,-4.696786702E-1,-5.787943676E-2
1.295027829E1,-7.399099320E-2,-3.285689056E-1,4.413498193E-2
1.296694495E1,-7.215840369E-2,-2.076176703E-1,7.406735420E-2
1.298361162E1,-3.978256881E-2,-1.477529258E-1,7.483093534E-3
1.300027829E1,1.519526169E-2,-3.322340846E-1,-1.756236330E-2
1.301694495E1,1.145371469E-3,-4.843394160E-1,3.558287397E-2
1.303361162E1,-1.901316643E-2,-6.370556355E-1,-1.511890348E-2
1.305027828E1,5.184714869E-2,-5.442041755E-1,-1.543960720E-1
1.306694495E1,1.245400533E-1,-4.379136860E-1,-1.769980639E-1
1.308361162E1,1.282052398E-1,-3.688859642E-1,-1.501200199E-1
1.310027828E1,9.460768104E-2,-3.267363012E-1,-9.453132749E-2
1.311694495E1,5.421424750E-3,-2.314413935E-1,1.053741761E-2
1.313361161E1,-4.039343446E-2,-1.666897237E-1,7.162389904E-2
1.315027828E1,-5.199986324E-2,-1.422551423E-1,1.058323234E-1
1.316694495E1,-5.383246019E-2,-1.538615674E-1,1.950185746E-1
1.318361161E1,-4.405862093E-2,-5.245801434E-2,2.328922004E-1
1.320027828E1,-1.473711245E-2,2.695440874E-2,1.650862098E-1
1.321694494E1,-1.473711245E-2,-2.473238707E-1,1.053741761E-2
1.323361161E1,2.977965865E-3,-4.867828786E-1,-9.941824526E-2
1.325027828E1,-1.298087649E-3,-5.044979453E-1,-8.109229803E-2
1.326694494E1,9.697478265E-3,-4.122573733E-1,-4.932733253E-2
1.328361161E1,1.947131567E-2,-3.310123384E-1,-3.833176568E-2
1.330027827E1,1.702785492E-2,-2.632063627E-1,-3.649916872E-2
1.331694494E1,2.496909723E-2,-2.210566849E-1,-3.588830680E-2
1.333361161E1,2.863428742E-2,-1.905134469E-1,-6.566796452E-3
1.335027827E1,3.168861195E-2,-1.147662178E-1,2.397644334E-2
1.336694494E1,7.864884101E-3,-1.098793000E-1,4.352411628E-2
1.338361160E1,2.741255611E-2,7.582359016E-2,1.603520103E-2
1.340027827E1,7.444914430E-2,7.704532146E-2,3.802633286E-2
1.341694494E1,9.827287495E-2,3.250564337E-1,9.544762224E-2
1.343361160E1,7.872519642E-2,3.794233799E-1,1.211039424E-1
1.345027827E1,1.007163301E-1,4.234056473E-1,8.933897316E-2
1.346694493E1,1.385899484E-1,3.879754841E-1,6.856957078E-2
1.348361160E1,6.589704007E-2,3.012326956E-1,1.107192412E-1
1.350027827E1,9.460768104E-2,1.967748106E-1,1.443168074E-1
1.351694493E1,1.092684343E-1,9.048434347E-2,1.266017258E-1
1.353361160E1,9.888373315E-2,-1.172096804E-1,1.363755614E-1
1.355027826E1,5.490147322E-2,-1.923460513E-1,1.479819864E-1
1.356694493E1,4.329504073E-2,-1.947895139E-1,1.815795600E-1
1.358361160E1,9.033162892E-2,-9.094249457E-2,1.882990748E-1
1.360027826E1,9.582941234E-2,1.161406636E-1,2.194531709E-1
1.361694493E1,9.338594973E-2,1.637881249E-1,2.341139317E-1
1.363361159E1,8.605557680E-2,1.289688200E-1,1.980729103E-1
1.365027826E1,7.750347257E-2,4.528035223E-2,1.626427472E-1
1.366694493E1,7.383827865E-2,9.903645515E-2,1.601992846E-1
1.368361159E1,8.483384550E-2,1.301905513E-1,1.669187993E-1
1.370027826E1,8.361211419E-2,1.130863428E-1,1.913533956E-1
1.371694492E1,8.239039034E-2,9.903645515E-2,2.432768941E-1
1.373361159E1,7.994692773E-2,9.659299254E-2,2.732092738E-1
1.375027826E1,6.589704007E-2,1.540142894E-1,2.658788860E-1
1.376694492E1,6.406444311E-2,1.845575273E-1,2.267835438E-1
1.378361159E1,3.413207084E-2,1.986074150E-1,1.785252392E-1
1.380027825E1,2.008217946E-2,2.169333547E-1,1.589775532E-1
1.381694492E1,6.834049523E-2,2.835176289E-1,1.528689116E-1
1.383361159E1,1.220965981E-1,3.610974550E-1,1.577558219E-1
1.385027825E1,1.642462611E-1,4.154644012E-1,2.102901936E-1
1.386694492E1,1.801287532E-1,4.368446767E-1,2.701549530E-1
1.388361158E1,1.911243200E-1,4.234056473E-1,2.878700197E-1
1.390027825E1,2.137263119E-1,3.391063213E-1,2.793179154E-1
1.391694492E1,2.247218788E-1,2.755763829E-1,2.903134823E-1
1.393361158E1,2.143371850E-1,1.821140647E-1,3.251327872E-1
1.395027825E1,1.813504845E-1,6.116283685E-2,3.043633699E-1
1.396694491E1,7.078395784E-2,1.650098413E-1,2.493855506E-1
1.398361158E1,-7.093667239E-2,2.896262705E-1,1.828012913E-1
1.400027825E1,-2.248746008E-1,5.577958822E-1,1.015562713E-1
1.401694491E1,-3.397171795E-1,7.722094655E-1,-1.311832070E-1
1.403361158E1,-3.305542171E-1,9.267582297E-1,-4.738783538E-1
1.405027824E1,-3.439932168E-1,1.003116369E0,-8.678861260E-1
1.406694491E1,-4.979311526E-1,9.878447056E-1,-1.228907228E0
1.408361158E1,-6.787471175E-1,8.607848287E-1,-1.492189884E0
1.410027824E1,-8.326850533E-1,3.433823586E-1,-1.675449371E0
1.411694491E1,-9.316451550E-1,1.081994250E-1,-1.800065756E0
1.413361157E1,-1.004948974E0,5.383246019E-2,-1.781129003E0
1.415027824E1,-7.599921227E-1,3.244455457E-1,-1.715766430E0
1.416694491E1,-4.734965563E-1,6.439278126E-1,-1.682779789E0
1.418361157E1,-3.439932168E-1,9.792925715E-1,-1.509904981E0
1.420027824E1,-1.601229310E-1,9.676861763E-1,-1.084743142E0
1.421694490E1,-2.206749097E-2,8.784999251E-1,-7.267763615E-1
1.423361157E1,7.811433077E-2,1.013501048E0,-5.936078429E-1
1.425027824E1,1.220965981E-1,1.260901213E0,-6.265945435E-1
1.426694490E1,1.147662178E-1,1.174769282E0,-6.589703560E-1
1.428361157E1,1.190422773E-1,1.026940107E0,-6.882919073E-1
1.430027823E1,1.001054645E-1,8.100830317E-1,-7.102830410E-1
1.431694490E1,1.080467105E-1,6.775254011E-1,-7.261655331E-1
1.433361157E1,1.666897237E-1,7.270054221E-1,-8.019127250E-1
1.435027823E1,3.077994883E-1,8.113048077E-1,-8.868229389E-1
1.436694490E1,3.835467100E-1,6.420952678E-1,-9.460768104E-1
1.438361156E1,3.084103465E-1,4.722748399E-1,-7.872520089E-1
1.440027823E1,2.491564751E-1,3.617083132E-1,-5.508472919E-1
1.441694490E1,3.749946058E-1,2.994000912E-1,-4.066832364E-1
1.443361156E1,4.721221030E-1,1.100320220E-1,-2.179260105E-1
1.445027823E1,5.277107954E-1,6.666062027E-2,-4.871646687E-2
1.446694489E1,5.606974959E-1,6.849320978E-2,6.979130208E-2
1.448361156E1,5.619192123E-1,2.756527252E-2,1.375972927E-1
1.450027823E1,5.393172503E-1,8.620829135E-2,2.011272311E-1
1.451694489E1,5.307651162E-1,-4.199695308E-3,2.512181401E-1
1.453361156E1,5.423715711E-1,-2.131154537E-1,2.811505198E-1
1.455027822E1,5.558105707E-1,-1.605810821E-1,1.870773435E-1
1.456694489E1,5.338194370E-1,-8.666644245E-2,-1.267544460E-2
1.458361156E1,4.935023785E-1,-9.086613543E-3,-1.201876476E-1
1.460027822E1,5.270999670E-1,-7.017309219E-2,-6.459894776E-2
1.461694489E1,4.904480577E-1,-4.199695308E-3,-1.116355360E-1
1.463361155E1,4.544070363E-1,4.521162808E-1,-3.388772309E-1
1.465027822E1,5.533671379E-1,7.606030107E-1,-3.804160357E-1
1.466694489E1,7.109702229E-1,8.174134493E-1,-2.857320011E-1
1.468361155E1,6.975312233E-1,9.267582297E-1,-2.655734718E-1
1.470027822E1,4.446332157E-1,7.948114276E-1,-3.352120519E-1
1.471694488E1,5.673406646E-2,5.162571073E-1,-4.396699369E-1
1.473361155E1,-2.358701676E-1,2.859610617E-1,-3.791943192E-1
1.475027822E1,-3.458258212E-1,2.083812505E-1,-2.521344423E-1
1.476694488E1,-4.319577515E-1,1.924987584E-1,-1.550069451E-1
1.478361155E1,-5.535198450E-1,3.085630834E-1,-1.513417512E-1
1.480027821E1,-7.031817436E-1,4.020253718E-1,-1.721111536E-1
1.481694488E1,-8.925498128E-1,2.994000912E-1,-1.598938555E-1
1.483361155E1,-9.670752883E-1,3.305542171E-1,1.374445739E-3
1.485027821E1,-9.627992511E-1,3.281107545E-1,1.559232324E-1
1.486694488E1,-9.768491387E-1,1.784488708E-1,2.017380893E-1
1.488361154E1,-1.002505422E0,1.185841262E-1,1.742491722E-1
1.490027821E1,-7.746528983E-1,3.317759335E-1,8.384118974E-2
1.491694488E1,-4.887681901E-1,3.537670672E-1,-9.621120058E-3
1.493361154E1,-5.150353909E-1,5.994110554E-2,-9.269873053E-2
1.495027821E1,-7.862593532E-1,-2.367100911E-3,-1.678351015E-1
1.496694487E1,-1.095967770E0,-4.146244749E-2,-1.159115955E-1
1.498361154E1,-1.320765972E0,-2.985601686E-2,-6.337722391E-2
1.500027821E1,-1.320765972E0,2.756527252E-2,-1.305723488E-1
1.501694487E1,-1.141782641E0,1.136972085E-1,-2.344193608E-1
1.503361154E1,-9.530254006E-1,1.857792437E-1,-3.572031856E-1
1.505027820E1,-6.524799466E-1,2.456440032E-1,-4.384481907E-1
1.506694487E1,-3.782016635E-1,3.855320215E-1,-3.938550651E-1
1.508361154E1,-3.397171795E-1,2.077703774E-1,-3.688096106E-1
1.510027820E1,-3.647626340E-1,1.686750352E-1,-3.272708058E-1
1.511694487E1,-3.714821339E-1,1.509599537E-1,-2.936732471E-1
1.513361153E1,-3.201695085E-1,8.009964228E-2,-3.596466482E-1
1.515027820E1,-1.698967665E-1,1.045342386E-1,-3.455967605E-1
1.516694487E1,5.917752534E-2,1.802814752E-1,-1.886045039E-1
1.518361153E1,2.888626754E-1,2.847393453E-1,-1.305723488E-1
1.520027820E1,6.999746561E-1,5.003746152E-1,-2.338084877E-1
1.521694486E1,1.199662089E0,5.419133902E-1,-3.718639314E-1
1.523361153E1,1.489822865E0,5.639045238E-1,-6.229293346E-1
1.525027820E1,1.357265234E0,7.276163101E-1,-8.080213666E-1
1.526694486E1,1.020067811E0,1.048931241E0,-7.518218160E-1
1.528361153E1,6.737074852E-1,3.824777007E-1,-7.591522336E-1
1.530027819E1,-1.033125073E-1,-3.450622559E-1,-5.972730517E-1
1.531694486E1,-5.095375776E-1,-6.113992929E-1,-2.570213675E-1
1.533361153E1,-4.429533184E-1,-3.627773225E-1,4.413498193E-2
1.535027819E1,-1.283579618E-1,-9.216422588E-2,1.725693047E-2
1.536694486E1,3.670533597E-1,6.116283685E-2,-5.421425030E-2
1.538361152E1,8.826232553E-1,3.745364547E-1,-8.231402934E-2
1.540027819E1,1.154458046E0,4.722748399E-1,1.970038936E-2
1.541694486E1,1.117806196E0,4.618901312E-1,2.866483033E-1
1.543361152E1,9.211077094E-1,4.453967810E-1,4.369210303E-1
1.545027819E1,6.657662392E-1,2.725220621E-1,5.774199367E-1
1.546694485E1,5.442041755E-1,6.360629201E-2,6.830995679E-1
1.548361152E1,5.203804374E-1,-8.239039034E-2,7.405208349E-1
1.550027819E1,5.405389667E-1,-1.966221035E-1,7.912226319E-1
1.551694485E1,5.686387420E-1,-1.825722158E-1,8.895718455E-1
1.553361152E1,5.741365552E-1,-2.222784162E-1,9.518800378E-1
1.555027818E1,5.582540631E-1,-2.882518172E-1,8.211549520E-1
1.556694485E1,4.880045950E-1,-3.108538091E-1,5.554288030E-1
1.558361152E1,4.537961781E-1,-2.289979309E-1,4.008800089E-1
1.560027818E1,4.623482823E-1,-1.654679924E-1,4.247037470E-1
1.561694485E1,5.099957585E-1,-6.528617442E-2,5.236638188E-1
1.563361151E1,5.741365552E-1,4.589121789E-2,6.629409790E-1
1.565027818E1,5.814669132E-1,8.132137358E-2,8.571959734E-1
1.566694485E1,5.753582716E-1,1.613446623E-1,1.021518588E0
1.568361151E1,5.545888543E-1,2.517526448E-1,1.127809048E0
1.570027818E1,5.338194370E-1,2.083812505E-1,1.203556299E0
1.571694484E1,4.941132367E-1,1.778380126E-1,1.345887780E0
1.573361151E1,4.635699987E-1,2.157116234E-1,1.449123979E0
1.575027818E1,4.373028278E-1,2.816850245E-1,1.446069598E0
1.576694484E1,3.475056887E-1,2.352592945E-1,1.381317973E0
1.578361151E1,2.638172209E-1,2.560287118E-1,1.257312417E0
1.580027817E1,1.789070219E-1,2.047160566E-1,1.081994295E0
1.581694484E1,1.037706509E-1,6.421715766E-2,9.451605082E-1
1.583361151E1,5.734493211E-2,-3.413207084E-2,7.808378935E-1
1.585027817E1,6.284271181E-2,3.672824427E-2,6.647735834E-1
1.586694484E1,5.978839099E-2,4.283689335E-2,7.692314982E-1
1.588361150E1,1.422551423E-1,8.804088831E-2,9.512691498E-1
1.590027817E1,3.084103465E-1,2.010508776E-1,1.097265840E0
1.591694484E1,4.140899479E-1,2.560287118E-1,1.129030824E0
1.593361150E1,4.635699987E-1,3.433823586E-1,1.091157198E0
1.595027817E1,3.542252183E-1,3.470475674E-1,9.732602835E-1
1.596694483E1,2.393826395E-1,3.727038801E-1,7.741183639E-1
1.598361150E1,8.475748822E-3,3.788125217E-1,6.995928884E-1
1.600027817E1,-5.077813566E-2,6.127737164E-1,7.594576478E-1
1.601694483E1,-1.344666034E-1,6.097193956E-1,6.275108457E-1
1.603361150E1,-1.173623949E-1,8.296307325E-1,5.450441241E-1
1.605027816E1,-4.161516204E-2,8.064178824E-1,4.912880063E-1
1.606694483E1,4.818195850E-2,9.078214169E-1,4.436405599E-1
1.608361150E1,1.990655661E-1,1.086193919E0,4.014908671E-1
1.610027816E1,1.679114550E-1,1.017777085E0,2.945895493E-1
1.611694483E1,1.947895139E-1,9.737948179E-1,2.585485280E-1
1.613361149E1,2.925278842E-1,7.306706309E-1,2.988655865E-1
1.615027816E1,2.320522517E-1,4.362338185E-1,3.391826749E-1
1.616694483E1,5.306887627E-2,3.653734922E-1,2.060141414E-1
1.618361149E1,-1.289688200E-1,6.011673212E-1,3.207040019E-3
1.620027816E1,-2.364810258E-1,7.441096306E-1,-2.977965772E-2
1.621694482E1,-2.157116234E-1,6.573668718E-1,-3.772090003E-2
1.623361149E1,-2.157116234E-1,5.602393746E-1,-5.238165334E-2
1.625027816E1,-1.784488708E-1,6.115520000E-1,2.275471389E-2
1.626694482E1,-2.719111741E-1,4.600575268E-1,8.750637621E-2
1.628361149E1,-3.537670672E-1,3.403280377E-1,1.174387559E-1
1.630027815E1,-3.641517758E-1,1.589011997E-1,1.198822111E-1
1.631694482E1,-3.910298049E-1,9.170607477E-2,3.191768378E-2
1.633361149E1,-3.507127464E-1,2.157116234E-1,-7.788525894E-3
1.635027815E1,-2.596938908E-1,2.493091822E-1,-5.665770918E-2
1.636694482E1,-1.778380126E-1,2.328158319E-1,-1.635590494E-1
1.638361148E1,-2.126573026E-1,1.839466542E-1,-3.339903057E-1
1.640027815E1,-1.448513120E-1,2.743546367E-1,-5.740602016E-1
1.641694482E1,-9.781472385E-2,1.356883347E-1,-7.695369124E-1
1.643361148E1,-2.023489587E-2,1.692859083E-1,-8.739947677E-1
1.645027815E1,7.078395784E-2,3.329976499E-1,-9.198096395E-1
1.646694481E1,1.440877318E-1,3.452149630E-1,-8.849903345E-1
1.648361148E1,8.300124854E-2,2.865719497E-1,-8.153517842E-1
1.650027815E1,-9.170607477E-2,3.769799173E-1,-6.895136237E-1
1.651694481E1,-2.554178238E-1,3.586539924E-1,-6.174315810E-1
1.653361148E1,-4.124100804E-1,9.781472385E-2,-6.559160352E-1
1.655027814E1,-5.309178233E-1,-9.521854669E-2,-6.210967898E-1
1.656694481E1,-4.380663931E-1,-4.207331315E-2,-4.842630625E-1
1.658361148E1,-2.364810258E-1,3.245219216E-2,-4.421133697E-1
1.660027814E1,-2.023489587E-2,1.326340139E-1,-5.783362389E-1
1.661694481E1,2.057850659E-1,3.250564337E-1,-8.086322546E-1
1.663361147E1,3.322340846E-1,9.109520912E-2,-9.900590777E-1
1.665027814E1,4.085921645E-1,-1.056032479E-1,-1.024878383E0
1.666694481E1,4.715112448E-1,-5.306887627E-2,-9.888373613E-1
1.668361147E1,6.162862182E-1,2.407570779E-1,-8.709404469E-1
1.670027814E1,8.233693838E-1,3.733147383E-1,-6.974548697E-1
1.671694480E1,6.999746561E-1,3.427715003E-1,-4.323395491E-1
1.673361147E1,3.468948305E-1,2.071595192E-1,-2.313650399E-1
1.675027814E1,4.696023092E-2,1.656207144E-1,-2.912297845E-1
1.676694480E1,-8.865175396E-2,2.548069656E-1,-3.773617148E-1
1.678361147E1,-3.306305781E-2,4.637227356E-1,-3.504836559E-1
1.680027813E1,3.596466407E-2,4.771617651E-1,-2.900080681E-1
1.681694480E1,-1.290451828E-2,3.953058720E-1,-2.582430840E-1
1.683361147E1,-1.228601784E-1,3.305542171E-1,-3.547597229E-1
1.685027813E1,-2.462548614E-1,3.073413372E-1,-4.476111531E-1
1.686694480E1,-2.621373534E-1,4.551706314E-1,-4.683805704E-1
1.688361146E1,-1.857792437E-1,6.414843798E-1,-5.190823674E-1
1.690027813E1,-2.267071903E-1,6.298779249E-1,-5.783362389E-1
1.691694480E1,-2.633590698E-1,7.343358397E-1,-6.217076182E-1
1.693361146E1,-2.199876755E-1,8.125265241E-1,-6.546943188E-1
1.695027813E1,-7.704532146E-2,7.196750641E-1,-7.328850031E-1
1.696694479E1,-1.534797717E-2,4.563923478E-1,-7.976366878E-1
1.698361146E1,-8.620829135E-2,2.181550860E-1,-8.520036340E-1
1.700027813E1,-2.645808160E-1,3.550651670E-2,-9.301943183E-1
1.701694479E1,-3.549887836E-1,1.046105940E-2,-9.521854520E-1
1.703361146E1,-3.873646259E-1,-2.289979309E-1,-9.240856767E-1
1.705027812E1,-3.293324709E-1,-3.914879560E-1,-9.137009978E-1
1.706694479E1,-1.937204897E-1,-3.603338599E-1,-9.240856767E-1
1.708361146E1,-3.391063213E-1,-5.130500793E-1,-7.780889869E-1
1.710027812E1,-6.634755135E-1,-7.433460951E-1,-5.991056561E-1
1.711694479E1,-7.037925720E-1,-7.537307739E-1,-5.459604263E-1
1.713361145E1,-3.519344628E-1,-9.076687098E-1,-4.653262496E-1
1.715027812E1,-1.802814752E-1,-8.245911002E-1,-4.182896614E-1
1.716694479E1,2.557996288E-2,-6.559923887E-1,-1.898262352E-1
1.718361145E1,3.249036968E-1,-5.753582716E-1,-1.140789986E-1
1.720027812E1,5.356520414E-1,-4.055378437E-1,-1.385135949E-1
1.721694478E1,6.138427258E-1,-2.925278842E-1,-1.091920808E-1
1.723361145E1,5.185478330E-1,-4.269181192E-1,8.017600328E-2
1.725027812E1,4.287507236E-1,-5.222130418E-1,2.463312149E-1
1.726694478E1,4.189768732E-1,-5.936841965E-1,2.787070572E-1
1.728361145E1,4.867828786E-1,-5.851321220E-1,2.842048407E-1
1.730027811E1,5.863538384E-1,-5.442041755E-1,2.884808779E-1
1.731694478E1,6.388881803E-1,-5.448150039E-1,2.524398565E-1
1.733361145E1,6.333904266E-1,-5.380955338E-1,2.072358727E-1
1.735027811E1,5.668061376E-1,-5.936841965E-1,2.848156989E-1
1.736694478E1,4.776198864E-1,-5.435932875E-1,4.326449931E-1
1.738361144E1,3.163515925E-1,-4.965566993E-1,6.030762792E-1
1.740027811E1,1.905134469E-1,-4.256964028E-1,7.594576478E-1
1.741694478E1,8.177952468E-2,-3.297906220E-1,9.323323965E-1
1.743361144E1,2.130390890E-2,-2.180023640E-1,1.146745920E0
1.745027811E1,1.556941569E-1,-1.001054645E-1,1.360548615E0
1.746694477E1,3.890444934E-1,-4.634936526E-2,1.544418931E0
1.748361144E1,6.462185979E-1,-1.214857325E-1,1.687972069E0
1.750027811E1,8.655190468E-1,-1.275943816E-1,1.712406635E0
1.751694477E1,9.015600681E-1,-1.756236190E-3,1.684917808E0
1.753361144E1,7.830522656E-1,1.228601784E-1,1.494328022E0
1.755027810E1,6.419425011E-1,1.240819097E-1,1.209664941E0
1.756694477E1,5.173261166E-1,1.057559624E-1,9.488257170E-1
1.758361144E1,3.548360765E-1,1.552360058E-1,8.657481074E-1
1.760027810E1,1.630245447E-1,1.338557452E-1,8.559742570E-1
1.761694477E1,-4.772381112E-2,1.130863428E-1,8.462004066E-1
1.763361143E1,-3.342193961E-1,8.804088831E-2,8.571959734E-1
1.765027810E1,-4.924333692E-1,9.476039559E-2,8.779653907E-1
1.766694477E1,-5.125918984E-1,3.428478539E-2,8.590285778E-1
1.768361143E1,-3.580431044E-1,7.635809743E-5,8.413135409E-1
1.770027810E1,-1.601229310E-1,3.245219216E-2,7.881683111E-1
1.771694476E1,1.030834299E-2,5.505418777E-2,7.148644924E-1
1.773361143E1,1.361464858E-1,1.643989831E-1,6.287325621E-1
1.775027810E1,9.033162892E-2,1.326340139E-1,5.383245945E-1
1.776694476E1,-1.191949919E-1,3.733910993E-2,4.222602844E-1
1.778361143E1,-2.896262705E-1,1.840230078E-2,2.054032832E-1
1.780027809E1,-2.004400045E-1,2.432005405E-1,5.513054505E-2
1.781694476E1,-1.601229310E-1,1.191949919E-1,2.519817278E-2
1.783361143E1,4.451677203E-2,-8.605557680E-2,1.534797698E-1
1.785027809E1,2.131154537E-1,-3.718639165E-2,2.835939825E-1
1.786694476E1,9.399681538E-2,3.323867917E-1,4.338667095E-1
1.788361142E1,-2.395353466E-1,5.425242782E-1,4.747946560E-1
1.790027809E1,-4.344012141E-1,4.820486605E-1,3.416261375E-1
1.791694476E1,-3.824777007E-1,3.378845751E-1,1.235474050E-1
1.793361142E1,-2.945131958E-1,1.143080741E-1,-2.099847645E-1
1.795027809E1,-3.769799173E-1,-1.440877318E-1,-4.164570570E-1
1.796694475E1,-4.667770565E-1,-7.017309219E-2,-5.703949928E-1
1.798361142E1,-5.193114281E-1,-3.107774630E-2,-7.053961158E-1
1.800027809E1,-5.394699574E-1,-1.043815166E-1,-7.958040833E-1
1.801694475E1,-3.806451261E-1,4.344775900E-2,-8.465058804E-1
1.803361142E1,-1.558468789E-1,2.352592945E-1,-8.300125003E-1
1.805027808E1,3.596466407E-2,4.246273935E-1,-7.872520089E-1
1.806694475E1,1.844048053E-1,5.577958822E-1,-8.672752976E-1
1.808361142E1,2.253327519E-1,7.037925720E-1,-9.961677194E-1
1.810027808E1,1.679114550E-1,6.640864015E-1,-1.088408351E0
1.811694475E1,1.049923822E-1,3.965275884E-1,-1.106734276E0
1.813361141E1,8.788817376E-2,1.808923334E-1,-1.024878383E0
1.815027808E1,1.349247545E-1,2.334267050E-1,-9.326378107E-1
1.816694475E1,2.552651167E-1,4.130209386E-1,-9.246965647E-1
1.818361141E1,4.531853199E-1,6.353757381E-1,-9.295834899E-1
1.820027808E1,5.435932875E-1,6.872992516E-1,-9.839504361E-1
1.821694474E1,5.826886296E-1,6.353757381E-1,-1.055421591E0
1.823361141E1,6.120101213E-1,5.975021124E-1,-1.074969292E0
1.825027808E1,6.181188226E-1,4.374555349E-1,-1.028543591E0
1.826694474E1,5.735256672E-1,2.596938908E-1,-9.338595271E-1
1.828361141E1,4.916698039E-1,4.222602770E-2,-8.526145220E-1
1.830027807E1,3.505600393E-1,-9.705114365E-2,-8.153517842E-1
1.831694474E1,8.483384550E-2,-2.748127878E-1,-7.457131743E-1
1.833361141E1,-2.340375632E-1,-3.951531649E-1,-6.711876988E-1
1.835027807E1,-5.816196203E-1,-5.350412130E-1,-6.565269232E-1
1.836694474E1,-8.357393742E-1,-6.291143894E-1,-6.235402226E-1
1.838361140E1,-8.870519996E-1,-6.730966568E-1,-5.673406720E-1
1.840027807E1,-7.489965558E-1,-6.822596192E-1,-5.312996507E-1
1.841694474E1,-4.600575268E-1,-6.120101213E-1,-5.477929711E-1
1.843361140E1,-1.808923334E-1,-4.140899479E-1,-6.070469022E-1
1.845027807E1,-1.253036410E-1,-4.434114695E-1,-6.003273726E-1
1.846694473E1,-3.678169549E-1,-4.831176698E-1,-5.612320304E-1
1.848361140E1,-6.029998660E-1,-4.495201111E-1,-5.337430835E-1
1.850027807E1,-5.303069949E-1,-1.446985900E-1,-4.970912039E-1
1.851694473E1,-1.631772518E-1,-3.694968224E-1,-4.506655037E-1
1.853361140E1,2.479347438E-1,-5.961276889E-1,-4.995346665E-1
1.855027806E1,3.487274349E-1,-4.788416326E-1,-6.339249015E-1
1.856694473E1,2.149480432E-1,-3.749946058E-1,-6.693550944E-1
1.858361140E1,1.251509190E-1,-4.910589159E-1,-5.575668216E-1
1.860027806E1,2.308305353E-1,-5.081631541E-1,-4.482220411E-1
1.861694473E1,5.515345335E-1,-2.259436101E-1,-3.590357602E-1
1.863361139E1,7.641154528E-1,-1.184314117E-1,-2.637408674E-1
1.865027806E1,9.357684851E-1,-3.413207084E-2,-2.057087123E-1
1.866694473E1,9.803616405E-1,4.039343446E-2,-1.629481763E-1
1.868361139E1,8.490256667E-1,-2.977965865E-3,9.926552884E-3
1.870027806E1,6.724857688E-1,-5.001455545E-2,2.658788860E-1
1.871694472E1,5.435932875E-1,1.229365356E-2,4.570795596E-1
1.873361139E1,4.709003866E-1,1.472947747E-1,6.385064125E-1
1.875027806E1,4.818959534E-1,2.609156072E-1,8.266527653E-1
1.876694472E1,5.167152286E-1,2.725220621E-1,9.476040006E-1
1.878361139E1,5.435932875E-1,3.201695085E-1,1.066722631E0
1.880027805E1,5.558105707E-1,4.093557596E-1,1.146135092E0
1.881694472E1,5.142717957E-1,5.333613157E-1,1.289688230E0
1.883361139E1,5.332086086E-1,6.494256258E-1,1.510210395E0
1.885027805E1,5.252673626E-1,5.657371283E-1,1.742949963E0
1.886694472E1,4.055378437E-1,4.386772811E-1,1.817475438E0
1.888361138E1,1.404225379E-1,3.763690591E-1,1.744171619E0
1.890027805E1,-1.375209391E-1,2.706894577E-1,1.647655010E0
1.891694472E1,-2.981783748E-1,2.529743910E-1,1.496160507E0
1.893361138E1,-4.234056473E-1,7.154753804E-2,1.335503101E0
1.895027805E1,-5.089266896E-1,-1.856265366E-1,1.270140648E0
1.896694471E1,-5.803979039E-1,-3.236819804E-1,1.317788005E0
1.898361138E1,-5.437459946E-1,-2.894735336E-1,1.459508657E0
1.900027805E1,-2.438113987E-1,-2.137263119E-1,1.425911069E0
1.901694471E1,9.399681538E-2,-9.521854669E-2,1.306181669E0
1.903361138E1,2.528216541E-1,9.842558950E-2,1.151021957E0
1.905027804E1,2.509890795E-1,3.342193961E-1,1.067333460E0
1.906694471E1,2.228892893E-1,4.124100804E-1,8.889609575E-1
1.908361138E1,2.589302957E-1,4.631118476E-1,7.441860437E-1
1.910027804E1,3.444513679E-1,6.866883636E-1,5.340485573E-1
1.911694471E1,3.450622559E-1,8.662826419E-1,4.240928590E-1
1.913361137E1,2.906952798E-1,7.905353904E-1,4.063777924E-1
1.915027804E1,1.526398361E-1,4.148535430E-1,3.068068326E-1
1.916694471E1,-2.512181364E-2,3.061196208E-1,1.076649204E-1
1.918361137E1,-1.656207144E-1,5.981130004E-1,-1.012508348E-1
1.920027804E1,-1.631772518E-1,7.990874648E-1,-2.692386508E-1
1.921694470E1,-1.491273642E-1,8.058069944E-1,-4.103484154E-1
1.923361137E1,-6.727148592E-2,8.229112029E-1,-5.795579553E-1
1.925027804E1,7.444914430E-2,9.267582297E-1,-7.658717036E-1
1.926694470E1,1.117118970E-1,1.058094144E0,-9.320269227E-1
1.928361137E1,-1.298087649E-3,1.183321476E0,-1.090851784E0
1.930027803E1,-1.821140647E-1,1.219362497E0,-1.224631190E0
1.931694470E1,-3.549887836E-1,1.248073101E0,-1.219133377E0
1.933361137E1,-4.154644012E-1,1.246851325E0,-1.043815136E0
1.935027803E1,-2.181550860E-1,1.133841395E0,-8.379537463E-1
1.936694470E1,1.343138963E-1,1.015333652E0,-6.962331533E-1
1.938361136E1,4.336376488E-1,1.080696106E0,-6.131555438E-1
1.940027803E1,6.596575975E-1,1.154610753E0,-6.137663722E-1
1.941694470E1,8.533017635E-1,1.013501048E0,-6.858484149E-1
1.943361136E1,9.858593941E-1,1.094135165E0,-8.593340516E-1
1.945027803E1,1.059163213E0,1.102687240E0,-1.131168842E0
1.946694469E1,1.034728527E0,9.670752883E-1,-1.427438259E0
1.948361136E1,8.050433993E-1,8.076395988E-1,-1.549611211E0
1.950027803E1,4.861720204E-1,7.190641761E-1,-1.542280793E0
1.951694469E1,5.367974192E-2,6.054433584E-1,-1.475696564E0
1.953361136E1,-3.061196208E-1,5.193114281E-1,-1.337641120E0
1.955027802E1,-5.095375776E-1,4.405098557E-1,-1.219744205E0
1.956694469E1,-5.278635025E-1,4.447859228E-1,-1.173318505E0
1.958361136E1,-3.470475674E-1,3.397171795E-1,-1.102458239E0
1.960027802E1,-6.543888897E-2,2.865719497E-1,-1.062752008E0
1.961694469E1,-6.872228696E-4,1.723402292E-1,-9.778417945E-1
1.963361135E1,-5.529089570E-1,-1.648571342E-1,-7.976366878E-1
1.965027802E1,-1.057483315E0,-1.190422773E-1,-7.255546451E-1
1.966694469E1,-6.982948184E-1,-3.847684562E-1,-8.446732759E-1
1.968361135E1,-4.295142889E-1,-6.236165762E-1,-8.953750730E-1
1.970027802E1,-3.910298049E-1,-3.963748813E-1,-5.868883133E-1
1.971694468E1,-2.413679510E-1,-4.421897531E-1,-4.500546157E-1
1.973361135E1,-7.276926935E-2,-2.534325123E-1,-5.086976290E-1
1.975027802E1,2.131154537E-1,-2.130390890E-2,-4.659371078E-1
1.976694468E1,2.955822051E-1,-3.352120519E-2,-1.922696829E-1
1.978361135E1,2.143371850E-1,5.871937796E-2,-1.084284950E-2
1.980027801E1,3.591121435E-1,1.454621702E-1,4.902189970E-2
1.981694468E1,4.544070363E-1,1.448513120E-1,8.689551800E-2
1.983361135E1,4.464657903E-1,1.821140647E-1,1.779143661E-1
1.985027801E1,4.311941862E-1,2.633590698E-1,3.526217043E-1
1.986694468E1,4.244746566E-1,3.226129711E-1,6.476693749E-1
1.988361134E1,4.055378437E-1,3.873646259E-1,9.812015295E-1
1.990027801E1,3.438405097E-1,3.696495593E-1,1.204167247E0
1.991694468E1,2.668715417E-1,4.350120723E-1,1.370322466E0
1.993361134E1,2.149480432E-1,5.351939201E-1,1.557247043E0
1.995027801E1,1.770744324E-1,5.694023371E-1,1.786932230E0
1.996694467E1,1.349247545E-1,6.683624387E-1,2.039830208E0
1.998361134E1,-1.107192412E-2,5.681806207E-1,2.318995476E0
2.000027801E1,-1.815031916E-1,2.651916742E-1,2.527911186E0
2.001694467E1,-3.103956580E-1,7.582359016E-2,2.568839073E0
2.003361134E1,-3.898080885E-1,4.528035223E-2,2.479042053E0
2.005027800E1,-5.522981286E-1,-9.460768104E-2,2.228587389E0
2.006694467E1,-6.701950431E-1,-3.487274349E-1,1.915824652E0
2.008361134E1,-5.907825828E-1,-5.270999670E-1,1.617722631E0
2.010027800E1,-2.474765927E-1,-4.250855148E-1,1.343444347E0
2.011694467E1,-1.351538301E-2,-3.853793144E-1,1.072220445E0
2.013361133E1,1.165988147E-1,-1.795178801E-1,7.900008559E-1
2.015027800E1,1.214857325E-1,-1.013271958E-1,5.138899684E-1
2.016694467E1,-7.406735327E-3,1.051450968E-1,3.746128380E-1
2.018361133E1,-1.051450968E-1,2.187659442E-1,3.489564955E-1
2.020027800E1,-2.957349122E-1,2.700785995E-1,4.479165971E-1
2.021694466E1,-3.360520005E-1,6.262127757E-1,5.884155035E-1
2.023361133E1,-1.937204897E-1,9.072105289E-1,5.682569742E-1
2.025027800E1,-2.767980993E-1,3.751473427E-1,4.228711426E-1
2.026694466E1,-2.951240540E-1,1.112537459E-1,2.903134823E-1
2.028361133E1,-2.138790339E-1,3.207803667E-1,2.641990222E-2
2.030027799E1,-1.637881249E-1,6.304888129E-1,-2.936732471E-1
2.031694466E1,-2.554178238E-1,8.723912835E-1,-5.789470673E-1
2.033361133E1,-4.142426848E-1,9.597449303E-1,-7.835868001E-1
2.035027799E1,-4.906007648E-1,8.925498128E-1,-9.314160943E-1
2.036694466E1,-4.331794977E-1,7.441096306E-1,-1.045036912E0
2.038361132E1,-3.268890083E-1,6.830231547E-1,-1.169042468E0
2.040027799E1,-2.633590698E-1,8.485675454E-1,-1.268002510E0
2.041694466E1,-2.859610617E-1,1.047709465E0,-1.242346287E0
2.043361132E1,-2.890154123E-1,9.182060957E-1,-1.021824002E0
2.045027799E1,-2.224311382E-1,5.180897117E-1,-6.736311316E-1
2.046694465E1,-9.292780608E-2,2.975675166E-1,-3.920224607E-1
2.048361132E1,1.306487024E-1,3.513236046E-1,-3.077231348E-1
2.050027799E1,3.603338599E-1,3.348302543E-1,-4.335612655E-1
2.051694465E1,5.393172503E-1,4.551706314E-1,-7.622065544E-1
2.053361132E1,6.297252178E-1,4.631118476E-1,-1.115286350E0
2.055027798E1,5.680279136E-1,3.372737169E-1,-1.334586859E0
2.056694465E1,4.531853199E-1,2.132681608E-1,-1.385899425E0
2.058361132E1,2.344957143E-1,5.566505343E-2,-1.283274174E0
2.060027798E1,-5.933023989E-2,-7.200568914E-2,-1.154381752E0
2.061694465E1,-3.531562090E-1,-1.324812919E-1,-1.103679895E0
2.063361131E1,-4.881573021E-1,-2.027307451E-1,-1.142164469E0
2.065027798E1,-5.584067702E-1,-2.625955045E-1,-1.181870580E0
2.066694465E1,-5.425242782E-1,-2.919169962E-1,-1.202029228E0
2.068361131E1,-3.659843504E-1,-2.876409590E-1,-1.199585676E0
2.070027798E1,-1.961639524E-1,-2.650389671E-1,-1.227074623E0
2.071694464E1,-3.879754841E-1,-2.699258626E-1,-1.217300773E0
2.073361131E1,-6.537016630E-1,-1.135444939E-1,-1.158046961E0
2.075027798E1,-2.352592945E-1,-3.939314187E-1,-1.237459302E0
2.076694464E1,2.540434003E-1,-4.403571486E-1,-1.200807452E0
2.078361131E1,3.279580176E-1,-1.605810821E-1,-8.831577301E-1
2.080027797E1,3.804923892E-1,-1.428660005E-1,-7.377719283E-1
2.081694464E1,4.623482823E-1,-1.397353224E-2,-6.998983026E-1
2.083361131E1,5.032762289E-1,-1.269835234E-1,-3.975202441E-1
2.085027797E1,4.501309991E-1,-2.057850659E-1,-3.100138716E-2
2.086694464E1,3.768272102E-1,-2.454912812E-1,2.408334464E-1
2.088361130E1,3.157407343E-1,-3.230711222E-1,3.831649423E-1
2.090027797E1,3.407861888E-1,-2.803105712E-1,5.297724605E-1
2.091694464E1,3.933205605E-1,-2.876409590E-1,6.201804876E-1
2.093361130E1,4.140899479E-1,-1.954003721E-1,7.490729094E-1
2.095027797E1,4.971675575E-1,-9.582941234E-2,8.944587708E-1
2.096694463E1,6.523272395E-1,8.376483619E-2,1.050229311E0
2.098361130E1,7.445678115E-1,2.010508776E-1,1.289688230E0
2.100027797E1,8.820123672E-1,4.063014388E-1,1.501047492E0
2.101694463E1,9.327141643E-1,2.981783748E-1,1.604894519E0
2.103361130E1,8.685733676E-1,2.774089575E-1,1.623220444E0
2.105027796E1,8.190932870E-1,2.474765927E-1,1.604283571E0
2.106694463E1,8.252019882E-1,3.116174042E-1,1.535866737E0
2.108361130E1,7.470112443E-1,3.647626340E-1,1.476612926E0
2.110027796E1,6.065123677E-1,1.998291463E-1,1.602451086E0
2.111694463E1,3.145190179E-1,4.466948658E-2,1.766773701E0
2.113361129E1,-6.666062027E-2,4.352411721E-3,1.919489861E0
2.115027796E1,-2.028834671E-1,2.413679510E-1,2.006843567E0
2.116694463E1,-1.234710440E-1,3.647626340E-1,1.982408881E0
2.118361129E1,1.611919403E-1,4.392881393E-1,1.660483241E0
2.120027796E1,3.676642478E-1,3.610974550E-1,1.266475439E0
2.121694462E1,4.318050444E-1,5.785652995E-1,1.244484305E0
2.123361129E1,5.106065869E-1,7.996983528E-1,1.228601813E0
2.125027796E1,5.075522661E-1,8.552870750E-1,1.011744738E0
2.126694462E1,2.283870727E-1,7.092903852E-1,6.592758298E-1
2.128361129E1,-7.276926935E-2,7.068468928E-1,2.732092738E-1
2.130027795E1,-1.081994250E-1,7.208967805E-1,-1.769980639E-1
2.131694462E1,-9.239329956E-3,5.474112034E-1,-6.015490890E-1
2.133361129E1,1.580612548E-2,5.950586796E-1,-7.958040833E-1
2.135027795E1,-1.136972085E-1,8.131373525E-1,-8.171843290E-1
2.136694462E1,-2.761872411E-1,9.957859516E-1,-7.958040833E-1
2.138361128E1,-2.108247131E-1,1.138117433E0,-8.575014472E-1
2.140027795E1,-1.143080741E-1,1.086193919E0,-1.021213174E0
2.141694462E1,-1.027016416E-1,1.165606380E0,-1.188590169E0
2.143361128E1,-7.154753804E-2,1.340924501E0,-1.330310822E0
2.145027795E1,-4.352411721E-3,1.397124052E0,-1.418886185E0
2.146694461E1,7.933606207E-2,1.389793754E0,-1.436601281E0
2.148361128E1,1.856265366E-1,1.400789261E0,-1.366962671E0
2.150027795E1,3.444513679E-1,1.450880170E0,-1.151938200E0
2.151694461E1,5.228238702E-1,1.415450096E0,-8.965967894E-1
2.153361128E1,7.103593946E-1,1.409952283E0,-7.634282708E-1
2.155027794E1,7.073050737E-1,1.400789261E0,-7.402154207E-1
2.156694461E1,6.840922236E-1,1.400178432E0,-9.137009978E-1
2.158361128E1,5.405389667E-1,1.361083031E0,-1.046869516E0
2.160027794E1,1.917351782E-1,1.181488872E0,-1.140942693E0
2.161694461E1,-2.651916742E-1,1.040989995E0,-1.403614521E0
2.163361127E1,-6.610320210E-1,8.369610906E-1,-1.742033601E0
2.165027794E1,-9.945642352E-1,7.887027860E-1,-1.848324060E0
2.166694461E1,-1.234023213E0,6.781362891E-1,-1.764024734E0
2.168361127E1,-1.224249363E0,6.396517754E-1,-1.490357399E0
2.170027794E1,-1.017777085E0,6.683624387E-1,-1.221576810E0
2.171694460E1,-1.217529893E0,4.698313773E-1,-1.027321815E0
2.173361127E1,-1.058704972E0,4.545597434E-1,-1.037706494E0
2.175027794E1,-4.282925725E-1,2.077703774E-1,-1.100625634E0
2.176694460E1,-3.482692838E-1,3.629300296E-1,-1.109177709E0
2.178361127E1,-4.032471180E-1,3.464366794E-1,-7.615956664E-1
2.180027793E1,-2.462548614E-1,3.305542171E-1,-5.459604263E-1
2.181694460E1,-8.987347782E-2,3.757582009E-1,-4.555523992E-1
2.183361127E1,-1.472947747E-1,3.928624094E-1,-1.647807807E-1
2.185027793E1,-3.091739416E-1,2.205985487E-1,1.394298822E-1
2.186694460E1,-3.146717250E-1,2.511417866E-1,3.257436454E-1
2.188361126E1,-2.804632783E-1,2.535852492E-1,5.224421024E-1
2.190027793E1,-2.120464295E-1,1.344666034E-1,6.947059631E-1
2.191694460E1,-1.540142894E-1,6.543888897E-2,8.651372194E-1
2.193361126E1,-1.344666034E-1,3.489565104E-2,1.085659385E0
2.195027793E1,-8.620829135E-2,7.093667239E-2,1.289077401E0
2.196694459E1,-6.666062027E-2,1.168278884E-2,1.506545305E0
2.198361126E1,5.421424750E-3,-1.030834299E-2,1.683085203E0
2.200027793E1,5.917752534E-2,-7.994692773E-2,1.754556417E0
2.201694459E1,1.251509190E-1,-1.514181048E-1,1.754556417E0
2.203361126E1,6.223184988E-2,-2.399934977E-1,1.699578524E0
2.205027792E1,2.313650399E-2,-2.784779668E-1,1.600618482E0
2.206694459E1,-9.231694043E-2,-4.104247689E-1,1.531590700E0
2.208361126E1,-2.694677114E-1,-6.675988436E-1,1.609170556E0
2.210027792E1,-2.847393453E-1,-8.972840309E-1,1.890168309E0
2.211694459E1,-3.653734922E-1,-9.388228059E-1,2.183383465E0
2.213361125E1,-4.698313773E-1,-8.972840309E-1,2.344040871E0
2.215027792E1,-4.551706314E-1,-1.001131058E0,2.328769207E0
2.216694459E1,-3.782016635E-1,-1.079932570E0,2.110079765E0
2.218361125E1,-2.645808160E-1,-9.345467687E-1,1.858403325E0
2.220027792E1,-1.234710440E-1,-7.042507529E-1,1.687972069E0
2.221694458E1,2.557996288E-2,-7.317396402E-1,1.524260283E0
2.223361125E1,1.092684343E-1,-8.184824586E-1,1.148578525E0
2.225027792E1,6.834049523E-2,-8.899536133E-1,5.346593857E-1
2.226694458E1,-1.039233729E-1,-8.807906508E-1,-4.382954910E-2
2.228361125E1,-3.128391206E-1,-7.830522656E-1,-5.013672709E-1
2.230027791E1,-4.270708263E-1,-6.804270148E-1,-8.306233883E-1
2.231694458E1,-4.789943397E-1,-4.880045950E-1,-1.014493704E0
2.233361125E1,-4.594466686E-1,-7.628174126E-2,-1.034652233E0
2.235027791E1,-3.336085379E-1,4.380663931E-1,-9.808961153E-1
2.236694458E1,-3.158934414E-1,5.712349415E-1,-1.026100159E0
2.238361124E1,-2.511417866E-1,7.215076685E-1,-1.150716543E0
2.240027791E1,-2.291506529E-1,9.518036842E-1,-1.263115644E0
2.241694458E1,-2.871828079E-1,9.878447056E-1,-1.288771987E0
2.243361124E1,-2.853502035E-1,8.009200692E-1,-1.223409414E0
2.245027791E1,-2.548069656E-1,7.325032353E-1,-1.071304083E0
2.246694457E1,-2.456440032E-1,7.972549200E-1,-9.430224895E-1
2.248361124E1,-1.387426704E-1,7.728202939E-1,-8.868229389E-1
2.250027791E1,1.641699113E-2,7.239511013E-1,-7.939714789E-1
2.251694457E1,1.929569095E-1,6.543125510E-1,-6.595812440E-1
2.253361124E1,3.780489266E-1,5.797870159E-1,-6.253728271E-1
2.255027790E1,5.307651162E-1,6.598103046E-1,-7.811433077E-1
2.256694457E1,6.633228064E-1,6.695841551E-1,-9.980003238E-1
2.258361124E1,7.066941857E-1,5.156462193E-1,-1.210581303E0
2.260027790E1,6.352230310E-1,4.276817143E-1,-1.428660035E0
2.261694457E1,3.658316433E-1,2.425896823E-1,-1.541669965E0
2.263361123E1,-1.179732606E-1,-1.404225379E-1,-1.550832987E0
2.265027790E1,-5.614610910E-1,-4.098139107E-1,-1.501963735E0
2.266694457E1,-8.833868504E-1,-5.478693247E-1,-1.375514746E0
2.268361123E1,-7.673225403E-1,-4.550178945E-1,-1.296102405E0
2.270027790E1,-5.437459946E-1,-4.880045950E-1,-1.195309639E0
2.271694456E1,-7.838158607E-1,-6.804270148E-1,-9.717331529E-1
2.273361123E1,-7.044034600E-1,-3.371210098E-1,-8.025236130E-1
2.275027790E1,4.147008359E-1,-4.672352076E-1,-1.155603409E0
2.276694456E1,9.333250523E-1,-7.372374535E-1,-1.273500323E0
2.278361123E1,6.999746561E-1,-4.690677822E-1,-9.308052063E-1
2.280027789E1,5.234347582E-1,-4.684569240E-1,-6.638572812E-1
2.281694456E1,5.778017044E-1,-3.682751060E-1,-6.491965652E-1
2.283361123E1,8.453605175E-1,-1.208748668E-1,-5.141954422E-1
2.285027789E1,9.522618055E-1,-6.711876392E-2,-2.686277926E-1
2.286694456E1,8.423061967E-1,-4.146244749E-2,-7.131846249E-2
2.288361122E1,7.366265655E-1,7.521272451E-2,1.455385387E-1
2.290027789E1,7.115811110E-1,5.933023989E-2,4.289797843E-1
2.291694456E1,6.138427258E-1,7.154753804E-2,7.735075355E-1
2.293361122E1,4.513527155E-1,9.598212689E-2,1.132696033E0
2.295027789E1,3.132972717E-1,1.643989831E-1,1.368489861E0
2.296694455E1,2.564868629E-1,2.444222718E-1,1.510210395E0
2.298361122E1,2.949713171E-1,2.700785995E-1,1.597564101E0
2.300027789E1,3.725511432E-1,2.529743910E-1,1.720347881E0
2.301694455E1,3.255145550E-1,6.788235158E-2,1.832747102E0
2.303361122E1,1.978438348E-1,-1.385899484E-1,1.888946652E0
2.305027788E1,-3.061959706E-2,-1.642462611E-1,1.907272577E0
2.306694455E1,-1.136972085E-1,-2.650389671E-1,1.849851251E0
2.308361122E1,-3.672824427E-2,-4.153116941E-1,1.767384529E0
2.310027788E1,-5.871937796E-2,-5.142717957E-1,1.832136154E0
2.311694455E1,1.458439697E-2,-4.776198864E-1,1.979354620E0
2.313361121E1,2.008981556E-1,-3.682751060E-1,2.064875603E0
2.315027788E1,3.633881807E-1,-3.749946058E-1,2.041051865E0
2.316694455E1,4.672352076E-1,-3.859901726E-1,1.962250352E0
2.318361121E1,5.216021538E-1,-3.951531649E-1,1.888335705E0
2.320027788E1,4.788416326E-1,-3.352884054E-1,1.626885653E0
2.321694454E1,3.468948305E-1,-7.872519642E-2,1.237153888E0
2.323361121E1,3.004691005E-1,2.560287118E-1,7.344121933E-1
2.325027788E1,2.375500351E-1,3.641517758E-1,2.860374451E-1
2.326694454E1,1.123227626E-1,4.258491099E-1,-1.287397593E-1
2.328361121E1,-6.238456443E-2,5.419133902E-1,-3.627009690E-1
2.330027787E1,-1.576794684E-1,6.750819683E-1,-5.215258002E-1
2.331694454E1,-1.906661689E-1,8.259655237E-1,-6.815723777E-1
2.333361121E1,-2.346484363E-1,1.085583091E0,-8.330668211E-1
2.335027787E1,-2.352592945E-1,1.366580844E0,-9.882264733E-1
2.336694454E1,-1.027016416E-1,1.438052058E0,-1.130558014E0
2.338361120E1,-4.963276442E-3,1.402621865E0,-1.116508126E0
2.340027787E1,1.091920771E-2,1.400178432E0,-1.002276421E0
2.341694454E1,-8.628465235E-3,1.369635224E0,-9.118683934E-1
2.343361120E1,-4.963276442E-3,1.350698352E0,-9.167553186E-1
2.345027787E1,1.453094631E-1,1.263344765E0,-1.068249822E0
2.346694453E1,3.267363012E-1,1.190651774E0,-1.153159976E0
2.348361120E1,3.725511432E-1,1.227303743E0,-1.106734276E0
2.350027787E1,5.063305497E-1,1.025107503E0,-1.073747516E0
2.351694453E1,7.549524903E-1,8.723912835E-1,-1.122005939E0
2.353361120E1,8.190932870E-1,6.482039094E-1,-1.131779671E0
2.355027786E1,7.158571482E-1,4.466184974E-1,-1.081077933E0
2.356694453E1,3.719402850E-1,3.012326956E-1,-1.025489211E0
2.358361120E1,-2.187659442E-1,1.802814752E-1,-1.186146736E0
2.360027786E1,-8.668934703E-1,1.908952487E-3,-1.429881692E0
2.361694453E1,-1.390404582E0,-2.784779668E-1,-1.486692190E0
2.363361119E1,-1.676900148E0,-4.189768732E-1,-1.376736522E0
2.365027786E1,-1.659796000E0,-4.574613571E-1,-1.216689944E0
2.366694453E1,-1.262122989E0,-4.018726647E-1,-1.092073560E0
2.368361119E1,-8.387936950E-1,-3.676642478E-1,-9.338595271E-1
2.370027786E1,-6.457604170E-1,-4.556287527E-1,-7.793107629E-1
2.371694452E1,-2.615264952E-1,-5.368737578E-1,-8.776599765E-1
2.373361119E1,4.757109284E-2,-8.459713459E-1,-1.067028046E0
2.375027786E1,-1.729510874E-1,-7.079159021E-1,-8.611665964E-1
2.376694452E1,-3.244455457E-1,-6.645445228E-1,-4.738783538E-1
2.378361119E1,-1.399643868E-1,-5.826886296E-1,-2.008218020E-1
2.380027785E1,3.310123384E-1,-2.851974964E-1,-2.698495090E-1
2.381694452E1,5.063305497E-1,-2.021198869E-1,-2.020435184E-1
2.383361119E1,3.725511432E-1,-2.320522517E-1,4.718930274E-2
2.385027785E1,3.102429509E-1,-1.446985900E-1,1.748600453E-1
2.386694452E1,2.296088040E-1,-1.172096804E-1,3.587303460E-1
2.388361118E1,2.265544683E-1,-8.483384550E-2,5.309942365E-1
2.390027785E1,1.837939471E-1,-1.941786408E-1,6.983711720E-1
2.391694452E1,7.322741300E-2,-2.638172209E-1,9.274454713E-1
2.393361118E1,1.159879491E-1,-1.770744324E-1,1.110094070E0
2.395027785E1,1.831830740E-1,-1.844048053E-1,1.261588454E0
2.396694451E1,2.619846463E-1,-1.819613427E-1,1.384372354E0
2.398361118E1,3.572795391E-1,-7.139482349E-2,1.562133908E0
2.400027785E1,3.560578227E-1,-1.117118970E-1,1.766773701E0
2.401694451E1,4.006509483E-1,-2.027307451E-1,1.900552988E0
2.403361118E1,3.762163520E-1,-2.308305353E-1,1.926209331E0
2.405027784E1,2.167806327E-1,-3.676642478E-1,1.879172802E0
2.406694451E1,-1.046105940E-2,-5.490911007E-1,1.794262528E0
2.408361118E1,-3.256672919E-1,-7.213549614E-1,1.787543058E0
2.410027784E1,-6.072759628E-1,-8.282563090E-1,1.886503100E0
2.411694451E1,-6.341540217E-1,-8.740711212E-1,1.946978807E0
2.413361117E1,-5.107592940E-1,-8.972840309E-1,1.973245978E0
2.415027784E1,-2.651916742E-1,-7.347939610E-1,1.967137337E0
2.416694451E1,1.824958436E-2,-6.645445228E-1,1.990961075E0
2.418361117E1,1.373682171E-1,-5.582540631E-1,1.793040872E0
2.420027784E1,-3.130682046E-3,-5.723039508E-1,1.391091824E0
2.421694450E1,-4.100430012E-2,-4.305832982E-1,9.616538882E-1
2.423361117E1,-1.779143699E-2,-4.605156779E-1,5.004509687E-1
2.425027784E1,-2.451094985E-2,-4.776198864E-1,4.841103405E-2
2.426694450E1,-1.387426704E-1,-4.977784455E-1,-3.034470677E-1
2.428361117E1,-2.853502035E-1,-5.154935122E-1,-4.323395491E-1
2.430027783E1,-4.649444520E-1,-3.994292021E-1,-3.993528485E-1
2.431694450E1,-6.671407223E-1,-2.289979309E-1,-5.398517251E-1
2.433361117E1,-7.990874648E-1,-1.764635593E-1,-8.636100888E-1
2.435027783E1,-7.770963311E-1,9.239329956E-3,-1.181870580E0
2.436694450E1,-8.253546953E-1,1.637881249E-1,-1.480583549E0
2.438361116E1,-8.760564327E-1,5.535198450E-1,-1.674838543E0
2.440027783E1,-7.996983528E-1,9.188169837E-1,-1.746309638E0
2.441694450E1,-6.585885882E-1,1.031216145E0,-1.777463794E0
2.443361116E1,-4.117992222E-1,1.201647401E0,-1.685834050E0
2.445027783E1,-1.723402292E-1,1.110628486E0,-1.530674458E0
2.446694449E1,1.624136716E-1,1.083139658E0,-1.140942693E0
2.448361116E1,3.548360765E-1,1.018998861E0,-8.226821423E-1
2.450027783E1,5.264890790E-1,1.080696106E0,-8.348994255E-1
2.451694449E1,6.853139400E-1,1.111850262E0,-9.692896605E-1
2.453361116E1,6.767618060E-1,1.034270406E0,-1.164766431E0
2.455027782E1,6.004037261E-1,9.322559834E-1,-1.427438259E0
2.456694449E1,4.342485070E-1,8.430697322E-1,-1.605810761E0
2.458361116E1,2.558759749E-1,7.422770858E-1,-1.812893987E0
2.460027782E1,2.435823344E-2,6.323214173E-1,-1.850767612E0
2.461694449E1,-1.992182732E-1,3.220020831E-1,-1.698662281E0
2.463361115E1,-3.727038801E-1,2.328922041E-2,-1.496466041E0
2.465027782E1,-4.844921231E-1,-1.056032479E-1,-1.400560260E0
2.466694449E1,-5.089266896E-1,-1.862373948E-1,-1.356577992E0
2.468361115E1,-6.811906099E-1,-1.703549176E-1,-1.140942693E0
2.470027782E1,-7.392227650E-1,-2.833648920E-1,-8.379537463E-1
2.471694448E1,-3.024544120E-1,-5.845212340E-1,-7.383828163E-1
2.473361115E1,-4.344775900E-2,-4.812850952E-1,-6.094903350E-1
2.475027782E1,-6.185005885E-3,-3.328449428E-1,-4.543306828E-1
2.476694448E1,9.888373315E-2,-2.564868629E-1,-4.286743701E-1
2.478361115E1,1.789070219E-1,-2.149480432E-1,-4.164570570E-1
2.480027781E1,2.522107959E-1,-2.186132371E-1,-1.550069451E-1
2.481694448E1,1.624136716E-1,-2.143371850E-1,2.469420880E-1
2.483361115E1,1.489746422E-1,-1.624136716E-1,4.882336855E-1
2.485027781E1,3.426187932E-1,-2.863428742E-2,6.183478832E-1
2.486694448E1,5.032762289E-1,-5.612320080E-2,6.855430007E-1
2.488361114E1,6.309469342E-1,-1.056032479E-1,7.625119686E-1
2.490027781E1,6.718748808E-1,-2.210566849E-1,9.579886794E-1
2.491694448E1,7.360156775E-1,-2.100611329E-1,1.235321283E0
2.493361114E1,6.987529397E-1,-3.481165767E-1,1.476612926E0
2.495027781E1,5.619192123E-1,-4.953349829E-1,1.613446593E0
2.496694447E1,4.886154532E-1,-5.411498547E-1,1.715461016E0
2.498361114E1,4.452440739E-1,-7.335722446E-1,1.769217134E0
2.500027781E1,4.379136860E-1,-8.441387415E-1,1.796706080E0
2.501694447E1,3.450622559E-1,-9.076687098E-1,1.740506530E0
2.503361114E1,2.283870727E-1,-9.198859930E-1,1.544418931E0
2.505027780E1,1.147662178E-1,-8.551343083E-1,1.471725941E0
2.506694447E1,2.008217946E-2,-7.671698332E-1,1.643989801E0
2.508361114E1,-8.193223923E-2,-7.946587205E-1,2.008065224E0
2.510027780E1,-2.322049737E-1,-8.820123672E-1,2.194989920E0
2.511694447E1,-2.975675166E-1,-9.052252173E-1,2.235306978E0
2.513361113E1,-1.827249229E-1,-8.838449717E-1,2.145509720E0
2.515027780E1,8.055779338E-2,-9.479857683E-1,1.969580770E0
2.516694447E1,3.920988441E-1,-8.960622549E-1,1.641546369E0
2.518361113E1,5.668061376E-1,-7.635046244E-1,1.225547433E0
2.520027780E1,6.303361058E-1,-6.486620307E-1,7.802270651E-1
2.521694446E1,5.087739825E-1,-4.983893037E-1,3.306305707E-1
2.523361113E1,2.424369603E-1,-3.817141354E-1,-1.634063199E-2
2.525027780E1,-7.635809743E-5,-2.955822051E-1,-2.967275679E-1
2.526694446E1,-1.124754772E-1,-3.157407343E-1,-5.496255755E-1
2.528361113E1,-2.016617358E-1,-2.662606835E-1,-6.809614897E-1
2.530027779E1,-2.737437785E-1,-1.763872057E-2,-8.446732759E-1
2.531694446E1,-3.006218374E-1,1.448513120E-1,-1.069471478E0
2.533361113E1,-3.195586503E-1,1.314122826E-1,-1.300989270E0
2.535027779E1,-1.741728187E-1,1.833357960E-1,-1.459814072E0
2.536694446E1,6.467530876E-2,4.570032060E-1,-1.570991516E0
2.538361112E1,6.589704007E-2,8.516218662E-1,-1.537393928E0
2.540027779E1,-6.177370250E-2,1.093524337E0,-1.359021425E0
2.541694446E1,-7.338013500E-2,1.013501048E0,-1.096349597E0
2.543361112E1,3.474293277E-2,8.265764117E-1,-8.074105382E-1
2.545027779E1,2.143371850E-1,8.717803955E-1,-5.813905597E-1
2.546694445E1,4.000400603E-1,9.609666467E-1,-4.500546157E-1
2.548361112E1,5.460367799E-1,1.055039883E0,-4.598284662E-1
2.550027779E1,7.011964321E-1,1.092913389E0,-6.229293346E-1
2.551694445E1,8.203150630E-1,1.114293694E0,-9.521854520E-1
2.553361112E1,8.997274637E-1,1.174158454E0,-1.351080179E0
2.555027778E1,7.940478325E-1,1.163162947E0,-1.624747634E0
2.556694445E1,4.678460658E-1,8.332959414E-1,-1.767689943E0
2.558361112E1,1.580612548E-2,3.940841556E-1,-1.792124510E0
2.560027778E1,-5.632936954E-1,8.620829135E-2,-1.685223222E0
2.561694445E1,-1.107574224E0,-1.428660005E-1,-1.511737585E0
2.563361111E1,-1.344589710E0,-1.960112303E-1,-1.374903917E0
2.565027778E1,-1.237688422E0,-1.844048053E-1,-1.204472661E0
2.566694445E1,-9.689078927E-1,-7.811433077E-2,-1.096960425E0
2.568361111E1,-4.893790483E-1,-9.644027799E-2,-1.107956052E0
2.570027778E1,-2.151007652E-1,-4.739547074E-1,-1.100014806E0
2.571694444E1,-1.002581790E-1,-4.519635737E-1,-8.892664313E-1
2.573361111E1,-1.735619605E-1,-2.992473841E-1,-5.740602016E-1
2.575027778E1,-1.124754772E-1,-2.393826395E-1,-4.323395491E-1
2.576694444E1,1.446985900E-1,-1.660788655E-1,-2.490801066E-1
2.578361111E1,3.279580176E-1,-1.068249792E-1,-3.512472380E-3
2.580027777E1,3.774380684E-1,4.711294547E-2,2.750418782E-1
2.581694444E1,4.476875365E-1,1.088102907E-1,4.754055142E-1
2.583361111E1,5.710822344E-1,1.735619605E-1,5.963567495E-1
2.585027777E1,6.639336348E-1,1.815031916E-1,7.301361561E-1
2.586694444E1,6.700422764E-1,1.631772518E-1,9.237802625E-1
2.588361110E1,6.431642771E-1,8.865175396E-2,1.140026450E0
2.590027777E1,6.077340841E-1,5.016727000E-2,1.320842385E0
2.591694444E1,6.248382926E-1,5.871937796E-2,1.475391150E0
2.593361110E1,5.802451968E-1,-6.528617442E-2,1.576183796E0
2.595027777E1,5.533671379E-1,-1.715766490E-1,1.626274705E0
2.596694443E1,4.525744319E-1,-2.711476088E-1,1.632994294E0
2.598361110E1,3.316232264E-1,-4.311941862E-1,1.529147267E0
2.600027777E1,2.607629001E-1,-4.415788651E-1,1.439960957E0
2.601694443E1,1.239291951E-1,-4.159225523E-1,1.559079647E0
2.603361110E1,5.123628303E-2,-4.537961781E-1,1.866344571E0
2.605027776E1,-7.948877662E-2,-6.193405390E-1,2.118631840E0
2.606694443E1,-1.240819097E-1,-6.767618060E-1,2.189491987E0
2.608361110E1,-8.254310489E-2,-6.358338594E-1,2.118631840E0
2.610027776E1,1.519526169E-2,-3.756054938E-1,1.953087449E0
2.611694443E1,1.422551423E-1,-7.078395784E-2,1.680030823E0
2.613361109E1,2.308305353E-1,1.857792437E-1,1.484554172E0
2.615027776E1,2.717584670E-1,3.097847998E-1,1.370933294E0
2.616694443E1,1.715766490E-1,2.639699280E-1,1.260977626E0
2.618361109E1,-1.901316643E-2,1.460730433E-1,8.791871071E-1
2.620027776E1,-8.620829135E-2,2.163224965E-1,1.608101577E-1
2.621694442E1,-1.314122826E-1,4.838812649E-1,-5.215258002E-1
2.623361109E1,-1.558468789E-1,6.891318560E-1,-7.683151960E-1
2.625027776E1,-1.442404389E-1,6.732493639E-1,-7.719803452E-1
2.626694442E1,-1.185841262E-1,4.643335938E-1,-7.316632867E-1
2.628361109E1,-1.039233729E-1,3.146717250E-1,-7.683151960E-1
2.630027775E1,-4.589121789E-2,4.576140642E-1,-8.581122756E-1
2.631694442E1,-1.412624773E-2,6.060542464E-1,-9.644027948E-1
2.633361109E1,-8.009964228E-2,6.506473422E-1,-1.103679895E0
2.635027775E1,-1.246927753E-1,5.846739411E-1,-1.313817382E0
2.636694442E1,-1.497382224E-1,7.025708556E-1,-1.409112334E0
2.638361108E1,-9.964732081E-2,8.821650743E-1,-1.372460485E0
2.640027775E1,6.772962958E-2,8.949932456E-1,-1.189811826E0
2.641694442E1,2.717584670E-1,8.620065451E-1,-1.016326308E0
2.643361108E1,5.118283033E-1,8.846085668E-1,-9.503529072E-1
2.645027775E1,7.146354318E-1,9.707404971E-1,-9.454659820E-1
2.646694441E1,8.514691591E-1,8.662826419E-1,-1.046869516E0
2.648361108E1,9.455423355E-1,8.784999251E-1,-1.302821875E0
2.650027775E1,8.734602928E-1,7.306706309E-1,-1.620471597E0
2.651694441E1,5.747473836E-1,5.541307330E-1,-1.916741014E0
2.653361108E1,1.147662178E-1,3.452149630E-1,-1.933234334E0
2.655027774E1,-3.586539924E-1,3.611737862E-2,-1.748753190E0
2.656694441E1,-7.172316313E-1,-2.369391769E-1,-1.582597971E0
2.658361108E1,-9.505819678E-1,-4.409680068E-1,-1.492189884E0
2.660027774E1,-1.220584154E0,-3.499491513E-1,-1.385899425E0
2.661694441E1,-1.304883480E0,-4.214203358E-1,-1.269835114E0
2.663361107E1,-1.041600823E0,-7.690023780E-1,-1.098793030E0
2.665027774E1,-6.066650748E-1,-7.824414372E-1,-9.619593024E-1
2.666694441E1,-5.254200697E-1,-5.148826241E-1,-7.560978532E-1
2.668361107E1,-2.853502035E-1,-1.721875072E-1,-6.143772602E-1
2.670027774E1,-2.512181364E-2,-4.573849961E-2,-5.899426341E-1
2.671694440E1,-1.595884189E-2,-6.650790572E-2,-3.382663727E-1
2.673361107E1,-5.016727000E-2,3.061959706E-2,9.422589093E-2
2.675027774E1,5.123628303E-2,1.595120728E-1,4.418079555E-1
2.676694440E1,2.369391769E-1,3.525453210E-1,6.323977709E-1
2.678361107E1,4.256964028E-1,4.313468933E-1,7.325795889E-1
2.680027773E1,4.574613571E-1,3.421606421E-1,7.967203856E-1
2.681694440E1,3.560578227E-1,2.273180634E-1,9.457713962E-1
2.683361107E1,2.461021543E-1,1.540142894E-1,1.111315727E0
2.685027773E1,1.147662178E-1,5.444332212E-2,1.295186043E0
2.686694440E1,8.727730811E-2,7.406735327E-3,1.441793561E0
2.688361106E1,1.135444939E-1,-3.168861195E-2,1.590233684E0
2.690027773E1,1.355356276E-1,-8.116865903E-2,1.774103999E0
2.691694440E1,1.428660005E-1,-1.654679924E-1,1.968969941E0
2.693361106E1,1.117118970E-1,-2.381609082E-1,2.097862482E0
2.695027773E1,3.718639165E-2,-3.175733387E-1,2.097251415E0
2.696694439E1,7.994692773E-2,-3.749946058E-1,2.119242668E0
2.698361106E1,9.086613543E-3,-5.729147792E-1,2.211483240E0
2.700027773E1,-1.839466542E-1,-7.616720200E-1,2.216980934E0
2.701694439E1,-3.812559843E-1,-7.745001912E-1,2.143677235E0
2.703361106E1,-4.710530937E-1,-6.700422764E-1,2.067929983E0
2.705027772E1,-4.197404683E-1,-4.825068116E-1,2.075260401E0
2.706694439E1,-2.816850245E-1,-6.938660145E-1,1.920100689E0
2.708361106E1,-1.222493127E-1,-1.036561131E0,1.551138401E0
2.710027772E1,-1.908952487E-3,-9.259946346E-1,1.081994295E0
2.711694439E1,5.001455545E-2,-5.228238702E-1,6.024653912E-1
2.713361105E1,9.888373315E-2,-2.540434003E-1,1.986837685E-1
2.715027772E1,1.129336283E-1,-1.373682171E-1,-1.324049383E-1
2.716694439E1,1.030834299E-2,-8.972076327E-2,-2.985601723E-1
2.718361105E1,-1.491273642E-1,-7.811433077E-2,-3.058905303E-1
2.720027772E1,-1.924987584E-1,-2.296088040E-1,-3.822486401E-1
2.721694438E1,-2.315941155E-1,-2.326631248E-1,-6.143772602E-1
2.723361105E1,-2.615264952E-1,-6.039925665E-2,-8.935424685E-1
2.725027772E1,-2.358701676E-1,8.071050793E-2,-1.140331864E0
2.726694438E1,-2.144898921E-1,7.765618712E-2,-1.351691008E0
2.728361105E1,-1.216384470E-1,2.077703774E-1,-1.494633436E0
2.730027771E1,-3.000873141E-2,3.488801420E-1,-1.533728719E0
2.731694438E1,7.254019380E-3,6.280453801E-1,-1.441488147E0
2.733361105E1,7.200568914E-2,7.746528983E-1,-1.215468168E0
2.735027771E1,1.556941569E-1,7.190641761E-1,-9.014837146E-1
2.736694438E1,2.424369603E-1,6.170498133E-1,-7.023417950E-1
2.738361104E1,3.310123384E-1,5.162571073E-1,-6.522508860E-1
2.740027771E1,4.800633490E-1,5.187005401E-1,-6.785180569E-1
2.741694438E1,6.621010900E-1,6.604211926E-1,-8.153517842E-1
2.743361104E1,7.183006406E-1,6.317105293E-1,-1.108566880E0
2.745027771E1,6.498837471E-1,5.761218667E-1,-1.412777543E0
2.746694437E1,5.191587210E-1,5.119810700E-1,-1.654069066E0
2.748361104E1,2.711476088E-1,2.725220621E-1,-1.811672211E0
2.750027771E1,-4.963276442E-3,-1.030834299E-2,-1.725540280E0
2.751694437E1,-3.476584256E-1,-3.102429509E-1,-1.534950495E0
2.753361104E1,-7.251728773E-1,-3.694968224E-1,-1.465922713E0
2.755027770E1,-1.155221701E0,-4.440223277E-1,-1.382845163E0
2.756694437E1,-1.715384603E0,-5.350412130E-1,-1.087797403E0
2.758361104E1,-2.106338024E0,-3.065777719E-1,-7.994692922E-1
2.760027770E1,-2.007988930E0,-3.596466407E-2,-8.116865754E-1
2.761694437E1,-1.303050876E0,-3.762163520E-1,-1.081688762E0
2.763361103E1,-7.758746147E-1,-3.633881807E-1,-1.210581303E0
2.765027770E1,-6.885209680E-1,-9.086613543E-3,-9.045380354E-1
2.766694437E1,-6.989056468E-1,1.863901168E-1,-3.901898861E-1
2.768361103E1,-5.009855032E-1,4.649444520E-1,-4.321868345E-2
2.770027770E1,-3.794997558E-2,6.585885882E-1,3.006981909E-1
2.771694436E1,4.208094776E-1,9.237039089E-1,4.210385382E-1
2.773361103E1,6.498837471E-1,9.493602514E-1,4.320341051E-1
2.775027770E1,6.895899773E-1,8.583413959E-1,6.586649418E-1
2.776694436E1,6.431642771E-1,6.970730424E-1,9.671516418E-1
2.778361103E1,6.413316727E-1,5.694023371E-1,1.237764716E0
2.780027769E1,6.382773519E-1,4.111883640E-1,1.511432171E0
2.781694436E1,6.517163515E-1,3.317759335E-1,1.706908941E0
2.783361103E1,7.042507529E-1,9.170607477E-2,1.863901138E0
2.785027769E1,6.541598439E-1,8.987347782E-2,1.979354620E0
2.786694436E1,4.904480577E-1,1.747836918E-1,2.081368923E0
2.788361102E1,1.404225379E-1,3.184132650E-2,2.178496599E0
2.790027769E1,-6.666062027E-2,-1.049923822E-1,2.198655128E0
2.791694436E1,1.397353224E-2,-3.859901726E-1,2.181550741E0
2.793361102E1,1.068249792E-1,-7.274636030E-1,1.988517523E0
2.795027769E1,2.241110206E-1,-1.042669773E0,1.628718257E0
2.796694435E1,2.564868629E-1,-1.110475779E0,1.320842385E0
2.798361102E1,2.674824297E-1,-1.024343848E0,1.256701589E0
2.800027769E1,2.803105712E-1,-1.024343848E0,1.325118423E0
2.801694435E1,2.772562504E-1,-1.158734083E0,1.361770272E0
2.803361102E1,1.831830740E-1,-1.317559004E0,1.243873358E0
2.805027768E1,-9.239329956E-3,-1.381699800E0,9.854776263E-1
2.806694435E1,-1.973856837E-1,-1.336495757E0,7.215840220E-1
2.808361102E1,-3.207803667E-1,-9.547052979E-1,4.344775677E-1
2.810027768E1,-3.287216127E-1,-5.093848705E-1,1.870773435E-1
2.811694435E1,-2.303723842E-1,-2.748127878E-1,-1.084284950E-2
2.813361101E1,-1.442404389E-1,-1.886808574E-1,-1.617264450E-1
2.815027768E1,-1.387426704E-1,-1.905134469E-1,-2.741255760E-1
2.816694435E1,-1.961639524E-1,-2.680169232E-2,-4.280634820E-1
2.818361101E1,-2.065486610E-1,1.088102907E-1,-6.882919073E-1
2.820027768E1,-1.906661689E-1,2.028834671E-1,-8.739947677E-1
2.821694434E1,-3.183369040E-1,1.753945500E-1,-9.882264733E-1
2.823361101E1,-4.313468933E-1,3.140608668E-1,-1.056643367E0
2.825027768E1,-4.508945644E-1,4.295142889E-1,-1.099403858E0
2.826694434E1,-4.618901312E-1,5.547415614E-1,-1.049923897E0
2.828361101E1,-3.971384764E-1,7.074577808E-1,-1.012661099E0
2.830027767E1,-2.572504282E-1,7.679333687E-1,-1.018158913E0
2.831694434E1,-1.240819097E-1,7.300597429E-1,-1.066417217E0
2.833361101E1,-2.206749097E-2,7.624356151E-1,-1.137277484E0
2.835027767E1,4.634936526E-2,8.522327542E-1,-1.197753072E0
2.836694434E1,1.330921650E-1,1.065424562E0,-1.231350660E0
2.838361100E1,3.200167716E-1,1.095967770E0,-1.245400548E0
2.840027767E1,5.393172503E-1,9.762382507E-1,-1.299156666E0
2.841694434E1,7.152463198E-1,9.560797215E-1,-1.413388371E0
2.843361100E1,6.706531644E-1,8.546761870E-1,-1.483026981E0
2.845027767E1,4.818959534E-1,6.256018877E-1,-1.505018115E0
2.846694433E1,1.899025887E-1,4.783834815E-1,-1.605199933E0
2.848361100E1,-1.020907760E-1,3.849211633E-1,-1.727372885E0
2.850027767E1,-3.342193961E-1,1.674533039E-1,-1.751196623E0
2.851694433E1,-4.313468933E-1,-5.184714869E-2,-1.631467104E0
2.853361100E1,-6.152172089E-1,-1.245400533E-1,-1.376736522E0
2.855027766E1,-7.764855027E-1,-1.416442692E-1,-1.089630008E0
2.856694433E1,-5.541307330E-1,-3.701077104E-1,-1.050534725E0
2.858361100E1,-2.041051984E-1,-3.811032772E-1,-9.228639603E-1
2.860027766E1,-1.656970754E-2,-9.216422588E-2,-6.320923567E-1
2.861694433E1,8.849903196E-2,-4.451677203E-2,-5.514581800E-1
2.863361099E1,2.784779668E-1,6.185005885E-3,-5.319104791E-1
2.865027766E1,3.059668839E-1,-6.643154658E-3,-3.431532979E-1
2.866694433E1,1.269835234E-1,-2.374736778E-2,1.406516135E-1
2.868361099E1,-5.383246019E-2,-1.214093715E-2,4.754055142E-1
2.870027766E1,-1.595884189E-2,3.550651670E-2,6.134609580E-1
2.871694432E1,1.611919403E-1,3.550651670E-2,6.769908667E-1
2.873361099E1,3.652207851E-1,8.132137358E-2,7.331904769E-1
2.875027766E1,5.246564746E-1,9.231694043E-2,8.608611822E-1
2.876694432E1,4.959458411E-1,7.338013500E-2,1.078329086E0
2.878361099E1,4.055378437E-1,1.962403022E-2,1.320231557E0
2.880027765E1,2.796997130E-1,-1.007163301E-1,1.523649454E0
2.881694432E1,1.935677826E-1,-2.161697745E-1,1.660483241E0
2.883361099E1,2.125045806E-1,-3.572795391E-1,1.730732679E0
2.885027765E1,2.326631248E-1,-4.965566993E-1,1.766162753E0
2.886694432E1,2.454912812E-1,-5.894081593E-1,1.800371170E0
2.888361098E1,2.198349684E-1,-5.466476083E-1,1.867566347E0
2.890027765E1,8.849903196E-2,-4.959458411E-1,1.904218197E0
2.891694432E1,6.345357746E-2,-7.531198859E-1,2.019671679E0
2.893361098E1,-8.017600514E-3,-9.327141643E-1,2.148564100E0
2.895027765E1,-1.735619605E-1,-8.227584958E-1,2.165668249E0
2.896694431E1,-3.232238293E-1,-5.344303250E-1,2.138790369E0
2.898361098E1,-2.920697331E-1,-4.678460658E-1,2.080147266E0
2.900027765E1,-1.540142894E-1,-7.213549614E-1,1.950033069E0
2.901694431E1,-2.084576152E-2,-9.101121426E-1,1.710574150E0
2.903361098E1,8.727730811E-2,-8.893427849E-1,1.422245979E0
2.905027764E1,1.868482679E-1,-6.749292016E-1,1.082605124E0
2.906694431E1,2.314413935E-1,-4.085921645E-1,6.788234711E-1
2.908361098E1,2.338848561E-1,-2.968039215E-1,2.939786613E-1
2.910027764E1,1.416442692E-1,-2.760345340E-1,1.725693047E-2
2.911694431E1,-9.239329956E-3,-3.920988441E-1,-2.551887631E-1
2.913361097E1,-1.332448870E-1,-3.933205605E-1,-5.105302334E-1
2.915027764E1,-2.456440032E-1,-2.882518172E-1,-7.371610999E-1
2.916694431E1,-3.427715003E-1,-1.379790753E-1,-9.509637356E-1
2.918361097E1,-3.769799173E-1,4.222602770E-2,-1.154381752E0
2.920027764E1,-2.859610617E-1,7.643445581E-2,-1.371849537E0
2.921694430E1,-8.681915700E-2,3.018435538E-1,-1.516013622E0
2.923361097E1,-6.185005885E-3,6.530908346E-1,-1.549000382E0
2.925027764E1,-6.299543381E-2,9.230930209E-1,-1.393229842E0
2.926694430E1,-1.179732606E-1,9.664644599E-1,-1.073136687E0
2.928361097E1,-1.448513120E-1,8.100830317E-1,-7.677043080E-1
2.930027763E1,-1.130863428E-1,6.146063209E-1,-6.595812440E-1
2.931694430E1,-2.328922041E-2,6.860775352E-1,-6.791289449E-1
2.933361097E1,1.098793000E-1,8.730021119E-1,-7.933606505E-1
2.935027763E1,2.522107959E-1,1.110017657E0,-9.674571157E-1
2.936694430E1,4.079813063E-1,1.209588647E0,-1.159268618E0
2.938361096E1,4.293615818E-1,1.105130792E0,-1.390786409E0
2.940027763E1,4.183660150E-1,9.151517749E-1,-1.677281976E0
2.941694430E1,2.680932879E-1,8.284090161E-1,-1.881310821E0
2.943361096E1,-6.055197120E-2,7.337249517E-1,-1.884365082E0
2.945027763E1,-4.899899065E-1,4.954876900E-1,-1.758527040E0
2.946694429E1,-8.424589038E-1,3.415497839E-1,-1.600923896E0
2.948361096E1,-8.693369627E-1,5.566505343E-2,-1.386510372E0
2.950027763E1,-5.767326951E-1,8.559742570E-2,-1.236848474E0
2.951694429E1,-6.115520000E-1,-1.702785492E-2,-1.140942693E0
2.953361096E1,-8.821650743E-1,-1.145371469E-3,-1.125060201E0
2.955027762E1,-7.007382512E-1,-1.013271958E-1,-1.123227596E0
2.956694429E1,-3.085630834E-1,-5.344303250E-1,-1.115286350E0
2.958361096E1,-2.309832424E-1,-2.436586916E-1,-8.575014472E-1
2.960027762E1,-1.882227063E-1,-6.162098423E-2,-6.327031851E-1
2.961694429E1,5.306887627E-2,3.489565104E-2,-4.818195999E-1
2.963361095E1,3.456731141E-1,1.222493127E-1,-2.448040545E-1
2.965027762E1,5.313760042E-1,1.491273642E-1,4.108065739E-2
2.966694429E1,5.558105707E-1,1.705076247E-1,3.404043913E-1
2.968361095E1,5.405389667E-1,8.865175396E-2,5.212203860E-1
2.970027762E1,5.026653409E-1,-4.696023092E-2,6.580541134E-1
2.971694428E1,5.234347582E-1,-9.399681538E-2,7.619010806E-1
2.973361095E1,6.028471589E-1,-1.734092385E-1,8.327614069E-1
2.975027762E1,6.572141647E-1,-2.851974964E-1,9.928079844E-1
2.976694428E1,7.714458704E-1,-2.803105712E-1,1.152243733E0
2.978361095E1,8.563560843E-1,-3.077994883E-1,1.351996422E0
2.980027761E1,8.930079341E-1,-3.927097023E-1,1.606116176E0
2.981694428E1,8.606321216E-1,-6.602684855E-1,1.762497663E0
2.983361095E1,6.413316727E-1,-9.235512018E-1,1.756388903E0
2.985027761E1,4.892263412E-1,-8.704059720E-1,1.753945470E0
2.986694428E1,2.668715417E-1,-7.653372288E-1,1.588401198E0
2.988361094E1,5.123628303E-2,-7.897717953E-1,1.348942161E0
2.990027761E1,-8.193223923E-2,-1.005407095E0,1.357494235E0
2.991694428E1,-1.375209391E-1,-1.124525666E0,1.477834582E0
2.993361094E1,-1.246927753E-1,-1.114751816E0,1.649487615E0
2.995027761E1,-9.231694043E-2,-9.485966563E-1,1.843131781E0
2.996694427E1,-7.948877662E-2,-7.311288118E-1,1.945757031E0
2.998361094E1,-1.656970754E-2,-5.588648915E-1,1.910326838E0
3.000027761E1,4.199695308E-3,-6.504946351E-1,1.751502037E0
3.001694427E1,6.895136088E-2,-8.606321216E-1,1.439350128E0
3.003361094E1,1.624136716E-1,-8.038216829E-1,9.836450219E-1
3.005027760E1,2.943604589E-1,-4.195877314E-1,4.949531853E-1
3.006694427E1,4.232529402E-1,-8.116865903E-2,1.229365394E-1
3.008361094E1,3.878227770E-1,-1.580612548E-2,-9.392046183E-2
3.010027760E1,2.748127878E-1,-5.978839099E-2,-2.765690386E-1
3.011694427E1,2.332739830E-1,-5.551233515E-2,-5.141954422E-1
3.013361093E1,2.435823344E-2,5.261072889E-2,-6.669116020E-1
3.015027760E1,-1.662315726E-1,2.401462197E-1,-7.341067195E-1
3.016694427E1,-1.986074150E-1,3.305542171E-1,-8.458949924E-1
3.018361093E1,-1.314122826E-1,3.232238293E-1,-9.796743989E-1
3.020027760E1,3.413207084E-2,4.649444520E-1,-1.094516993E0
3.021694426E1,1.886808574E-1,8.320741653E-1,-1.101847291E0
3.023361093E1,2.118937224E-1,1.172325850E0,-9.442442060E-1
3.025027760E1,1.844048053E-1,1.183932304E0,-7.964149714E-1
3.026694426E1,1.514181048E-1,1.039157391E0,-6.901245117E-1
3.028361093E1,9.705114365E-2,1.105741620E0,-6.724094152E-1
3.030027759E1,3.474293277E-2,1.248073101E0,-7.261655331E-1
3.031694426E1,1.001054645E-1,1.240131855E0,-7.603739500E-1
3.033361093E1,2.845866382E-1,1.208977699E0,-9.173662066E-1
3.035027759E1,4.568504989E-1,1.177212834E0,-1.025489211E0
3.036694426E1,5.600866675E-1,9.634101391E-1,-1.192866206E0
3.038361092E1,5.564214587E-1,8.699477911E-1,-1.428049088E0
3.040027759E1,3.578903973E-1,8.870519996E-1,-1.611308575E0
3.041694426E1,-6.116283685E-2,7.153990269E-1,-1.644295216E0
3.043361092E1,-5.877282619E-1,3.036761582E-1,-1.517846227E0
3.045027759E1,-1.109406829E0,2.756527252E-2,-1.426827431E0
3.046694425E1,-1.491197228E0,9.903645515E-2,-1.476307511E0
3.048361092E1,-1.540066481E0,1.008690447E-1,-1.457981467E0
3.050027759E1,-1.453934550E0,1.613446623E-1,-1.290604591E0
3.051694425E1,-1.057483315E0,2.987892330E-1,-1.214246511E0
3.053361092E1,-1.912770271E-1,-2.863428742E-2,-1.238070250E0
3.055027758E1,3.957640231E-1,-3.725511432E-1,-1.165988207E0
3.056694425E1,3.901898861E-2,-2.253327519E-1,-8.501710296E-1
3.058361092E1,-2.523635030E-1,6.795870606E-3,-5.685623884E-1
3.060027758E1,-7.406735327E-3,1.369100660E-1,-4.408916533E-1
3.061694425E1,3.053560257E-1,1.362992078E-1,-2.356410921E-1
3.063361091E1,5.631409883E-1,2.224311382E-1,1.603520103E-2
3.065027758E1,5.044979453E-1,2.309832424E-1,2.640463114E-1
3.066694425E1,2.363283187E-1,1.870009750E-1,4.772381186E-1
3.068361091E1,4.634936526E-2,8.009964228E-2,6.171261668E-1
3.070027758E1,-4.528035223E-2,-1.702785492E-2,6.574432254E-1
3.071694424E1,-2.083812505E-1,-5.673406646E-2,7.221949100E-1
3.073361091E1,-2.853502035E-1,-7.261654735E-2,8.181006312E-1
3.075027758E1,-1.961639524E-1,-3.657552972E-2,9.017891288E-1
3.076694424E1,-9.231694043E-2,1.558468789E-1,1.067944407E0
3.078361091E1,7.689260691E-2,2.774089575E-1,1.308625102E0
3.080027757E1,3.316232264E-1,3.073413372E-1,1.580459952E0
3.081694424E1,6.285035014E-1,2.181550860E-1,1.788153887E0
3.083361091E1,7.464004159E-1,-3.840812296E-2,1.837023139E0
3.085027757E1,7.146354318E-1,-1.599702090E-1,1.746004224E0
3.086694424E1,5.729147792E-1,-2.228892893E-1,1.627496481E0
3.088361090E1,1.453094631E-1,-3.542252183E-1,1.895666122E0
3.090027757E1,-2.884045243E-1,-5.802451968E-1,2.166279316E0
3.091694424E1,-4.722748399E-1,-8.227584958E-1,2.355647326E0
3.093361090E1,-5.504655242E-1,-9.229403138E-1,2.450942278E0
3.095027757E1,-4.808269441E-1,-1.058552265E0,2.472933292E0
3.096694423E1,-1.344666034E-1,-8.868992925E-1,2.298836946E0
3.098361090E1,3.835467100E-1,-8.117629290E-1,1.891390085E0
3.100027757E1,7.109702229E-1,-8.899536133E-1,1.439350128E0
3.101694423E1,6.969203353E-1,-8.087086082E-1,9.915862679E-1
3.103361090E1,4.831176698E-1,-6.394990683E-1,4.625773430E-1
3.105027756E1,2.259436101E-1,-6.388881803E-1,-7.742711157E-2
3.106694423E1,-6.238456443E-2,-7.378482819E-1,-5.355756879E-1
3.108361090E1,-3.702604175E-1,-6.718748808E-1,-8.275690675E-1
3.110027756E1,-5.296961069E-1,-4.733438492E-1,-9.967786074E-1
3.111694423E1,-4.582249522E-1,-3.597230017E-1,-1.053588986E0
3.113361089E1,-1.986074150E-1,-2.589302957E-1,-9.802852273E-1
3.115027756E1,4.696023092E-2,1.399643868E-1,-7.060069442E-1
3.116694423E1,1.569158882E-1,4.515054226E-1,-3.211621642E-1
3.118361089E1,1.587484777E-1,3.653734922E-1,-2.000582218E-2
3.120027756E1,1.422551423E-1,2.615264952E-1,1.773035079E-1
3.121694422E1,-8.009964228E-2,3.995819092E-1,6.734783947E-2
3.123361089E1,-3.311650753E-1,4.765508771E-1,-1.708894223E-1
3.125027756E1,-4.673879147E-1,4.050796926E-1,-3.846921027E-1
3.126694422E1,-4.875464439E-1,3.134499788E-1,-5.856665969E-1
3.128361089E1,-4.130209386E-1,2.505309284E-1,-7.841976881E-1
3.130027755E1,-3.152825832E-1,2.761872411E-1,-9.472985864E-1
3.131694422E1,-2.175442129E-1,4.600575268E-1,-1.057254195E0
3.133361089E1,-1.485165060E-1,7.062360644E-1,-1.123838425E0
3.135027755E1,-6.421715766E-2,9.536362886E-1,-1.045036912E0
3.136694422E1,4.146244749E-2,1.026329160E0,-8.306233883E-1
3.138361088E1,1.416442692E-1,9.927316308E-1,-5.722275972E-1
3.140027755E1,2.528216541E-1,9.951750636E-1,-4.341721535E-1
3.141694422E1,3.835467100E-1,1.009835839E0,-4.671588540E-1
3.143361088E1,4.128682315E-1,1.052596331E0,-6.015490890E-1
3.145027755E1,4.061487317E-1,8.113048077E-1,-8.336777091E-1
3.146694421E1,4.140899479E-1,7.618247271E-1,-1.166599035E0
3.148361088E1,3.035234511E-1,6.677515507E-1,-1.435379505E0
3.150027755E1,1.153770834E-1,3.928624094E-1,-1.547167778E0
3.151694421E1,2.680169232E-2,3.042870164E-1,-1.586874008E0
3.153361088E1,-6.788235158E-2,3.543779254E-1,-1.694386125E0
3.155027754E1,-2.761872411E-1,3.678169549E-1,-1.700494885E0
3.156694421E1,-4.728856981E-1,1.668424457E-1,-1.414610147E0
3.158361088E1,-4.209621847E-1,-1.624136716E-1,-1.112232089E0
3.160027754E1,-4.160752594E-1,-4.067595899E-1,-1.026100159E0
3.161694421E1,-5.736783743E-1,-2.357174456E-1,-1.044426084E0
3.163361087E1,-7.147881389E-1,-3.163515925E-1,-1.076801896E0
3.165027754E1,-5.278635025E-1,-6.162862182E-1,-9.778417945E-1
3.166694421E1,-4.637227356E-1,-5.649735332E-1,-7.243329287E-1
3.168361087E1,-4.869355857E-1,-4.941132367E-1,-4.311178327E-1
3.170027754E1,-3.989710510E-1,-2.589302957E-1,-3.407098353E-1
3.171694420E1,-2.224311382E-1,-1.972329617E-1,-3.712530732E-1
3.173361087E1,-9.109520912E-2,-1.373682171E-1,-2.820668221E-1
3.175027754E1,-1.448513120E-1,-1.251509190E-1,2.336557768E-2
3.176694420E1,-7.948877662E-2,-8.422297984E-2,3.037525117E-1
3.178361087E1,9.216422588E-2,-2.619082667E-2,4.137081802E-1
3.180027753E1,1.605810821E-1,6.910407543E-2,4.644099474E-1
3.181694420E1,3.145190179E-1,6.116283685E-2,5.615374446E-1
3.183361087E1,4.531853199E-1,4.528035223E-2,6.873756051E-1
3.185027753E1,5.387063622E-1,9.231694043E-2,8.400917649E-1
3.186694420E1,6.242274642E-1,1.326340139E-1,1.015409946E0
3.188361086E1,7.085267901E-1,8.017600514E-3,1.207832336E0
3.190027753E1,6.804270148E-1,-1.007163301E-1,1.408196092E0
3.191694420E1,6.052906513E-1,-2.143371850E-1,1.544418931E0
3.193361086E1,4.983893037E-1,-4.140899479E-1,1.583514214E0
3.195027753E1,3.304014802E-1,-5.564214587E-1,1.554803610E0
3.196694419E1,2.161697745E-1,-6.853139400E-1,1.457065225E0
3.198361086E1,2.106719911E-1,-8.429170251E-1,1.491273642E0
3.200027753E1,1.899025887E-1,-9.046143889E-1,1.748447657E0
3.201694419E1,1.349247545E-1,-7.708349824E-1,1.964082956E0
3.203361086E1,3.107774630E-2,-8.105412126E-1,1.967748165E0
3.205027752E1,-1.130863428E-1,-8.306997418E-1,1.820529819E0
3.206694419E1,-2.419788092E-1,-7.531198859E-1,1.556025267E0
3.208361086E1,-3.525453210E-1,-8.105412126E-1,1.325729251E0
3.210027752E1,-3.794233799E-1,-8.875101805E-1,1.158352375E0
3.211694419E1,-3.018435538E-1,-8.160389662E-1,1.009912252E0
3.213361085E1,-2.413679510E-1,-7.628937364E-1,9.201150537E-1
3.215027752E1,-7.635809743E-5,-5.209913254E-1,7.820596099E-1
3.216694419E1,2.497673333E-1,-4.348593652E-1,5.981893539E-1
3.218361085E1,3.304014802E-1,-2.137263119E-1,4.741837978E-1
3.220027752E1,3.542252183E-1,-5.421424750E-3,3.776671588E-1
3.221694418E1,2.693150043E-1,3.978256881E-2,2.921460867E-1
3.223361085E1,1.343138963E-1,1.289688200E-1,1.980729103E-1
3.225027752E1,-3.130682046E-3,1.020907760E-1,-5.482511222E-2
3.226694418E1,-1.534034163E-1,1.643989831E-1,-3.083339930E-1
3.228361085E1,-2.407570779E-1,1.912770271E-1,-5.575668216E-1
3.230027751E1,-2.505309284E-1,1.393535286E-1,-7.292198539E-1
3.231694418E1,-2.774089575E-1,2.132681608E-1,-8.648318052E-1
3.233361085E1,-2.401462197E-1,2.389244884E-1,-9.802852273E-1
3.235027751E1,-1.149189398E-1,3.226129711E-1,-1.064584613E0
3.236694418E1,-7.582359016E-2,5.437459946E-1,-1.107956052E0
3.238361084E1,-1.570686102E-1,7.025708556E-1,-1.050534725E0
3.240027751E1,-2.480874658E-1,6.885209680E-1,-9.259182811E-1
3.241694418E1,-3.293324709E-1,5.767326951E-1,-7.640390992E-1
3.243361084E1,-3.299433291E-1,5.364156365E-1,-6.186532974E-1
3.245027751E1,-2.108247131E-1,5.376373529E-1,-5.929969549E-1
3.246694417E1,-8.437569439E-2,7.386118770E-1,-6.430879235E-1
3.248361084E1,8.788817376E-2,8.803325295E-1,-7.408262491E-1
3.250027751E1,2.864192128E-1,8.894954920E-1,-7.976366878E-1
3.251694417E1,4.397462904E-1,9.157626629E-1,-9.424116611E-1
3.253361084E1,5.716930628E-1,9.408081174E-1,-1.161101222E0
3.255027750E1,6.291143894E-1,8.430697322E-1,-1.390786409E0
3.256694417E1,5.582540631E-1,8.534544706E-1,-1.549611211E0
3.258361084E1,3.682751060E-1,7.141773105E-1,-1.572213173E0
3.260027750E1,1.275943816E-1,5.290852785E-1,-1.489746451E0
3.261694417E1,-1.753945500E-1,2.963457704E-1,-1.426827431E0
3.263361083E1,-4.502837062E-1,1.595884189E-2,-1.434157729E0
3.265027750E1,-5.596284866E-1,-1.324812919E-1,-1.509904981E0
3.266694417E1,-7.044034600E-1,-2.827540338E-1,-1.348025799E0
3.268361083E1,-9.395864010E-1,-3.132972717E-1,-1.032819629E0
3.270027750E1,-9.566906095E-1,-2.399934977E-1,-8.996511102E-1
3.271694416E1,-6.756927967E-1,-3.065777719E-1,-1.051756382E0
3.273361083E1,-4.429533184E-1,-4.696786702E-1,-1.140331864E0
3.275027750E1,-3.598757088E-1,-6.730966568E-1,-1.019380569E0
3.276694416E1,-3.959167302E-1,-4.391354322E-1,-7.786998749E-1
3.278361083E1,-3.598757088E-1,-4.122573733E-1,-5.917752385E-1
3.280027749E1,-1.735619605E-1,-3.597230017E-1,-4.347830117E-1
3.281694416E1,5.062541738E-2,-2.320522517E-1,-2.863428593E-1
3.283361083E1,3.230711222E-1,-1.086575761E-1,-7.742711157E-2
3.285027749E1,4.990001619E-1,-2.924515121E-2,1.443168074E-1
3.286694416E1,5.399280787E-1,3.184132650E-2,2.964221239E-1
3.288361082E1,5.771908760E-1,-4.024071619E-2,4.625773430E-1
3.290027749E1,5.454258919E-1,-3.168861195E-2,5.914698243E-1
3.291694416E1,5.124391913E-1,-1.336266659E-2,6.934842467E-1
3.293361082E1,5.252673626E-1,-7.994692773E-2,7.900008559E-1
3.295027749E1,5.167152286E-1,-1.868482679E-1,9.561560750E-1
3.296694415E1,5.240456462E-1,-2.705367506E-1,1.154687166E0
3.298361082E1,4.837285578E-1,-4.403571486E-1,1.366046309E0
3.300027749E1,4.428006113E-1,-5.063305497E-1,1.527314663E0
3.301694415E1,4.599048197E-1,-4.183660150E-1,1.612835765E0
3.303361082E1,3.908770978E-1,-4.318050444E-1,1.644600749E0
3.305027748E1,3.041343093E-1,-6.272817850E-1,1.643378973E0
3.306694415E1,2.742019296E-1,-7.152463198E-1,1.626885653E0
3.308361082E1,2.357174456E-1,-7.176897526E-1,1.592066288E0
3.310027748E1,2.479347438E-1,-8.178715706E-1,1.623831272E0
3.311694415E1,1.007163301E-1,-9.266055226E-1,1.675143957E0
3.313361081E1,-1.253036410E-1,-1.032896042E0,1.584735990E0
3.315027748E1,-3.152825832E-1,-1.045113325E0,1.501047492E0
3.316694415E1,-3.739255965E-1,-9.785290360E-1,1.472947717E0
3.318361081E1,-2.731329203E-1,-9.052252173E-1,1.418580770E0
3.320027748E1,6.643154658E-3,-6.657662392E-1,1.304349065E0
3.321694414E1,3.010799885E-1,-7.476221323E-1,1.079550743E0
3.323361081E1,5.344303250E-1,-5.600866675E-1,8.474221826E-1
3.325027748E1,5.374846458E-1,-2.735910714E-1,7.118101716E-1
3.326694414E1,4.305832982E-1,-5.184714869E-2,6.317868829E-1
3.328361081E1,2.827540338E-1,-7.444914430E-2,4.937314689E-1
3.330027747E1,2.253327519E-1,-9.705114365E-2,3.287979662E-1
3.331694414E1,2.473238707E-1,9.781472385E-2,1.479819864E-1
3.333361081E1,2.167806327E-1,1.534034163E-1,-2.901607659E-3
3.335027747E1,1.214857325E-1,2.535852492E-1,-6.276635826E-2
3.336694414E1,2.557996288E-2,2.792415619E-1,-2.228129357E-1
3.338361080E1,-6.185005885E-3,2.774089575E-1,-3.938550651E-1
3.340027747E1,-5.138900131E-2,2.566395700E-1,-4.958694875E-1
3.341694414E1,-6.421715766E-2,2.847393453E-1,-5.551233888E-1
3.343361080E1,-9.414953738E-2,3.122282624E-1,-6.223185062E-1
3.345027747E1,-1.259144992E-1,3.824777007E-1,-7.218894362E-1
3.346694413E1,-1.277471036E-1,4.924333692E-1,-7.841976881E-1
3.348361080E1,-1.088102907E-1,5.712349415E-1,-7.841976881E-1
3.350027747E1,-1.118646115E-1,6.634755135E-1,-7.298306823E-1
