"Time (s)","Acceleration x (m/s^2)","Acceleration y (m/s^2)","Acceleration z (m/s^2)"
9.747243000E-3,-5.138885498E0,5.765805244E0,4.530510426E0
2.408802500E-2,-4.729115009E0,5.982056618E0,7.759923935E0
4.075469100E-2,0.000000000E0,0.000000000E0,0.000000000E0
5.742135700E-2,0.000000000E0,0.000000000E0,0.000000000E0
7.408802300E-2,0.000000000E0,0.000000000E0,0.000000000E0
9.075468900E-2,-4.094119549E0,4.776971340E0,6.474977970E0
1.074213550E-1,-4.631607533E0,4.449752808E0,6.209374905E0
1.240880210E-1,-4.823930264E0,4.284647942E0,6.934400082E0
1.407546870E-1,-4.823930264E0,4.284647942E0,6.934400082E0
1.574213530E-1,-4.823930264E0,4.284647942E0,6.934400082E0
1.740880190E-1,-4.823930264E0,4.284647942E0,6.934400082E0
1.907546850E-1,-2.584248543E0,5.263312340E0,8.688339233E0
2.074213510E-1,-2.719742060E0,5.205286503E0,8.891729355E0
2.240880170E-1,-2.973381281E0,5.044070244E0,9.438788414E0
2.407546830E-1,-2.973381281E0,5.044070244E0,9.438788414E0
2.574213490E-1,-2.973381281E0,5.044070244E0,9.438788414E0
2.740880150E-1,-3.538087368E0,4.843970299E0,7.852346420E0
2.907546810E-1,-3.538087368E0,4.843970299E0,7.852346420E0
3.074213470E-1,-3.030210733E0,5.422136307E0,8.193922043E0
3.240880130E-1,-3.030210733E0,5.422136307E0,8.193922043E0
3.407546790E-1,-3.030210733E0,5.422136307E0,8.193922043E0
3.574213450E-1,-3.030210733E0,5.422136307E0,8.193922043E0
3.740880110E-1,-3.599702597E0,4.010370731E0,7.989634991E0
3.907546770E-1,-3.353241920E0,4.306183338E0,8.006384850E0
4.074213430E-1,-2.830709219E0,4.673182487E0,8.388339043E0
4.240880090E-1,-2.449352980E0,4.870889664E0,8.671588898E0
4.407546750E-1,-2.449352980E0,4.870889664E0,8.671588898E0
4.574213410E-1,-2.449352980E0,4.870889664E0,8.671588898E0
4.740880070E-1,-2.590529680E0,4.393222332E0,7.824530125E0
4.907546730E-1,-2.590529680E0,4.393222332E0,7.824530125E0
5.074213390E-1,-2.378465652E0,4.641178608E0,7.380960464E0
5.240880050E-1,-2.261217356E0,4.847858906E0,7.105785847E0
5.407546710E-1,-2.261217356E0,4.847858906E0,7.105785847E0
5.574213370E-1,-2.261217356E0,4.847858906E0,7.105785847E0
5.740880030E-1,-2.261217356E0,4.847858906E0,7.105785847E0
5.907546690E-1,-2.039582253E0,3.984946966E0,8.369195938E0
6.074213350E-1,-2.039582253E0,3.984946966E0,8.369195938E0
6.240880010E-1,-2.133500576E0,3.352344513E0,8.906085968E0
6.407546670E-1,-2.133500576E0,3.352344513E0,8.906085968E0
6.574213330E-1,-2.133500576E0,3.352344513E0,8.906085968E0
6.740879990E-1,-4.468895435E0,6.978068948E-1,9.252147675E0
6.907546650E-1,-4.468895435E0,6.978068948E-1,9.252147675E0
7.074213310E-1,-4.597509384E0,-2.958126962E-1,9.378369331E0
7.240879970E-1,-5.234598637E0,-5.943173170E-1,9.197113037E0
7.407546630E-1,-5.043172836E0,-2.521436810E-1,8.321339607E0
7.574213290E-1,-5.043172836E0,-2.521436810E-1,8.321339607E0
7.740879950E-1,-5.043172836E0,-2.521436810E-1,8.321339607E0
7.907546610E-1,-5.043172836E0,-2.521436810E-1,8.321339607E0
8.074213270E-1,2.321037948E-1,4.019044876E0,1.090020466E1
8.240879930E-1,1.261017561E0,5.552245617E0,1.332951736E1
8.407546590E-1,2.941676378E0,8.555238724E0,1.690289879E1
8.574213250E-1,2.941676378E0,8.555238724E0,1.690289879E1
8.740879910E-1,4.606183529E0,1.059691429E1,1.301067448E1
8.907546570E-1,4.606183529E0,1.059691429E1,1.301067448E1
9.074213230E-1,5.703591824E0,7.398607731E0,7.944170952E0
9.240879890E-1,5.703591824E0,7.398607731E0,7.944170952E0
9.407546550E-1,3.501596928E0,4.712365150E0,2.330609322E0
9.574213210E-1,3.501596928E0,4.712365150E0,2.330609322E0
9.740879870E-1,3.501596928E0,4.712365150E0,2.330609322E0
9.907546530E-1,3.501596928E0,4.712365150E0,2.330609322E0
1.007421319E0,3.501596928E0,4.712365150E0,2.330609322E0
1.024087985E0,-1.201585770E1,-6.643373013E0,9.074481010E0
1.040754651E0,-1.107248783E1,-7.622037411E0,8.595019341E0
1.057421317E0,-1.107248783E1,-7.622037411E0,8.595019341E0
1.074087983E0,-1.107248783E1,-7.622037411E0,8.595019341E0
1.090754649E0,-1.107248783E1,-7.622037411E0,8.595019341E0
1.107421315E0,-1.107248783E1,-7.622037411E0,8.595019341E0
1.124087981E0,-2.018944174E-1,2.031506538E0,3.684049606E0
1.140754647E0,2.234298140E-1,3.578765392E0,2.349751949E0
1.157421313E0,2.234298140E-1,3.578765392E0,2.349751949E0
1.174087979E0,2.234298140E-1,3.578765392E0,2.349751949E0
1.190754645E0,2.234298140E-1,3.578765392E0,2.349751949E0
1.207421311E0,3.517449200E-1,3.707977772E0,1.362084389E1
1.224087977E0,3.215355575E-1,3.820440531E0,1.293470192E1
1.240754643E0,-1.100698411E-1,3.676871061E0,1.172961617E1
1.257421309E0,-1.100698411E-1,3.676871061E0,1.172961617E1
1.274087975E0,-1.100698411E-1,3.676871061E0,1.172961617E1
1.290754641E0,-1.100698411E-1,3.676871061E0,1.172961617E1
1.307421307E0,-3.326023519E-1,1.635793328E0,1.563859177E1
1.324087973E0,-6.547361016E-1,1.432403445E0,1.350419331E1
1.340754639E0,-1.279262781E0,2.100000858E0,1.093669510E1
1.357421305E0,-1.409372568E0,2.695813894E0,9.470791817E0
1.374087971E0,-1.409372568E0,2.695813894E0,9.470791817E0
1.390754637E0,-1.409372568E0,2.695813894E0,9.470791817E0
1.407421303E0,-1.409372568E0,2.695813894E0,9.470791817E0
1.424087969E0,-1.409372568E0,2.695813894E0,9.470791817E0
1.440754635E0,-1.736291885E0,1.921436548E0,1.008185863E1
1.457421301E0,-2.683849812E0,1.654935956E0,1.075573826E1
1.474087967E0,-4.072584152E0,5.120640397E-1,9.999606133E0
1.490754633E0,-2.837887764E0,8.901300430E-1,1.039681435E1
1.507421299E0,-3.847658873E0,8.997012973E-1,1.041117096E1
1.524087965E0,-4.005585194E0,8.566305041E-1,1.024845982E1
1.540754631E0,-4.228117466E0,8.470591903E-1,1.223450184E1
1.557421297E0,-1.852044702E0,1.945364833E0,1.089930725E1
1.574087963E0,-1.806581140E0,2.376072884E0,8.051848412E0
1.590754629E0,-2.861815929E0,4.386044025E0,5.106283665E0
1.607421295E0,-2.318645239E0,4.335794449E0,5.120640278E0
1.624087961E0,-4.094119549E0,6.963114142E-1,7.453642368E0
1.640754627E0,-3.866801500E0,-9.714859724E-1,8.748159409E0
1.657421293E0,-2.921636343E0,-3.390629768E0,9.288937569E0
1.674087959E0,-3.022135019E0,-4.558327198E0,7.755138397E0
1.690754625E0,-4.560719967E0,-4.898108006E0,8.185846329E0
1.707421291E0,-5.350351334E0,-5.460421085E0,8.147561073E0
1.724087957E0,-6.142375946E0,-5.977271080E0,8.367700577E0
1.740754623E0,-6.080162525E0,-6.881757736E0,7.520641804E0
1.757421289E0,-6.080162525E0,-6.881757736E0,7.520641804E0
1.774087955E0,-4.596612453E0,-7.568498135E0,5.328815937E0
1.790754621E0,-3.474378586E0,-8.051848412E0,3.682554007E0
1.807421287E0,-4.668396950E0,-7.087540627E0,3.500699520E0
1.824087953E0,-4.668396950E0,-7.087540627E0,3.500699520E0
1.840754619E0,-4.347758770E0,-7.939385414E0,1.684547186E0
1.857421285E0,-3.864408493E0,-8.918049812E0,1.938186288E0
1.874087951E0,-3.409772158E0,-9.994820595E0,3.589233875E0
1.890754617E0,-4.733003139E0,-9.487542152E0,3.199203968E0
1.907421283E0,-4.826323509E0,-9.655039787E0,2.904886723E0
1.924087949E0,-4.405186653E0,-9.882357597E0,2.277967215E0
1.940754615E0,-4.350151539E0,-9.698110580E0,1.624726534E0
1.957421281E0,-4.022335052E0,-8.434700012E0,1.478764415E0
1.974087947E0,-3.962514400E0,-8.149953842E0,1.316052437E0
1.990754613E0,-4.314259052E0,-7.721638680E0,1.208375454E0
2.007421279E0,-4.314259052E0,-7.721638680E0,1.208375454E0
2.024087945E0,-2.581855536E0,-1.003789139E1,2.084148407E0
2.040754611E0,-2.926422119E0,-9.540184021E0,2.801995277E0
2.057421277E0,-2.955136061E0,-8.425128937E0,2.182254314E0
2.074087943E0,-4.024727821E0,-9.626325607E0,2.615355253E0
2.090754609E0,-4.536791801E0,-1.111705399E1,3.433700562E0
2.107421275E0,-3.929014683E0,-1.120558834E1,3.144168854E0
2.124087941E0,-3.488735437E0,-1.038006496E1,3.113062143E0
2.140754607E0,-3.488735437E0,-1.038006496E1,3.113062143E0
2.157421273E0,-2.991028309E0,-9.248259544E0,8.518448472E-1
2.174087939E0,-3.761517286E0,-8.930013657E0,1.110269666E0
2.190754605E0,-3.314059258E0,-9.394221306E0,1.158126116E0
2.207421271E0,-3.314059258E0,-9.394221306E0,1.158126116E0
2.224087937E0,-2.895315409E0,-1.005703354E1,8.015955687E-1
2.240754603E0,-2.261217356E0,-1.007856941E1,1.555334777E-1
2.257421269E0,-3.000599623E0,-9.844072342E0,-3.493520916E-1
2.274087935E0,-3.000599623E0,-9.844072342E0,-3.493520916E-1
2.290754601E0,-4.366901398E0,-9.951749802E0,-6.340979934E-1
2.307421267E0,-4.060619831E0,-8.590232849E0,-8.135597110E-1
2.324087933E0,-4.108476639E0,-8.444271088E0,-1.852044702E0
2.340754599E0,-3.390629768E0,-8.197810173E0,-1.320838094E0
2.357421265E0,-3.287738323E0,-8.618947029E0,-1.454836130E0
2.374087931E0,-2.629712105E0,-9.801001549E0,-1.933400750E0
2.390754597E0,-1.490728498E0,-1.045424175E1,-2.857030153E0
2.407421263E0,-1.490728498E0,-1.045424175E1,-2.857030153E0
2.424087929E0,-1.095912814E0,-8.709874153E0,-2.309073925E0
2.440754595E0,-1.660618901E0,-8.425128937E0,-1.629512191E0
2.457421261E0,-1.249053478E0,-8.671588898E0,-1.024128079E0
2.474087927E0,-1.249053478E0,-8.671588898E0,-1.024128079E0
2.490754593E0,-4.187439442E0,-1.034656525E1,-4.187439680E-1
2.507421259E0,-2.596212626E0,-9.236295700E0,-1.129412293E0
2.524087925E0,-2.021935225E0,-8.585447311E0,-1.083948612E0
2.540754591E0,-2.021935225E0,-8.585447311E0,-1.083948612E0
2.557421257E0,-3.249453068E0,-8.800801277E0,-3.996013701E-1
2.574087923E0,-4.027120590E0,-9.001798630E0,-6.987041831E-1
2.590754589E0,-4.027120590E0,-9.001798630E0,-6.987041831E-1
2.607421255E0,-3.467200041E0,-6.738188744E0,-1.201196909E0
2.624087921E0,-3.151347399E0,-6.702296257E0,-1.935793519E0
2.640754587E0,-1.950150490E0,-7.326822758E0,-1.954936147E0
2.657421253E0,-1.950150490E0,-7.326822758E0,-1.954936147E0
2.674087919E0,-2.400001049E0,-5.943771362E0,-1.466800332E0
2.690754585E0,-2.624926329E0,-5.144568920E0,-1.172483087E0
2.707421251E0,-3.756731510E0,-4.220939159E0,-2.203789711E0
2.724087917E0,-5.036891460E0,-4.744967461E0,-1.746760488E0
2.740754583E0,-5.036891460E0,-4.744967461E0,-1.746760488E0
2.757421249E0,-4.867001057E0,-6.123233318E0,-2.155933142E0
2.774087915E0,-4.065405846E0,-5.687739372E0,-2.488535643E0
2.790754581E0,-4.065405846E0,-5.687739372E0,-2.488535643E0
2.807421247E0,-3.139383316E0,-6.862615108E0,-2.691925526E0
2.824087913E0,-1.720439434E0,-6.972685337E0,-2.373680115E0
2.840754579E0,-3.007778168E0,-7.298109055E0,-3.596412420E0
2.857421245E0,-3.007778168E0,-7.298109055E0,-3.596412420E0
2.874087911E0,-3.926621914E0,-7.704888821E0,-2.287538528E0
2.890754577E0,-5.319244862E0,-8.697910309E0,-9.595218897E-1
2.907421243E0,-5.393422127E0,-8.602197647E0,-5.024927258E-1
2.924087909E0,-5.190032482E0,-8.925228119E0,-1.406979680E0
2.940754575E0,-5.673382282E0,-9.332008362E0,-1.880758643E0
2.957421241E0,-6.381658077E0,-9.932606697E0,-2.069791555E0
2.974087907E0,-6.503692150E0,-8.977870941E0,-8.135597110E-1
2.990754573E0,-6.503692150E0,-8.977870941E0,-8.135597110E-1
3.007421239E0,-5.723631859E0,-9.186046600E0,-3.780659735E-1
3.024087905E0,-5.036891460E0,-6.793223381E0,3.062812984E-1
3.040754571E0,-5.036891460E0,-6.793223381E0,3.062812984E-1
3.057421237E0,-5.876772404E0,-8.891729355E0,1.627119333E-1
3.074087903E0,-6.429514408E0,-9.085547447E0,2.249253243E-1
3.090754569E0,-6.429514408E0,-9.085547447E0,2.249253243E-1
3.107421235E0,-4.969892502E0,-6.003592014E0,2.799602449E-1
3.124087901E0,-4.658825874E0,-4.663611412E0,8.374879360E-1
3.140754567E0,-5.795416355E0,-5.077569485E0,8.446664214E-1
3.157421233E0,-8.571090698E0,-4.362115860E0,2.182254314E0
3.174087899E0,-9.221938133E0,-3.763910055E0,2.225325108E0
3.190754565E0,-9.221938133E0,-3.763910055E0,2.225325108E0
3.207421231E0,-8.183453560E0,-1.818545222E0,2.079362869E0
3.224087897E0,-8.157132149E0,-6.652047038E-1,6.532405615E-1
3.240754563E0,-1.026520920E1,-8.542376757E-1,1.435693622E0
3.257421229E0,-1.026520920E1,-8.542376757E-1,1.435693622E0
3.274087895E0,-1.333520031E1,-2.352144718E0,2.983849764E0
3.290754561E0,-1.352662659E1,-3.445664644E-1,1.670190215E0
3.307421227E0,-1.197846985E1,3.445664644E-1,1.390229940E0
3.324087893E0,-1.197846985E1,3.445664644E-1,1.390229940E0
3.340754559E0,-1.133480072E1,-3.409772158E0,3.062813044E0
3.357421225E0,-1.074855900E1,-4.539184570E0,3.902693748E0
3.374087891E0,-1.023649502E1,-4.584648132E0,3.907479286E0
3.390754557E0,-1.023649502E1,-4.584648132E0,3.907479286E0
3.407421223E0,-1.009053326E1,-4.424329281E0,6.343372822E0
3.424087889E0,-1.114337540E1,-3.029313564E0,6.202196121E0
3.440754555E0,-1.154776192E1,-1.847259045E0,5.221138954E0
3.457421221E0,-1.191386414E1,-1.397408366E0,6.855436802E0
3.474087887E0,-1.189711380E1,-9.834501147E-1,6.690331936E0
3.490754553E0,-1.198564816E1,-9.092726111E-1,6.886543751E0
3.507421219E0,-1.083230782E1,1.986042738E0,5.855237007E0
3.524087885E0,-1.002114105E1,2.067398787E0,5.146961689E0
3.540754551E0,-8.886942863E0,3.780659735E-1,4.759324074E0
3.557421217E0,-8.221738815E0,2.141576290E0,4.558327198E0
3.574087883E0,-7.338787079E0,7.003791809E0,3.175275564E0
3.590754549E0,-7.317251682E0,7.166503906E0,2.811566591E0
3.607421215E0,-7.719245911E0,5.491528034E0,3.084348440E0
3.624087881E0,-9.095118523E0,2.533999205E0,3.550948858E0
3.640754547E0,-9.095118523E0,2.533999205E0,3.550948858E0
3.657421213E0,-1.071027374E1,-2.000399828E0,2.541177750E0
3.674087879E0,-1.243549919E1,-2.060220242E0,2.952743053E0
3.690754545E0,-1.267478180E1,-5.000999570E-1,6.029912829E-1
3.707421211E0,-1.161236858E1,3.397808075E-1,-3.596412420E0
3.724087877E0,-1.082273674E1,1.148554921E0,-5.139782906E0
3.740754543E0,-9.272188187E0,-2.608176768E-1,-4.077369690E0
3.757421209E0,-1.037767220E1,4.331009090E-1,2.160718918E0
3.774087875E0,-1.233260822E1,2.854637384E0,6.754938126E0
3.790754541E0,-1.292602825E1,-2.758924484E0,7.566105366E0
3.807421207E0,-1.461057472E1,-3.270988464E0,4.584648132E0
3.824087873E0,-1.364626789E1,3.371487141E0,-2.177468538E-1
3.840754539E0,-1.384965706E1,3.814159393E0,-2.526820660E0
3.857421205E0,-1.563948917E1,3.713660717E0,-1.265803218E0
3.874087871E0,-1.462971783E1,8.767302513E0,-2.665604353E0
3.890754537E0,-8.618947029E0,4.819144726E0,-4.003192425E0
3.907421203E0,-3.349951744E0,4.424329281E0,3.043670416E0
3.924087869E0,-3.232703447E0,4.254438877E0,5.297709465E0
3.940754535E0,-5.039284706E0,2.794816732E0,3.625126362E0
3.957421201E0,-5.039284706E0,2.794816732E0,3.625126362E0
3.974087867E0,-7.350750923E0,-1.627119422E0,2.392822690E-2
3.990754533E0,-8.401200294E0,-1.112662554E0,-6.963114142E-1
4.007421199E0,-8.401200294E0,-1.112662554E0,-6.963114142E-1
4.024087865E0,-1.023888779E1,-7.188039303E0,-1.036092162E0
4.040754531E0,-1.016949654E1,-4.118047714E0,2.031506538E0
4.057421197E0,-8.525627136E0,3.637090445E0,-8.334200859E0
4.074087863E0,-6.226124287E0,1.285424328E1,-1.241874933E0
4.090754529E0,-6.226124287E0,1.285424328E1,-1.241874933E0
4.107421195E0,-7.781459332E0,9.267401695E0,1.012642574E1
4.124087861E0,-8.571090698E0,9.475577474E-1,1.172483087E0
4.140754527E0,-1.028674412E1,7.704889178E-1,2.895315409E0
4.157421193E0,-1.149033451E1,4.520041943E0,3.062813044E0
4.174087859E0,-1.189232826E1,3.821337700E0,3.670589924E0
4.190754525E0,-1.165783215E1,4.204189301E0,-6.580262184E-1
4.207421191E0,-7.475177765E0,7.520641804E0,2.208575249E0
4.224087857E0,-5.118247509E0,6.561119556E0,4.323830605E0
4.240754523E0,-4.893322468E0,5.809773445E0,2.809173822E0
4.257421189E0,-5.103890896E0,4.419543266E0,4.666004181E-1
4.274087855E0,-4.027120590E0,4.352544308E0,1.368694544E0
4.290754521E0,-3.814159393E0,4.768895626E0,3.048455954E0
4.290754521E0,-3.814159393E0,4.768895626E0,3.048455954E0
4.324087853E0,-6.766902447E0,4.182653904E0,-2.280359983E0
4.340754519E0,-6.766902447E0,4.182653904E0,-2.280359983E0
4.357421185E0,-8.877371788E0,6.034698486E0,3.835694790E0
4.374087851E0,-1.019342422E1,6.848258495E0,4.888536453E0
4.390754517E0,-1.019342422E1,6.848258495E0,4.888536453E0
4.407421183E0,-7.861319542E0,8.219346046E0,2.518744946E0
4.424087849E0,-6.352046967E0,8.541479111E0,1.995015889E-1
4.440754515E0,-5.257031441E0,8.159524918E0,-1.034596682E0
4.457421181E0,-5.257031441E0,8.159524918E0,-1.034596682E0
4.474087847E0,-5.257031441E0,8.159524918E0,-1.034596682E0
4.490754513E0,-5.257031441E0,8.159524918E0,-1.034596682E0
4.507421179E0,-5.257031441E0,8.159524918E0,-1.034596682E0
4.524087845E0,-5.257031441E0,8.159524918E0,-1.034596682E0
4.540754511E0,-5.257031441E0,8.159524918E0,-1.034596682E0
4.557421177E0,-5.257031441E0,8.159524918E0,-1.034596682E0
4.574087843E0,-5.257031441E0,8.159524918E0,-1.034596682E0
4.590754509E0,-5.257031441E0,8.159524918E0,-1.034596682E0
4.607421175E0,-5.257031441E0,8.159524918E0,-1.034596682E0
4.624087841E0,-5.280062199E0,4.708177567E0,-3.669991791E-1
4.640754507E0,-5.361418247E0,2.599502802E0,-2.251646042E0
4.657421173E0,-5.361418247E0,2.599502802E0,-2.251646042E0
4.674087839E0,-5.361418247E0,2.599502802E0,-2.251646042E0
4.690754505E0,-5.361418247E0,2.599502802E0,-2.251646042E0
4.707421171E0,-5.361418247E0,2.599502802E0,-2.251646042E0
4.724087837E0,-5.361418247E0,2.599502802E0,-2.251646042E0
4.740754503E0,-8.572586060E0,7.897212029E0,1.977368832E0
4.757421169E0,-8.572586060E0,7.897212029E0,1.977368832E0
4.774087835E0,-8.572586060E0,7.897212029E0,1.977368832E0
4.790754501E0,-8.572586060E0,7.897212029E0,1.977368832E0
4.807421167E0,-8.572586060E0,7.897212029E0,1.977368832E0
4.824087833E0,-8.572586060E0,7.897212029E0,1.977368832E0
4.840754499E0,-3.841377735E0,1.401296735E0,-1.431805253E0
4.857421165E0,-3.841377735E0,1.401296735E0,-1.431805253E0
4.874087831E0,-3.841377735E0,1.401296735E0,-1.431805253E0
4.890754497E0,-3.841377735E0,1.401296735E0,-1.431805253E0
4.907421163E0,-6.962216377E0,-1.196411327E-1,-2.976073027E-1
4.924087829E0,-6.962216377E0,-1.196411327E-1,-2.976073027E-1
4.940754495E0,-2.568994284E0,1.586441398E0,-2.747857809E0
4.957421161E0,-2.568994284E0,1.586441398E0,-2.747857809E0
4.974087827E0,-2.568994284E0,1.586441398E0,-2.747857809E0
4.990754493E0,-2.568994284E0,1.586441398E0,-2.747857809E0
5.007421159E0,-2.568994284E0,1.586441398E0,-2.747857809E0
5.024087825E0,-6.573981285E0,1.555723572E1,-4.115654826E-1
5.040754491E0,-6.380162239E0,1.732254028E1,-2.587538481E0
5.057421157E0,-1.123430252E1,1.700190163E1,4.058227062E0
5.074087823E0,-1.293709469E1,1.064417267E1,2.833999395E0
5.090754489E0,-1.293709469E1,1.064417267E1,2.833999395E0
5.107421155E0,-1.293709469E1,1.064417267E1,2.833999395E0
5.124087821E0,-1.293709469E1,1.064417267E1,2.833999395E0
5.140754487E0,-2.167000055E0,8.732905388E0,-1.168594718E0
5.157421153E0,-3.216850996E0,8.714659691E0,1.825723648E0
5.174087819E0,-3.216850996E0,8.714659691E0,1.825723648E0
5.190754485E0,-3.216850996E0,8.714659691E0,1.825723648E0
5.207421151E0,-3.216850996E0,8.714659691E0,1.825723648E0
5.224087817E0,-9.112766266E0,5.729314804E0,2.297109663E-1
5.240754483E0,-5.835196972E0,1.025713348E1,-5.726024628E0
5.257421149E0,-1.121336460E0,1.213071346E1,-2.976671457E0
5.274087815E0,3.540480137E0,4.957928658E0,4.485046864E0
5.290754481E0,3.540480137E0,4.957928658E0,4.485046864E0
5.307421147E0,-7.410571575E0,5.193322659E0,-2.934198678E-1
5.324087813E0,-7.410571575E0,5.193322659E0,-2.934198678E-1
5.340754479E0,-5.429314613E0,7.417750359E0,2.204686880E0
5.357421145E0,-4.752145767E0,5.588736534E0,-1.363908887E0
5.374087811E0,-4.752145767E0,5.588736534E0,-1.363908887E0
5.390754477E0,-4.752145767E0,5.588736534E0,-1.363908887E0
5.407421143E0,-4.752145767E0,5.588736534E0,-1.363908887E0
5.424087809E0,-1.182293701E1,7.795815945E0,7.070790768E0
5.440754475E0,-1.301306725E1,9.361619949E0,4.431507587E0
5.457421141E0,-1.310937786E1,9.873683929E0,2.152044773E0
5.474087807E0,-1.310937786E1,9.873683929E0,2.152044773E0
5.490754473E0,-1.310937786E1,9.873683929E0,2.152044773E0
5.507421139E0,-1.310937786E1,9.873683929E0,2.152044773E0
5.524087805E0,-4.508975029E0,1.008664513E1,3.215355575E-1
5.540754471E0,-5.720341682E0,1.084816074E1,1.992323995E0
5.557421137E0,-5.844768524E0,1.308245850E1,4.710570335E0
5.574087803E0,-5.844768524E0,1.308245850E1,4.710570335E0
5.590754469E0,-3.155235767E0,1.087777138E1,-2.065006018E0
5.607421135E0,-3.155235767E0,1.087777138E1,-2.065006018E0
5.624087801E0,-3.155235767E0,1.087777138E1,-2.065006018E0
5.640754467E0,-3.155235767E0,1.087777138E1,-2.065006018E0
5.657421133E0,1.418943882E0,6.412764549E0,3.884448528E0
5.674087799E0,-1.348953694E-1,8.682656288E0,1.933400750E0
5.690754465E0,-1.348953694E-1,8.682656288E0,1.933400750E0
5.707421131E0,-1.348953694E-1,8.682656288E0,1.933400750E0
5.724087797E0,-7.860422611E0,9.762716293E0,-6.293123364E-1
5.740754463E0,-1.380658627E1,5.331208706E0,-1.076770186E0
5.757421129E0,-5.893522263E0,6.051448345E0,-4.113262177E0
5.774087795E0,-3.804588020E-1,6.111268997E0,-3.751945972E0
5.790754461E0,4.847858906E0,8.020741463E0,-3.053241730E0
5.807421127E0,5.613562107E0,8.082955360E0,-1.052842021E0
5.824087793E0,3.574877024E0,6.996613503E0,-4.546362907E-2
5.840754459E0,3.361915827E0,6.642475605E0,8.422735929E-1
5.857421125E0,2.529213428E0,7.424928665E0,2.775674164E-1
5.874087791E0,-4.522434771E-1,6.678368092E0,-1.531406492E-1
5.890754457E0,-4.187439442E0,7.080362320E0,5.757131100E0
5.907421123E0,-4.187439442E0,7.080362320E0,5.757131100E0
5.924087789E0,-3.046063185E0,1.015513897E1,1.170808125E1
5.940754455E0,-7.178467698E-3,6.900900364E0,2.359323025E0
5.957421121E0,5.527420044E-1,6.503692150E0,-3.912265062E0
5.974087787E0,-4.271188259E0,9.841679573E0,-5.070391178E0
5.990754453E0,-2.608176708E0,1.264128208E1,-4.723432064E0
6.007421119E0,3.452843189E0,1.694836235E1,-5.994020939E0
6.024087785E0,3.689732552E0,1.754656792E1,-4.625326157E0
6.040754451E0,8.580661774E0,1.515853119E1,-3.972085714E-1
6.057421117E0,7.532605648E0,1.160519028E1,1.993221283E0
6.074087783E0,3.567698479E0,5.903093338E0,3.208775282E0
6.090754449E0,3.840480328E0,4.158725739E0,4.713860512E0
6.107421115E0,3.840480328E0,4.158725739E0,4.713860512E0
6.124087781E0,3.371487141E0,3.627519131E0,-3.589234129E-2
6.140754447E0,1.562513232E0,3.943371773E0,-2.213361025E0
6.157421113E0,1.562513232E0,3.943371773E0,-2.213361025E0
6.174087779E0,2.081755698E-1,7.630711555E0,-4.211367965E-1
6.190754445E0,-2.871387079E-2,8.719446182E0,-5.503492057E-2
6.207421111E0,6.340979934E-1,1.225125217E1,-5.407779217E-1
6.224087777E0,3.395415306E0,1.760638809E1,-2.328216314E0
6.240754443E0,7.645068169E0,2.266720963E1,-1.651047617E-1
6.257421109E0,6.087340832E0,1.780020714E1,3.974478483E0
6.274087775E0,1.727617979E0,8.681160927E0,1.741974831E0
6.290754441E0,1.538584948E0,6.814758778E0,-1.787438512E0
6.307421107E0,1.947757602E0,8.274380684E0,-1.981257200E0
6.324087773E0,1.808973908E0,9.174081802E0,-1.007378340E0
6.340754439E0,2.507678032E0,1.033699417E1,-2.321037948E-1
6.357421105E0,3.314059258E0,9.738788605E0,-5.407779217E-1
6.374087771E0,3.383451223E0,8.781659126E0,3.589234129E-2
6.390754437E0,3.438486099E0,8.920442581E0,3.613162339E-1
6.407421103E0,3.156133175E0,9.470791817E0,2.679961324E-1
6.424087769E0,2.799602509E0,9.219545364E0,-4.522434771E-1
6.440754435E0,2.799602509E0,9.219545364E0,-4.522434771E-1
6.457421101E0,3.187239647E0,8.752944946E0,-6.029912829E-1
6.474087767E0,3.505485058E0,8.827122688E0,-5.647061467E-1
6.490754433E0,3.591626883E0,8.896514893E0,-2.679961324E-1
6.507421099E0,3.498306751E0,8.894122124E0,1.914258115E-2
6.524087765E0,3.337987661E0,8.961120605E0,2.608176768E-1
6.540754431E0,3.113062143E0,8.961120605E0,4.307080805E-1
6.557421097E0,2.756531715E0,8.853444099E0,6.460621208E-2
6.574087763E0,2.612962246E0,8.831908226E0,4.785645287E-3
6.590754429E0,2.227717876E0,9.047262192E0,1.483550072E-1
6.607421095E0,2.127219439E0,9.767501831E0,2.153540403E-2
6.624087761E0,2.127219439E0,9.767501831E0,2.153540403E-2
6.640754427E0,2.361716032E0,9.956535339E0,-3.541377485E-1
6.657421093E0,2.361716032E0,9.956535339E0,-3.541377485E-1
6.674087759E0,1.588834286E0,9.391828537E0,8.997012973E-1
6.690754425E0,1.588834286E0,9.391828537E0,8.997012973E-1
6.707421091E0,1.294517040E0,9.193224907E0,5.718846321E-1
6.724087757E0,9.523434043E-1,8.501698494E0,-2.392822653E-1
6.740754423E0,6.460621357E-1,8.441878319E0,-1.361516118E0
6.757421089E0,6.460621357E-1,8.441878319E0,-1.361516118E0
6.774087755E0,7.609176040E-1,9.209974289E0,-1.720439434E0
6.790754421E0,7.609176040E-1,9.209974289E0,-1.720439434E0
6.807421087E0,5.503492057E-2,1.017906761E1,-3.732803464E-1
6.824087753E0,1.794617027E-1,1.074138069E1,1.083948612E0
6.840754419E0,4.857429862E-1,1.104048347E1,1.794616938E0
6.857421085E0,1.074377418E0,1.149033451E1,1.091127157E0
6.874087751E0,1.287338614E0,1.117208862E1,-2.225325108E-1
6.890754417E0,1.287338614E0,1.117208862E1,-2.225325108E-1
6.907421083E0,1.940579176E0,9.499505997E0,-1.545763373E0
6.924087749E0,1.940579176E0,9.499505997E0,-1.545763373E0
6.940754415E0,2.309073925E0,8.518448830E0,-6.484549642E-1
6.957421081E0,2.036292076E0,9.178867340E0,-6.723831892E-1
6.974087747E0,1.646261930E0,9.260223389E0,-8.159525394E-1
6.990754413E0,1.555334687E0,9.198010445E0,-7.872386575E-1
7.007421079E0,7.298108935E-1,9.300901413E0,-1.562513232E0
7.024087745E0,7.298108935E-1,9.300901413E0,-1.562513232E0
7.040754411E0,6.053841114E-1,9.530612946E0,-1.062413216E0
7.057421077E0,8.015955687E-1,9.781859398E0,-3.756731451E-1
7.074087743E0,1.052842021E0,1.002353382E1,1.818545163E-1
7.090754409E0,1.942971945E0,9.848857880E0,1.363908947E-1
7.107421075E0,2.440679073E0,9.568898201E0,4.713860750E-1
7.124087741E0,2.974278450E0,1.040877819E1,7.728816867E-1
7.140754407E0,2.974278450E0,1.040877819E1,7.728816867E-1
7.157421073E0,1.797009826E0,1.105244732E1,3.373879790E-1
7.174087739E0,9.427721500E-1,1.000199890E1,2.799602449E-1
7.190754405E0,9.810572863E-1,9.939785004E0,1.124626637E0
7.207421071E0,8.327022791E-1,1.001874828E1,3.103491068E0
7.224087737E0,8.973084688E-1,1.012164021E1,3.797409534E0
7.240754403E0,5.910272002E-1,1.038963604E1,3.897907972E0
7.257421069E0,5.910272002E-1,1.038963604E1,3.897907972E0
7.274087735E0,-1.732403636E0,8.908478737E0,4.022335052E0
7.290754401E0,-1.892722726E0,8.891729355E0,2.120040894E0
7.307421067E0,-1.038485050E0,8.233702660E0,1.127019525E0
7.324087733E0,5.024927258E-1,8.537590981E0,4.996213913E0
7.340754399E0,5.024927258E-1,8.537590981E0,4.996213913E0
7.357421065E0,1.294517040E0,9.272188187E0,-4.141975880E0
7.374087731E0,-3.302095234E-1,1.032981491E1,-3.689732552E0
7.390754397E0,-2.744567633E0,1.754656792E1,2.241117668E1
7.407421063E0,-2.744567633E0,1.754656792E1,2.241117668E1
7.424087729E0,-1.988435626E0,2.320320129E1,-3.967299938E0
7.440754395E0,-1.940579176E0,1.797009850E1,5.333601475E0
7.457421061E0,1.512263894E0,1.410568905E1,6.793223381E0
7.474087727E0,1.512263894E0,1.410568905E1,6.793223381E0
7.490754393E0,1.234696507E0,1.412004662E1,7.144968510E0
7.507421059E0,-1.854437590E0,1.362233925E1,3.859622955E0
7.524087725E0,-3.381058455E0,1.177508068E1,2.246860504E0
7.540754391E0,-1.244267747E-1,8.484949112E0,2.297109842E0
7.557421057E0,2.285145521E0,5.206781864E0,3.708875179E0
7.574087723E0,5.192425251E0,-1.052842021E0,2.572284460E0
7.590754389E0,5.192425251E0,-1.052842021E0,2.572284460E0
7.590754389E0,4.886143684E0,-3.696911097E0,4.000799656E0
7.624087721E0,3.931407690E0,-2.478964329E0,1.196411371E0
7.640754387E0,2.237289190E0,-8.709874153E-1,-9.882357717E-1
7.657421053E0,-4.043870270E-1,-1.205982566E0,-6.608976364E0
7.674087719E0,-4.043870270E-1,-1.205982566E0,-6.608976364E0
7.690754385E0,-1.916650891E0,4.139583111E-1,1.986042857E-1
7.707421051E0,-1.483550072E0,1.572084427E0,-2.206182480E0
7.724087717E0,-5.814558864E-1,5.290530682E0,6.329015732E0
7.740754383E0,-5.814558864E-1,5.290530682E0,6.329015732E0
7.757421049E0,7.666603565E0,2.455035973E1,1.945125580E1
7.774087715E0,-3.067598581E0,1.587877083E1,-1.163390350E1
7.790754381E0,1.478764415E0,1.375633717E1,-5.486742496E0
7.807421047E0,4.773681164E0,1.502692604E1,-4.302295208E0
7.824087713E0,3.809373617E0,2.034377861E1,4.120440483E0
7.840754379E0,-3.558127165E0,2.010210228E1,-2.560320199E-1
7.857421045E0,-4.957928658E0,1.553899002E1,-2.335394859E0
7.874087711E0,-3.136990547E0,1.544567013E1,-6.053841114E-1
7.890754377E0,2.883351326E0,1.649611855E1,7.154539824E-1
7.907421043E0,1.962114573E-1,1.658465385E1,4.809573650E0
7.924087709E0,1.962114573E-1,1.658465385E1,4.809573650E0
7.940754375E0,3.680161238E0,1.152861977E1,6.218945980E0
7.957421041E0,-1.220339537E-1,1.261256790E1,3.708875179E0
7.974087707E0,-4.237689018E0,9.420542717E0,7.178468257E-2
7.990754373E0,-3.996013880E0,4.914857864E0,1.552941918E0
8.007421039E0,-3.160918713E0,4.220939159E0,5.790630579E-1
8.024087705E0,-2.964707375E0,2.529213428E0,1.323230863E0
8.040754371E0,-3.761517286E0,1.196411345E-2,3.503092289E0
8.057421037E0,-3.859622955E0,2.321037948E-1,1.643869162E0
8.074087703E0,-2.952743053E0,-4.522434771E-1,-3.026920557E0
8.090754369E0,-2.376072884E0,-6.221338734E-2,-4.680361271E0
8.107421035E0,-2.376072884E0,-6.221338734E-2,-4.680361271E0
8.124087701E0,4.185046673E0,2.562473679E1,1.121276665E1
8.140754367E0,4.474578381E0,3.547599030E1,2.593819857E0
8.157421033E0,4.438685894E0,4.594219589E1,-3.297309637E0
8.174087699E0,1.679761529E0,1.846302032E1,-3.110669553E-1
8.190754365E0,-1.875972986E0,1.132522964E1,1.344766378E0
8.207421031E0,-2.660818815E0,1.043270683E1,-9.834501147E-1
8.224087697E0,-2.660818815E0,1.043270683E1,-9.834501147E-1
8.240754363E0,-3.756731451E-1,1.155494022E1,3.127419233E0
8.257421029E0,-3.756731451E-1,1.155494022E1,3.127419233E0
8.274087695E0,6.343372822E0,6.183053493E0,-1.820937991E0
8.290754361E0,5.594419479E0,2.177468538E0,-3.302095234E-1
8.307421027E0,2.849851847E0,-5.024927258E-1,-5.599204898E-1
8.324087693E0,2.849851847E0,-5.024927258E-1,-5.599204898E-1
8.340754359E0,1.421336651E0,-4.108476639E0,-1.631905079E0
8.357421025E0,1.256231904E0,-5.443671703E0,5.024927482E-2
8.374087691E0,5.694918036E-1,-3.371487141E0,2.457428932E0
8.390754357E0,-1.698904037E-1,-1.964507341E0,3.034099102E0
8.407421023E0,1.076770201E-1,2.823530734E-1,1.268195957E-1
8.424087689E0,-3.852444589E-1,1.284945726E0,-1.074377418E0
8.440754355E0,-3.852444589E-1,1.284945726E0,-1.074377418E0
8.457421021E0,-1.892722726E0,7.049255371E0,-6.939185858E-1
8.474087687E0,-3.199203968E0,2.284427834E1,-8.472985268E0
8.490754353E0,1.423968792E1,4.107040787E1,2.301895380E0
8.507421019E0,1.423968792E1,4.107040787E1,2.301895380E0
8.524087685E0,2.175075769E0,1.181336498E1,-7.671389580E0
8.540754351E0,-1.531406492E-1,1.036331463E1,2.297109663E-1
8.557421017E0,-2.311466694E0,1.490728474E1,2.249253243E-1
8.574087683E0,-2.311466694E0,1.490728474E1,2.249253243E-1
8.590754349E0,3.062813044E0,2.056152534E1,-3.696911097E0
8.607421015E0,1.804188251E0,1.657029724E1,1.010010433E1
8.624087681E0,2.409572363E0,1.526620865E1,-3.421736479E0
8.640754347E0,2.409572363E0,1.526620865E1,-3.421736479E0
8.657421013E0,-5.034498692E0,1.144247818E1,-2.175075769E0
8.674087679E0,-3.792623997E0,8.231309891E0,-1.234696507E0
8.690754345E0,-3.854837179E0,5.273781300E0,4.474578202E-1
8.707421011E0,-5.560919762E0,2.002792597E0,8.511270523E0
8.724087677E0,-6.104090691E0,4.259224236E-1,8.638090134E0
8.740754343E0,-6.888936520E0,-2.522035122E0,6.460621357E-1
8.757421009E0,-6.888936520E0,-2.522035122E0,6.460621357E-1
8.774087675E0,-3.254238665E-1,1.567298889E0,-3.306880951E0
8.790754341E0,2.679961324E-1,4.412364960E0,-2.773281336E0
8.807421007E0,6.216553211E0,1.748674774E1,1.174875927E1
8.824087673E0,6.216553211E0,1.748674774E1,1.174875927E1
8.840754339E0,2.720639229E0,4.234817505E1,4.661218643E0
8.857421005E0,3.244667530E0,2.885265541E1,-4.857429862E-1
8.874087671E0,3.749552965E0,1.769252968E1,-6.484549642E-1
8.890754337E0,1.296909928E0,1.360080433E1,1.505085468E0
8.907421003E0,-8.111668825E-1,1.481396484E1,-1.210768223E0
8.924087669E0,-1.210768223E0,1.326820183E1,-2.847459018E-1
8.940754335E0,-6.245267391E-1,1.181336498E1,-1.052841991E-1
8.957421001E0,2.830709219E0,8.796015739E0,-4.689932466E-1
8.974087667E0,4.383651257E0,2.916850805E0,4.977070987E-1
8.990754333E0,4.723432064E0,2.632105052E-1,1.835294962E0
9.007420999E0,2.550748825E0,-1.777867198E0,8.398807645E-1
9.024087665E0,9.571290575E-3,-1.366301775E0,-2.914458036E0
9.040754331E0,-9.092726111E-1,-1.450050473E0,-2.744567633E0
9.057420997E0,-7.872386575E-1,-1.887937069E0,-1.744367719E0
9.074087663E0,-7.872386575E-1,-1.887937069E0,-1.744367719E0
9.090754329E0,-1.076770186E0,6.340979934E-1,-3.888336897E0
9.107420995E0,-1.127019525E0,2.857030153E0,-7.178467751E0
9.124087661E0,-1.299302697E0,4.735395908E0,-9.439684868E0
9.140754327E0,-1.062413216E0,8.037490845E0,1.144487095E1
9.157420993E0,-1.014556766E0,1.482592869E1,-1.079880905E1
9.174087659E0,1.739582062E0,2.295674133E1,-6.226124287E0
9.190754325E0,8.798408508E0,1.649133301E1,-7.872386575E-1
9.207420991E0,2.734996319E0,1.169611740E1,-3.957728624E0
9.224087657E0,2.734996319E0,1.169611740E1,-3.957728624E0
9.240754323E0,3.594019651E0,1.078205872E1,-3.656233072E0
9.257420989E0,4.098905087E0,1.225364494E1,-3.134597778E0
9.274087655E0,9.523434043E-1,1.546481228E1,-2.653640270E0
9.290754321E0,9.523434043E-1,1.546481228E1,-2.653640270E0
9.307420987E0,-6.939185411E-2,2.008296013E1,4.453042984E0
9.324087653E0,2.256431818E0,1.953739738E1,-1.383051515E0
9.340754319E0,-1.524227977E0,1.754656792E1,-8.054241180E0
9.357420985E0,-1.524227977E0,1.754656792E1,-8.054241180E0
9.374087651E0,-4.407579422E0,1.681197166E1,3.358565903E1
9.390754317E0,3.373879790E-1,9.877572060E0,-1.214836025E1
9.407420983E0,-2.801995277E0,9.913464546E0,-2.545963287E0
9.424087649E0,-2.801995277E0,9.913464546E0,-2.545963287E0
9.440754315E0,-2.801995277E0,9.913464546E0,-2.545963287E0
9.457420981E0,-8.092526436E0,3.266202927E0,1.966182327E1
9.474087647E0,-8.092526436E0,3.266202927E0,1.966182327E1
9.490754313E0,-3.830909014E0,-1.016949654E0,-2.009970993E-1
9.507420979E0,-1.919043779E0,-1.476371527E0,-1.229910851E0
9.524087645E0,1.261017561E0,-1.600798368E0,-2.555534601E0
9.540754311E0,1.261017561E0,-1.600798368E0,-2.555534601E0
9.557420977E0,5.017749310E0,1.080838013E1,-5.285745144E0
9.574087643E0,1.432582951E1,2.337309074E1,1.204307652E1
9.590754309E0,-3.589233875E0,3.384886932E1,-2.931207657E0
9.607420975E0,-3.589233875E0,3.384886932E1,-2.931207657E0
9.624087641E0,-1.631905079E0,2.467957306E1,-2.282752752E0
9.640754307E0,3.347558975E0,1.924786568E1,-1.196411327E-1
9.657420973E0,-5.647061467E-1,1.521356678E1,3.089133978E0
9.674087639E0,-5.647061467E-1,1.521356678E1,3.089133978E0
9.690754305E0,-9.738788009E-1,1.310070419E1,2.201396942E0
9.707420971E0,7.728816867E-1,1.082273674E1,1.165304661E0
9.724087637E0,2.761317253E0,6.159125328E0,-1.208375454E0
9.740754303E0,3.160918713E0,4.139583111E-1,5.670989752E-1
9.757420969E0,3.814159393E0,-8.877372146E-1,4.115654826E-1
9.774087635E0,2.694318295E0,-2.560320199E-1,-6.556333899E-1
9.790754301E0,1.971685886E0,-1.246660590E0,-4.522434771E-1
9.807420967E0,8.973084688E-1,-2.213361025E0,-1.196411371E0
9.824087633E0,8.733802438E-1,-2.337787628E0,-2.775674164E-1
9.840754299E0,2.679961443E0,-4.730610371E0,3.349951655E-2
9.857420965E0,2.679961443E0,-4.730610371E0,3.349951655E-2
9.874087631E0,1.452443361E0,2.117648125E0,-1.600798368E0
9.890754297E0,9.020941257E-1,2.612962246E0,-2.744567633E0
9.907420963E0,-4.426721931E-1,2.775674343E0,-3.378665686E0
9.924087629E0,-8.231309652E-1,1.682154298E0,-4.043870270E-1
9.940754295E0,-8.231309652E-1,1.682154298E0,-4.043870270E-1
9.957420961E0,4.656432629E0,7.197610378E0,1.122712421E1
9.974087627E0,-6.173482537E-1,2.115494537E1,-9.456435204E0
9.990754293E0,3.464807272E0,4.664329147E1,-1.539542103E1
1.000742096E1,3.464807272E0,4.664329147E1,-1.539542103E1
1.002408762E1,-3.457628727E0,8.047062874E0,-1.264606762E1
1.004075429E1,7.056434155E0,1.261735344E1,-9.396614075E0
1.005742096E1,4.299902439E0,1.392622757E1,-3.902693748E0
1.007408762E1,4.299902439E0,1.392622757E1,-3.902693748E0
1.009075429E1,-9.674181938E0,2.570130730E1,-2.282752752E0
1.010742096E1,-9.135796547E0,1.635972786E1,1.413679600E1
1.012408762E1,2.950350285E0,1.444307709E1,-6.436692715E0
1.014075429E1,2.950350285E0,1.444307709E1,-6.436692715E0
1.015742095E1,2.950350285E0,1.444307709E1,-6.436692715E0
1.017408762E1,-3.512663603E0,5.608776093E0,7.417750359E-1
1.019075428E1,-3.512663603E0,5.608776093E0,7.417750359E-1
1.020742095E1,-9.451649666E0,-5.283352375E0,5.654240131E0
1.022408762E1,-9.451649666E0,-5.283352375E0,5.654240131E0
1.024075428E1,-2.067398787E0,-5.032105923E0,-1.517049551E0
1.025742095E1,-2.067398787E0,-5.032105923E0,-1.517049551E0
1.027408762E1,2.242074728E0,1.483550072E-1,-3.538984776E0
1.029075428E1,1.545763373E0,3.158525944E0,-6.558726788E0
1.030742095E1,-1.651047587E0,1.416072464E1,-1.217468166E1
1.032408761E1,6.195017815E0,7.813044739E1,2.645026207E1
1.034075428E1,-1.548156261E0,7.093283081E1,3.469592929E-1
1.035742095E1,7.872386575E-1,2.148994064E1,-6.187839508E0
1.037408761E1,7.872386575E-1,2.148994064E1,-6.187839508E0
1.039075428E1,1.921436548E0,1.152861977E1,1.777867198E0
1.040742094E1,-7.178468257E-2,7.472784996E0,-2.517249346E0
1.042408761E1,2.124826431E0,7.137789726E0,5.984449387E0
1.044075428E1,8.303094864E0,9.695717812E0,3.732803464E-1
1.045742094E1,1.027956581E1,5.501099110E0,9.834501147E-1
1.047408761E1,9.518648148E0,3.637090445E0,-3.613162339E-1
1.049075427E1,9.518648148E0,3.637090445E0,-3.613162339E-1
1.050742094E1,3.105883837E0,-4.809573650E0,-3.050848961E0
1.052408760E1,3.105883837E0,-4.809573650E0,-3.050848961E0
1.054075427E1,5.264210105E-1,-1.266281700E1,-1.890329838E0
1.055742094E1,5.264210105E-1,-1.266281700E1,-1.890329838E0
1.057408760E1,1.627119333E-1,3.433700562E0,-3.538984776E0
1.059075427E1,1.627119333E-1,3.433700562E0,-3.538984776E0
1.060742094E1,-3.314059258E0,1.342373490E0,-2.991028428E-1
1.062408760E1,3.407379389E0,-6.173482537E-1,-5.529813290E0
1.064075427E1,-1.089212894E1,1.124387360E1,-3.020938683E1
1.065742093E1,-1.572084427E0,3.046302414E1,-2.037727737E1
1.067408760E1,1.143051338E1,5.286941528E1,5.646821976E1
1.069075426E1,-3.223132133E0,2.388754845E1,-2.232982063E1
1.070742093E1,-3.223132133E0,2.388754845E1,-2.232982063E1
1.072408760E1,3.349951655E-2,1.519681644E1,-1.028913707E-1
1.074075426E1,-2.036292076E0,1.971446609E1,1.057627559E0
1.075742093E1,-6.044270039E0,2.222214317E1,8.245666504E0
1.077408760E1,-2.555534601E0,1.732882118E1,1.545763373E0
1.079075426E1,7.585247755E-1,7.554141045E0,9.202795982E0
1.080742093E1,2.297109663E-1,3.206382275E0,5.295316696E0
1.082408759E1,1.112662554E0,2.074577332E0,-4.036691666E0
1.084075426E1,1.112662554E0,2.074577332E0,-4.036691666E0
1.085742093E1,-7.434499741E0,4.749752998E0,8.573483467E0
1.087408759E1,-9.731609344E0,4.697110653E0,1.460339642E1
1.089075426E1,-9.504291534E0,-1.287338614E0,-7.257431030E0
1.090742092E1,-7.386643410E0,-3.345165968E0,3.270988464E0
1.092408759E1,-3.203989506E0,-3.232703447E0,1.751546144E0
1.094075426E1,2.409572363E0,1.450050473E0,-7.144968510E0
1.095742092E1,2.409572363E0,1.450050473E0,-7.144968510E0
1.097408759E1,2.764667320E1,3.714139175E1,1.324666595E1
1.099075425E1,1.416311741E1,4.805027008E1,2.464607358E-1
1.100742092E1,-1.279442310E1,5.140022278E1,4.713860512E0
1.102408758E1,2.761317253E0,1.964507484E1,-4.955535889E0
1.104075425E1,6.556333899E-1,6.570691109E0,-7.695317745E0
1.105742092E1,8.853443712E-2,6.518048763E0,-6.309873104E0
1.107408758E1,3.354737282E0,4.895715237E0,5.044070244E0
1.109075425E1,6.113661766E0,5.355136871E0,1.746760488E0
1.110742092E1,5.015356064E0,3.419343472E0,-8.566305041E-1
1.112408758E1,4.051048756E0,2.620140791E0,-1.354337573E0
1.114075425E1,2.474178553E0,-1.179661512E0,-6.125625968E-1
1.115742091E1,2.385644197E0,-9.640682220E0,-6.932007313E0
1.117408758E1,2.385644197E0,-9.640682220E0,-6.932007313E0
1.119075424E1,3.139383316E0,-4.268795490E0,1.500299811E0
1.120742091E1,2.024327993E0,4.354937077E-1,2.943171740E0
1.122408758E1,-1.050449133E0,1.837687731E0,9.497113228E0
1.124075424E1,-2.301895380E0,7.896314859E-1,-3.957728624E0
1.125742091E1,-2.622533560E0,1.107876897E0,-2.426322222E0
1.127408758E1,6.652047038E-1,1.392622828E0,-1.304088354E0
1.129075424E1,-6.463014126E0,1.171765232E1,-1.750110435E1
1.130742091E1,-6.463014126E0,1.171765232E1,-1.750110435E1
1.132408757E1,1.784806442E1,6.282834244E1,3.433939743E1
1.134075424E1,2.153540403E-2,2.576830673E1,-1.172961617E1
1.135742091E1,6.747759581E-1,1.268674564E1,-5.709274769E0
1.137408757E1,7.130611539E-1,1.007617569E1,-4.560719967E0
1.139075424E1,7.130611539E-1,1.007617569E1,-4.560719967E0
1.140742090E1,-1.914258122E0,1.936511421E1,8.494520187E-1
1.142408757E1,-1.914258122E0,1.936511421E1,8.494520187E-1
1.144075424E1,-1.244267821E0,1.151904774E1,8.391629219E0
1.145742090E1,-7.728816867E-1,7.245467186E0,6.264409542E0
1.147408757E1,-2.012363911E0,-7.393822074E-1,1.663011789E0
1.149075423E1,-2.512463808E0,2.124826431E0,-1.131805062E0
1.150742090E1,-5.347958565E0,4.651647091E0,5.694917679E0
1.152408756E1,-1.224407387E1,7.781459332E0,1.592662716E1
1.154075423E1,-1.224407387E1,7.781459332E0,1.592662716E1
1.155742090E1,-4.228117466E0,-1.756331801E0,8.638089895E-1
1.157408756E1,-1.356730461E0,-1.701296926E0,-2.076970100E0
1.159075423E1,1.311266780E0,-1.462014675E0,-3.957728624E0
1.160742090E1,5.694917679E0,5.158925533E0,-9.075976372E0
1.162408756E1,2.860380173E1,3.060180855E1,2.093959045E1
1.164075423E1,2.019063759E1,4.306362915E1,2.316252232E0
1.165742089E1,-1.188275719E1,4.965346146E1,9.272188187E0
1.167408756E1,5.694918036E-1,2.675415039E1,-3.804588079E0
1.169075423E1,4.197010994E0,1.010249710E1,-3.548556089E0
1.170742089E1,3.806980848E0,7.893921852E0,-1.536192179E0
1.172408756E1,2.402393818E0,7.209574699E0,-2.617748022E0
1.174075422E1,4.833501816E0,5.994020939E0,4.527220249E0
1.175742089E1,4.833501816E0,5.994020939E0,4.527220249E0
1.177408756E1,5.917450428E0,4.996213913E0,1.411765367E-1
1.179075422E1,4.788038254E0,2.210968018E0,-7.298108935E-1
1.180742089E1,2.419143677E0,-4.642075896E-1,-1.653440475E0
1.182408755E1,1.227517962E0,-6.936792850E0,-4.654039860E0
1.184075422E1,3.658625841E0,-8.513663292E0,-3.134597540E-1
1.185742089E1,2.385644197E0,-5.895915031E0,2.943171859E-1
1.187408755E1,1.794616938E0,-6.939185858E-1,2.892922640E0
1.189075422E1,1.794616938E0,-6.939185858E-1,2.892922640E0
1.190742088E1,-2.895315289E-1,3.206382394E-1,-2.033899307E0
1.192408755E1,2.584248483E-1,9.690931439E-1,6.116054535E0
1.194075422E1,1.172483116E-1,6.364908218E-1,-6.139982700E0
1.195742088E1,-1.257667542E1,1.342373466E1,-2.653400993E1
1.197408755E1,-1.257667542E1,1.342373466E1,-2.653400993E1
1.199075421E1,1.432343674E1,6.093322754E1,5.894957733E1
1.200742088E1,1.432343674E1,6.093322754E1,5.894957733E1
1.202408754E1,1.282552958E0,1.071266651E1,-6.116054535E0
1.204075421E1,2.201396942E0,8.973084450E0,-4.115654945E0
1.205742088E1,-4.785645381E-2,1.217468166E1,1.009771109E0
1.207408754E1,-1.060020447E0,1.825723648E1,9.004191399E0
1.209075421E1,-1.196411371E0,1.464885998E1,3.890729666E0
1.210742088E1,-8.063812256E-1,1.075813103E1,-2.261217356E0
1.212408754E1,-4.785645306E-1,7.520641804E0,5.455635786E-1
1.214075421E1,-4.785645306E-1,7.520641804E0,5.455635786E-1
1.215742087E1,-3.196810961E0,7.111468792E0,-2.675175667E0
1.217408754E1,-3.196810961E0,7.111468792E0,-2.675175667E0
1.219075421E1,-1.235653591E1,-7.680960894E-1,-1.859223247E0
1.220742087E1,-1.098544884E1,-4.601397991E0,-1.856830359E0
1.222408754E1,-2.366501570E0,-3.369094372E0,-1.931007862E0
1.224075420E1,2.993421078E0,-1.895115495E0,-3.122633457E0
1.225742087E1,2.993421078E0,-1.895115495E0,-3.122633457E0
1.227408754E1,2.993421078E0,-1.895115495E0,-3.122633457E0
1.227408754E1,5.391029358E0,6.561119556E0,-8.470592499E0
1.230742087E1,9.693324089E0,6.145725632E1,1.665404510E1
1.232408753E1,-6.178267956E0,4.712185669E1,2.433500528E0
1.234075420E1,-6.178267956E0,4.712185669E1,2.433500528E0
1.235742086E1,3.881158352E0,1.124626637E1,-5.041677475E0
1.237408753E1,3.881158352E0,1.124626637E1,-5.041677475E0
1.239075420E1,2.067398787E0,6.589833736E0,-7.393822074E-1
1.240742086E1,2.067398787E0,6.589833736E0,-7.393822074E-1
1.242408753E1,5.350351334E0,6.053841114E0,1.933400750E0
1.244075420E1,6.874579430E0,5.032105923E0,1.502692580E0
1.245742086E1,5.166104317E0,2.703889608E0,-1.107876897E0
1.247408753E1,1.758724689E0,-1.832902193E0,-4.503292084E0
1.249075419E1,1.112662554E0,-7.506284714E0,-4.874179840E0
1.250742086E1,3.809373617E0,-6.850651264E0,1.067198873E0
1.252408752E1,3.809373617E0,-6.850651264E0,1.067198873E0
1.254075419E1,6.723831892E-1,-3.876372576E-1,-4.043870270E-1
1.255742086E1,3.948157430E-1,2.344966233E-1,-7.561319470E-1
1.257408752E1,-9.092726111E-1,-1.794617027E-1,-1.198804140E0
1.259075419E1,-9.092726111E-1,-1.794617027E-1,-1.198804140E0
1.260742086E1,-1.701296926E0,1.239482117E1,7.776673794E0
1.262408752E1,-7.467999458E0,2.369133759E1,-1.260299683E1
1.264075419E1,6.479763508E0,6.217510223E1,1.455554008E1
1.265742085E1,6.479763508E0,6.217510223E1,1.455554008E1
1.267408752E1,-1.100698471E0,1.056431198E1,-4.374079704E0
1.269075419E1,-5.718846321E-1,8.348558426E0,-2.845066071E0
1.270742085E1,-3.756731451E-1,1.310548973E1,1.036092162E0
1.272408752E1,-3.756731451E-1,1.976471519E1,7.334001541E0
1.272408752E1,1.294517040E0,1.976471519E1,7.334001541E0
1.275742085E1,-3.359523058E0,1.211007500E1,1.220339537E0
1.277408752E1,-3.203989506E0,4.570291042E0,3.723232031E0
1.279075418E1,-2.325823545E0,3.153740168E0,-1.603191137E0
1.280742085E1,-2.763710260E0,4.716253281E0,-1.703689694E0
1.282408751E1,-3.038884640E0,5.615954876E0,6.628118753E-1
1.284075418E1,-7.164111137E0,5.893522263E0,1.874537277E1
1.285742084E1,-8.070990562E0,-1.531406492E-1,-3.739981890E0
1.287408751E1,-9.363115311E0,-2.237289190E0,1.387837082E-1
1.289075418E1,-3.359523058E0,-3.105883837E0,-1.916650891E0
1.290742084E1,-3.359523058E0,-3.105883837E0,-1.916650891E0
1.292408751E1,6.108876228E0,4.225724697E0,-1.082752228E1
1.294075418E1,9.114261627E0,6.958328247E0,-1.083230782E1
1.295742084E1,3.541377640E1,3.810091400E1,1.414875984E1
1.297408751E1,-2.135594177E1,3.944568253E1,-2.734996319E0
1.297408751E1,3.541377640E1,3.810091400E1,1.414875984E1
1.300742084E1,1.476371527E0,2.588076973E1,-4.362115860E0
1.302408750E1,5.034498692E0,6.185446739E0,-7.211967468E0
1.304075417E1,1.931007862E0,4.673182487E0,1.897508383E0
1.305742084E1,1.931007862E0,4.673182487E0,1.897508383E0
1.307408750E1,3.163311481E0,5.965306759E0,4.175475597E0
1.309075417E1,3.163311481E0,5.965306759E0,4.175475597E0
1.310742084E1,3.235096216E0,2.122433662E0,-1.304088354E0
1.312408750E1,3.876372576E-1,-1.172483116E-1,-4.228117466E0
1.314075417E1,-3.349951804E-1,-3.524627686E0,-7.642675400E0
1.315742083E1,1.177268744E0,-5.852844238E0,-2.797209740E0
1.317408750E1,1.177268744E0,-5.852844238E0,-2.797209740E0
1.319075417E1,1.459621787E0,-1.584048629E0,2.383251429E0
1.320742083E1,8.350951076E-1,-9.332008362E-1,1.543370605E0
1.322408750E1,-3.182454109E-1,-1.282552958E0,2.342573404E0
1.324075416E1,1.976471543E0,1.665404558E0,8.372486115E0
1.325742083E1,-9.595218897E-1,2.825923443E0,-1.875972986E0
1.327408750E1,-2.746960402E0,6.678368092E0,-1.847259045E0
1.329075416E1,-9.066405296E0,2.743371201E1,-1.455075455E1
1.330742083E1,7.590033531E0,6.186403656E1,5.828916073E0
1.332408749E1,7.590033531E0,6.186403656E1,5.828916073E0
1.334075416E1,6.293123364E-1,1.552463341E1,-1.658226132E0
1.335742082E1,-8.039883971E-1,8.683553696E0,-9.547362328E-1
1.337408749E1,1.746760488E0,1.037049294E1,-1.404586911E0
1.339075416E1,2.813959360E0,1.130608654E1,1.562513232E0
1.340742082E1,7.489534616E-1,1.165065384E1,6.187839508E0
1.342408749E1,-1.127019525E0,1.019103146E1,2.926422119E0
1.344075416E1,-4.522434771E-1,4.721039295E0,-1.591227055E0
1.345742082E1,-2.222932339E0,5.362315655E0,9.379864931E-1
1.347408749E1,-4.252045631E0,4.474578381E0,-1.734796405E0
1.349075415E1,-5.259424210E0,5.300102234E0,1.179900837E1
1.350742082E1,-5.259424210E0,5.300102234E0,1.179900837E1
1.352408748E1,-8.035098076E0,-9.547362328E-1,-4.890929699E0
1.354075415E1,-6.975078106E0,-2.703889608E0,-5.383850932E-1
1.355742082E1,-4.570291340E-1,-1.399801254E0,-6.202196121E0
1.357408748E1,-4.570291340E-1,-1.399801254E0,-6.202196121E0
1.359075415E1,5.343173027E0,5.056034088E0,-9.174081802E0
1.360742082E1,3.216910934E1,3.728735352E1,3.308077240E1
1.362408748E1,-1.080359459E1,4.844508743E1,-1.761117458E0
1.364075415E1,-1.080359459E1,4.844508743E1,-1.761117458E0
1.365742081E1,4.158725739E0,2.603391075E1,-4.460221291E0
1.367408748E1,4.606183529E0,5.611168861E0,-4.895715237E0
1.369075415E1,2.017149448E0,3.625126362E0,2.153540403E-2
1.370742081E1,3.560520172E0,8.951549530E0,4.398007870E0
1.372408748E1,4.503292084E0,8.516056061E0,4.424329281E0
1.374075414E1,4.141975880E0,5.431707382E0,-1.914258115E-2
1.375742081E1,5.472385406E0,3.407379389E0,-4.713860750E-1
1.377408748E1,2.108076811E0,1.825723648E0,-1.990828395E0
1.379075414E1,4.737788737E-1,-4.737788737E-1,-4.354937077E0
1.380742081E1,9.643075466E-1,-6.786045074E0,-3.735196114E0
1.382408747E1,3.292523861E0,-4.441078663E0,4.063013077E0
1.384075414E1,1.818545222E0,-1.703689694E0,3.926621914E0
1.385742080E1,1.220339537E0,-7.657032460E-2,2.696711063E0
1.387408747E1,1.962114573E-1,7.657032609E-1,-6.652047038E-1
1.389075414E1,5.718846321E-1,2.938386202E0,1.010967541E1
1.390742080E1,-5.670989752E-1,5.288137913E0,-1.586441398E0
1.392408747E1,-1.083948612E0,9.982855797E0,-6.302694798E0
1.394075414E1,7.161718369E0,3.483471298E1,-1.148315620E1
1.395742080E1,7.690532207E0,3.920161438E1,-5.027320385E0
1.395742080E1,7.690532207E0,3.920161438E1,-5.027320385E0
1.399075413E1,1.856830359E0,1.379940796E1,-2.636890650E0
1.400742080E1,1.529013634E0,1.167218876E1,-3.936193228E0
1.402408747E1,1.177268744E0,1.850130463E1,7.499105930E0
1.404075413E1,9.930213690E-1,2.074337959E1,1.505564022E1
1.405742080E1,-1.804188251E0,1.598644829E1,-7.800601721E-1
1.407408746E1,-3.804588020E-1,9.138189316E0,3.474378586E0
1.409075413E1,-3.804588020E-1,9.138189316E0,3.474378586E0
1.410742080E1,-1.246660590E0,-5.024927482E-2,-2.560320199E-1
1.412408746E1,-4.115654945E0,3.799802303E0,-4.046263218E0
1.414075413E1,-4.488935471E0,7.006184578E0,6.759724140E0
1.415742079E1,-5.005784988E0,7.025327206E0,3.184846878E0
1.417408746E1,-4.608576298E0,5.608776093E0,-9.643075466E-1
1.419075413E1,-9.066405296E0,-5.264210105E-1,5.125426292E0
1.420742079E1,-3.098705292E0,-4.395615101E0,9.355936646E-1
1.422408746E1,8.422735929E-1,-3.261417150E0,-6.977470875E0
1.424075412E1,3.172882795E0,3.541377485E-1,-8.671588898E0
1.425742079E1,8.563912392E0,9.410971642E0,-8.305487633E0
1.427408746E1,8.563912392E0,9.410971642E0,-8.305487633E0
1.429075412E1,-1.249292660E1,5.152225876E1,9.214759827E0
1.430742079E1,-6.766902447E0,4.766981125E1,1.021017456E1
1.432408745E1,3.720839262E0,1.896551132E1,-1.039442158E1
1.434075412E1,4.577469826E0,3.823730469E0,5.570491314E0
1.435742078E1,3.728017569E0,7.623532772E0,9.523434043E-1
1.437408745E1,3.716053486E0,8.855836868E0,1.383051515E0
1.439075412E1,4.386044025E0,9.016156197E0,9.188438654E-1
1.440742078E1,5.577669621E0,5.759523869E0,-7.704889178E-1
1.442408745E1,5.577669621E0,5.759523869E0,-7.704889178E-1
1.444075412E1,5.831308842E0,9.403793216E-1,-1.052841991E-1
1.445742078E1,2.581855536E0,-1.390229940E0,-6.628118753E-1
1.447408745E1,1.127019525E0,-7.963313580E0,-6.230910301E0
1.449075411E1,1.127019525E0,-7.963313580E0,-6.230910301E0
1.450742078E1,1.689332843E0,-5.455635548E0,1.095912814E0
1.452408745E1,5.144568682E-1,-1.584048629E0,2.249253273E0
1.454075411E1,-1.004985496E-1,3.110669553E-1,3.158525825E-1
1.455742078E1,-2.206182480E0,-1.093519926E0,1.296431351E1
1.457408744E1,6.795616150E0,3.278167009E0,3.555255890E1
1.459075411E1,3.445664644E-1,-5.982056633E-2,-1.134915733E1
1.460742078E1,-1.265803218E0,4.991427898E0,-9.786644936E0
1.462408744E1,-2.845066071E0,1.392622757E1,-1.842951965E1
1.464075411E1,-5.994020939E0,4.660979080E1,-1.361994648E1
1.465742077E1,1.731685829E1,6.445307159E1,2.016670990E1
1.467408744E1,-1.677368641E0,1.847976875E1,-3.665804386E0
1.469075411E1,-2.656033039E0,1.219621658E1,-4.886143684E0
1.470742077E1,-2.766103029E0,7.113861561E0,-6.317051649E-1
1.472408744E1,2.809173822E0,6.285944939E0,2.138944244E1
1.474075410E1,2.809173822E0,6.285944939E0,2.138944244E1
1.475742077E1,4.931607246E0,1.150469112E1,-2.689532757E0
1.477408744E1,9.714859724E-1,9.628718376E0,1.098305583E0
1.479075410E1,-4.639683247E0,7.360322475E0,-2.297109842E0
1.480742077E1,-4.539184570E0,5.663811207E0,1.155733347E0
1.482408743E1,-6.518048763E0,4.642076015E0,1.701775551E1
1.484075410E1,-9.631111145E0,-4.331009090E-1,-1.651047617E-1
1.485742076E1,-1.041835022E1,-2.914458036E0,-2.110469580E0
1.487408743E1,-5.335994363E-1,-1.942971945E0,-2.921636343E0
1.489075410E1,2.165504456E0,1.938186288E-1,-5.178068161E0
1.490742076E1,3.005385160E0,6.838686943E0,-8.047062874E0
1.492408743E1,7.877171993E0,1.566102409E1,-1.112423229E1
1.494075410E1,9.734002113E0,5.674339676E1,1.751067543E1
1.495742076E1,-1.647219086E1,4.620779800E1,-2.873780012E0
1.497408743E1,4.740181446E0,3.623929977E1,7.176074982E0
1.499075409E1,7.286144733E0,1.438804245E1,-6.486942291E0
1.500742076E1,5.871986866E0,9.987641335E0,1.818545163E-1
1.502408743E1,3.550948858E0,8.147561073E0,-6.005984545E-1
1.504075409E1,2.488535643E0,5.903093338E0,-5.766702294E-1
1.505742076E1,2.598605394E0,5.584847927E0,1.428515077E0
1.507408742E1,2.823530674E0,3.507878065E0,4.689932466E-1
1.509075409E1,3.316452265E0,2.868994236E0,-1.148554832E-1
1.510742076E1,1.191625714E0,6.221339107E-1,-3.993621111E0
1.512408742E1,-7.226324677E-1,-6.300302029E0,-8.547162056E0
1.514075409E1,-7.226324677E-1,-6.300302029E0,-8.547162056E0
1.515742075E1,3.464807272E0,-4.601397991E0,5.458028316E0
1.517408742E1,1.182054400E0,-2.079362869E0,3.711267948E0
1.519075409E1,1.182054400E0,-2.079362869E0,3.711267948E0
1.520742075E1,-4.618147612E-1,-2.512463629E-1,-3.158525825E-1
1.522408742E1,-4.689932466E-1,-2.153540403E-1,1.363908947E-1
1.524075408E1,-1.698904037E-1,9.499505758E-1,1.998006940E0
1.525742075E1,-4.426721931E-1,4.278367043E0,7.657032609E-1
1.527408742E1,-1.887937069E0,1.170329571E1,-2.675175667E0
1.529075408E1,1.502692580E0,4.599483871E1,-4.754538536E0
1.530742075E1,8.671588898E0,5.520959854E1,1.038485050E0
1.532408741E1,8.671588898E0,5.520959854E1,1.038485050E0
1.534075408E1,-8.614161611E-1,1.067438221E1,-3.763910055E0
1.535742074E1,-2.239681959E0,6.565905571E0,-4.804787636E0
1.537408741E1,-3.842873096E0,8.683553696E0,2.175075769E0
1.539075408E1,-3.842873096E0,8.683553696E0,2.175075769E0
1.540742074E1,5.048855543E-1,1.077488041E1,9.913464546E0
1.542408741E1,-3.259024382E0,9.961320877E0,1.067198873E0
1.544075408E1,-6.348158360E0,5.728417397E0,-3.254238665E-1
1.545742074E1,-6.056233883E0,3.395415306E0,1.435693540E-2
1.547408741E1,-5.235496044E0,4.412364960E0,-3.278166950E-1
1.549075407E1,-8.824729919E0,2.275574446E0,1.111466122E1
1.550742074E1,-8.824729919E0,2.275574446E0,1.111466122E1
1.552408741E1,-5.194818020E0,-3.996013701E-1,-1.284945726E0
1.554075407E1,-2.914458036E0,2.297109663E-1,-2.938386202E0
1.555742074E1,4.235295951E-1,4.460221291E0,-6.163911343E0
1.557408740E1,4.778466702E0,1.289731407E1,-5.704489231E0
1.559075407E1,4.778466702E0,1.289731407E1,-5.704489231E0
1.560742074E1,-3.347558975E0,3.975435638E1,-5.584847927E0
1.562408740E1,-3.763910055E0,4.652843475E1,9.537791252E0
1.564075407E1,6.391229153E0,2.040599060E1,-9.260223508E-1
1.565742073E1,6.391229153E0,2.040599060E1,-9.260223508E-1
1.567408740E1,3.337987661E0,8.927620888E0,-4.685146809E0
1.569075406E1,2.845066071E0,7.444071293E0,2.074577332E0
1.570742073E1,2.459821701E0,7.377072334E0,1.220339537E-1
1.572408740E1,2.459821701E0,7.377072334E0,1.220339537E-1
1.574075406E1,5.324030399E0,3.388236761E0,1.304088354E0
1.575742073E1,7.104290485E0,8.231309652E-1,-1.131805062E0
1.577408740E1,1.507478237E0,-1.579262912E-1,-7.123433113E0
1.579075406E1,1.507478237E0,-1.579262912E-1,-7.123433113E0
1.580742073E1,2.502892494E0,-6.379265308E0,-3.005385160E0
1.582408739E1,2.196611166E0,-5.175675392E0,5.984449387E0
1.584075406E1,2.196611166E0,-5.175675392E0,5.984449387E0
1.585742072E1,-1.914258152E-1,-5.048855543E-1,2.349751949E0
1.587408739E1,-4.187439680E-1,-5.120640397E-1,5.982056856E-1
1.589075406E1,-1.698904037E-1,3.278166950E-1,1.765903115E0
1.590742072E1,-1.698904037E-1,3.278166950E-1,1.765903115E0
1.592408739E1,-1.584048629E0,6.463014126E0,-1.832902193E0
1.594075406E1,-8.456234932E0,3.001078224E1,-1.230867958E1
1.595742072E1,2.818745136E0,6.138547134E1,3.974478483E0
1.597408739E1,3.986442566E0,2.798645401E1,-2.711068153E0
1.599075405E1,7.417750359E-2,1.589791393E1,-6.987041831E-1
1.600742072E1,-2.627319336E0,7.427321434E0,5.312066078E-1
1.602408738E1,-4.039084435E0,8.937192917E0,4.465006828E0
1.604075405E1,-1.581655741E0,1.388554955E1,8.796015739E0
1.605742072E1,-1.799402595E0,1.283988667E1,4.079762459E0
1.607408738E1,-3.270988464E0,1.128215885E1,3.316452265E0
1.609075405E1,-5.955735683E0,6.362515450E0,3.182454109E-1
1.610742072E1,-5.584847927E0,3.345165968E0,8.973084688E-1
1.612408738E1,-5.556134224E0,3.940979004E0,-1.801795483E0
1.614075405E1,-4.273581028E0,2.897708178E0,5.721239090E0
1.615742071E1,-8.013563156E0,4.043870270E-1,1.516092396E1
1.617408738E1,-8.013563156E0,4.043870270E-1,1.516092396E1
1.619075405E1,-5.194818020E0,-2.129612207E0,-1.311266780E0
1.620742071E1,-9.236295223E-1,-9.475577474E-1,-3.493520975E0
1.622408738E1,1.397408366E0,2.522035122E0,-6.556334019E0
1.624075404E1,1.397408366E0,2.522035122E0,-6.556334019E0
1.625742071E1,9.518648148E0,2.550988197E1,9.805787086E0
1.627408738E1,4.977070987E-1,6.143811417E1,-2.170290232E0
1.629075404E1,4.244867325E0,4.359483719E1,7.860422611E0
1.630742071E1,4.244867325E0,4.359483719E1,7.860422611E0
1.630742071E1,3.407379389E0,1.723789406E1,-4.067798331E-2
1.634075404E1,6.235695839E0,8.080561638E0,-2.976671457E0
1.635742071E1,6.235695839E0,8.080561638E0,-2.976671457E0
1.637408737E1,3.479164124E0,5.103890896E0,6.460621357E-1
1.639075404E1,3.479164124E0,5.103890896E0,6.460621357E-1
1.640742070E1,4.862215519E0,3.570091486E0,1.916650891E0
1.642408737E1,4.862215519E0,3.570091486E0,1.916650891E0
1.644075404E1,8.997012973E-1,-3.996013880E0,-6.400800705E0
1.645742070E1,7.896314859E-1,-5.525027275E0,-5.288137913E0
1.647408737E1,3.282952785E0,-5.338387489E0,5.264210105E-1
1.649075403E1,3.282952785E0,-5.338387489E0,5.264210105E-1
1.649075403E1,1.174875975E0,-2.419143677E0,3.579662561E0
1.652408736E1,-4.618147612E-1,-4.331009090E-1,7.298108935E-1
1.654075403E1,-2.617748022E0,-3.924229145E-1,-1.406979680E0
1.655742070E1,6.175875187E0,3.840480328E0,4.381497574E1
1.657408736E1,5.216353536E-1,-2.069791555E0,2.871387303E-1
1.659075403E1,-9.178867340E0,1.978864312E0,-1.594577026E1
1.660742070E1,-9.281759262E0,1.282313633E1,-1.772124481E1
1.662408736E1,4.967499733E0,4.830151749E1,4.163511395E-1
1.664075403E1,2.395454788E1,6.969335175E1,2.754138947E1
1.665742069E1,2.395454788E1,6.969335175E1,2.754138947E1
1.667408736E1,-3.605983734E0,1.054756260E1,-5.297709465E0
1.669075402E1,-3.605983734E0,1.054756260E1,-5.297709465E0
1.670742069E1,-1.339980662E-1,1.305284786E1,1.950150490E0
1.672408736E1,-1.253839016E0,1.676172256E1,3.479164124E0
1.674075402E1,-2.038684845E0,1.243789196E1,1.676172256E1
1.675742069E1,-2.038684845E0,1.243789196E1,1.676172256E1
1.677408736E1,-1.136590719E0,6.843472958E0,-6.214160442E0
1.679075402E1,-2.842673302E0,4.448257446E0,-3.780659735E-1
1.680742069E1,-2.849851847E0,4.405186653E0,1.294517040E0
1.682408735E1,-2.849851847E0,4.405186653E0,1.294517040E0
1.684075402E1,-1.101655579E1,-8.063812256E-1,4.687539577E0
1.685742068E1,-7.460821152E0,-1.651047587E0,-5.223531723E0
1.687408735E1,-8.398807645E-1,-1.665404558E0,-2.115255117E0
1.689075402E1,-8.398807645E-1,-1.665404558E0,-2.115255117E0
1.690742068E1,2.799602509E0,2.639283419E0,-5.221138954E0
1.692408735E1,2.861815929E0,8.193024635E0,-1.045663452E1
1.694075402E1,2.002553177E1,4.858386993E1,3.970410538E1
1.695742068E1,2.002553177E1,4.858386993E1,3.970410538E1
1.697408735E1,-3.940979004E0,4.706921387E1,4.857429981E0
1.699075401E1,5.017749310E0,1.852284050E1,-8.853443861E-1
1.700742068E1,7.515855789E0,1.082273674E1,-3.491128206E0
1.702408734E1,7.515855789E0,1.082273674E1,-3.491128206E0
1.704075401E1,3.031706333E0,6.530013084E0,3.948157430E-1
1.705742068E1,1.928615093E0,6.661618233E0,1.373480201E0
1.707408734E1,2.591426849E0,5.187639713E0,2.455035925E0
1.709075401E1,2.591426849E0,5.187639713E0,2.455035925E0
1.710742068E1,5.113461971E0,2.431107759E0,-5.838487148E-1
1.712408734E1,1.306481123E0,-6.532405615E-1,-7.061219692E0
1.714075401E1,6.005984545E-1,-6.350551128E0,-5.525027275E0
1.715742067E1,2.215753794E0,-6.230910301E0,3.558127165E0
1.717408734E1,1.758724689E0,-3.991228104E0,7.166503906E0
1.719075401E1,6.221338734E-2,-5.670989752E-1,1.689332843E0
1.720742067E1,-6.460621208E-2,3.014956415E-1,1.627119333E-1
1.722408734E1,-4.187439680E-1,-2.895315289E-1,8.685946465E-1
1.724075400E1,-6.556333899E-1,-5.694918036E-1,1.141376376E0
1.725742067E1,-9.978070259E-1,1.229910851E0,1.012163997E0
1.727408734E1,-3.993621111E0,8.233702660E0,-4.266402721E0
1.729075400E1,-5.137390137E0,1.679522133E1,-1.009292603E1
1.730742067E1,2.533999205E0,6.390990067E1,7.597211838E0
1.732408733E1,1.263410330E0,3.431546783E1,-1.242832088E1
1.734075400E1,1.263410330E0,3.431546783E1,-1.242832088E1
1.735742066E1,2.201396823E-1,9.511469841E0,-5.120640397E-1
1.737408733E1,-2.656033039E-1,1.411047554E1,3.565305769E-1
1.739075400E1,9.499505758E-1,1.963311005E1,8.752944946E0
1.740742066E1,9.499505758E-1,1.963311005E1,8.752944946E0
1.742408733E1,-1.708475351E0,6.678368092E0,4.890929699E0
1.744075400E1,2.143969059E0,6.252445698E0,-9.619147182E-1
1.745742066E1,-3.462414265E0,6.187839508E0,-1.651047617E-1
1.747408733E1,-3.462414265E0,6.187839508E0,-1.651047617E-1
1.749075399E1,-3.270988464E0,4.455435753E0,5.479564071E-1
1.750742066E1,-7.869993687E0,2.213361025E0,2.239203453E1
1.752408732E1,-1.065763187E1,-1.840080619E0,-1.158126116E0
1.754075399E1,-3.670589924E0,-1.708475351E0,-3.261417150E0
1.755742066E1,8.135596663E-2,-1.438086390E0,-3.211168051E0
1.757408732E1,1.847259045E0,4.905286431E-1,-5.082355499E0
1.759075399E1,3.304488182E0,4.283152580E0,-8.769695282E0
1.760742066E1,7.805387497E0,2.112862396E1,4.381258488E0
1.762408732E1,1.898226166E1,5.859304810E1,3.086980438E1
1.764075399E1,-1.221535969E1,5.543691635E1,7.776673436E-1
1.765742065E1,5.417350292E0,2.428236389E1,-8.398807645E-1
1.767408732E1,5.417350292E0,2.428236389E1,-8.398807645E-1
1.769075398E1,4.998606682E0,8.228917122E0,-2.108076811E0
1.770742065E1,2.189432621E0,7.558926582E0,2.392822690E-2
1.772408732E1,3.263810158E0,7.525427341E0,1.634297848E0
1.774075398E1,3.644268990E0,6.903293133E0,3.371487141E0
1.775742065E1,3.670589924E0,5.501099110E0,2.019542217E0
1.777408732E1,4.902893543E0,2.696711063E0,2.727817893E-1
1.779075398E1,4.902893543E0,2.696711063E0,2.727817893E-1
1.780742065E1,1.012163997E0,1.411765367E-1,-5.374279499E0
1.782408731E1,3.158525825E-1,-2.761317253E0,-4.106083870E0
1.784075398E1,1.852044702E0,-4.723432064E0,2.868994236E0
1.785742064E1,9.930213690E-1,-3.948157310E0,3.079562664E0
1.787408731E1,8.614161611E-2,-2.804388046E0,3.493520975E0
1.789075398E1,-4.378865361E-1,-7.561319470E-1,7.082754970E-1
1.790742064E1,-1.416550994E0,-1.299302697E0,-1.555334777E-1
1.792408731E1,4.051048756E0,2.048256159E0,1.910190392E1
1.794075398E1,-5.407779217E-1,-8.614161611E-1,-1.217946768E0
1.795742064E1,-4.225724697E0,2.971885681E0,-8.003992081E0
1.797408731E1,-4.225724697E0,2.971885681E0,-8.003992081E0
1.799075397E1,6.120840549E0,7.016712952E1,8.511270523E0
1.800742064E1,7.534998417E0,6.589833832E1,-4.570291340E-1
1.802408731E1,-2.124826431E0,1.684068489E1,-1.043270707E0
1.804075397E1,-3.431307554E0,5.548955917E0,-2.076970100E0
1.805742064E1,-2.656033039E0,6.331408501E0,9.140582681E-1
1.807408730E1,-1.631905079E0,1.045424175E1,6.597012043E0
1.809075397E1,-1.866401732E-1,1.659422493E1,2.280359983E0
1.810742064E1,-1.933400750E0,9.832108498E0,8.597412109E0
1.812408730E1,1.062413216E0,7.369893551E0,-1.540977836E0
1.814075397E1,-5.144568682E-1,6.317051888E0,6.963114142E-1
1.815742063E1,-4.756931305E0,5.903093338E0,-3.141776085E0
1.817408730E1,-5.742774487E0,4.197010994E0,2.845066071E0
1.819075397E1,-1.104526901E1,8.015955687E-1,2.135594177E1
1.820742063E1,-9.839286804E0,-1.859223247E0,-1.095912814E0
1.822408730E1,-1.027478027E1,-2.014756680E0,1.335195065E0
1.824075396E1,1.751546144E0,1.538584948E0,-6.015556335E0
1.825742063E1,2.790031195E0,2.701496840E0,-6.943971157E0
1.827408730E1,4.500899315E0,5.793023586E0,-1.027956581E1
1.829075396E1,5.536991596E0,1.746999741E1,-7.204789162E0
1.830742063E1,5.536991596E0,1.746999741E1,-7.204789162E0
1.832408729E1,5.252245903E0,4.173800659E1,-2.014756680E0
1.834075396E1,4.321437836E0,2.406701088E1,-5.079962254E0
1.835742062E1,4.902893543E0,1.282074356E1,-2.895315409E0
1.837408729E1,2.974278450E0,7.003791809E0,-6.230910301E0
1.839075396E1,1.916650891E0,5.802595139E0,-4.429114819E0
1.840742062E1,6.675975323E-1,5.747560024E0,5.123033047E0
1.842408729E1,6.675975323E-1,5.747560024E0,5.123033047E0
1.844075396E1,3.761517286E0,3.342773199E0,-7.058826685E-1
1.845742062E1,4.625326157E0,2.828316450E0,-1.715653777E0
1.847408729E1,1.820937991E0,5.718846321E-1,-4.364508629E0
1.849075395E1,-1.268195957E-1,-5.467599869E0,-8.611768723E0
1.850742062E1,2.031506538E0,-5.197210789E0,9.355936646E-1
1.852408728E1,1.976471543E0,-3.244667530E0,2.584248543E0
1.854075395E1,6.652047038E-1,-1.557727575E0,1.804188251E0
1.855742062E1,6.699903309E-2,-5.958128572E-1,1.174875975E0
1.857408728E1,-9.260223508E-1,-1.938186288E-1,8.973084688E-1
1.859075395E1,-1.555334687E0,-1.698904037E-1,2.895315289E-1
1.860742062E1,6.532405615E-1,6.819544435E-1,1.215075302E1
1.862408728E1,-1.354337573E0,1.667797327E0,-2.589034081E0
1.864075395E1,-1.354337573E0,1.667797327E0,-2.589034081E0
1.865742061E1,-4.539184570E0,2.804388046E1,-1.588594913E1
1.867408728E1,7.176074982E0,7.017670441E1,8.374879360E-1
1.869075394E1,4.711467743E0,2.783809853E1,1.957328916E0
1.870742061E1,-2.868994236E0,6.747759819E0,5.264210105E-1
1.872408728E1,-3.213560820E0,4.204189301E0,-3.113062143E0
1.874075394E1,2.129612118E-1,7.195217609E0,-6.412764788E-1
1.875742061E1,2.849851847E0,1.395015621E1,3.790230989E0
1.877408728E1,2.849851847E0,1.395015621E1,3.790230989E0
1.877408728E1,1.383051515E0,1.264606762E1,9.480362892E0
1.880742061E1,-3.818944931E0,7.587640762E0,-1.270588875E0
1.882408727E1,-3.818944931E0,7.587640762E0,-1.270588875E0
1.884075394E1,-3.584448338E0,2.854637384E0,2.943171859E-1
1.885742060E1,-3.919443607E0,2.828316450E0,9.884750366E0
1.887408727E1,-8.140382767E0,3.302095234E-1,7.130611420E0
1.889075394E1,-8.140382767E0,3.302095234E-1,7.130611420E0
1.890742060E1,-5.807380676E0,-1.543370605E0,-1.330409408E0
1.892408727E1,-1.234696507E0,-3.924229145E-1,-5.333601475E0
1.894075394E1,2.545963287E0,3.251846075E0,-7.372286797E0
1.895742060E1,2.545963287E0,3.251846075E0,-7.372286797E0
1.897408727E1,2.960639381E1,4.575316238E1,2.214318085E1
1.899075393E1,-2.321037948E-1,4.169014740E1,-2.986242771E0
1.900742060E1,-1.045184898E1,5.469753265E1,1.261735344E1
1.902408727E1,-1.045184898E1,5.469753265E1,1.261735344E1
1.904075393E1,7.312466145E0,1.417268848E1,-3.326023579E0
1.905742060E1,6.245266914E0,1.068156052E1,2.799602449E-1
1.907408726E1,3.768695593E0,6.924828529E0,-1.421336651E0
1.909075393E1,3.768695593E0,6.924828529E0,-1.421336651E0
1.910742060E1,2.644068956E0,5.422136307E0,1.526620865E0
1.912408726E1,2.177468538E0,3.096312523E0,1.698904037E0
1.914075393E1,2.227717876E0,1.320838094E0,-4.713860750E-1
1.915742059E1,-8.374879509E-2,-1.737189293E0,-5.546562672E0
1.917408726E1,-7.250252366E-1,-5.434100151E0,-7.762316704E0
1.919075393E1,1.940579176E0,-4.594219685E0,-6.460621208E-2
1.920742059E1,1.167697430E0,-3.098705292E0,2.392822653E-1
1.922408726E1,5.503492057E-2,-1.328016520E0,4.426721931E-1
1.924075392E1,-2.703889608E-1,-8.422735929E-1,2.608176768E-1
1.925742059E1,-5.814558864E-1,-4.761717021E-1,8.518448472E-1
1.927408726E1,7.013363361E0,4.077369690E0,4.882554626E1
1.929075392E1,7.013363361E0,4.077369690E0,4.882554626E1
1.930742059E1,-7.178468108E-1,1.722832322E-1,-1.101894855E1
1.932408725E1,-3.134597778E0,5.568098068E0,-1.002353382E1
1.934075392E1,-8.743373871E0,3.399483109E1,-2.826402092E1
1.935742058E1,1.710150337E1,7.763513184E1,3.829951859E1
1.937408725E1,2.959921598E0,4.555455780E1,1.138983607E0
1.939075392E1,-4.527220249E0,1.295713425E1,-5.986842155E0
1.940742058E1,-4.527220249E0,1.295713425E1,-5.986842155E0
1.942408725E1,-4.977070987E-1,5.139782906E0,1.016471100E1
1.944075392E1,2.584248543E0,8.453842163E0,1.353380489E1
1.945742058E1,8.374879509E-2,1.086102200E1,-3.342773199E0
1.947408725E1,-1.890329838E0,9.183652878E0,1.579262972E0
1.949075391E1,-1.890329838E0,9.183652878E0,1.579262972E0
1.950742058E1,-4.043870449E0,3.120240688E0,3.254238665E-1
1.952408724E1,-4.055834293E0,2.019542217E0,6.278766632E0
1.954075391E1,-5.479563713E0,1.184447169E0,8.154739380E0
1.955742058E1,-4.441078663E0,2.043470621E0,-2.400001049E0
1.957408724E1,-4.369294167E0,1.007378340E0,-3.862015724E0
1.959075391E1,-3.175275564E0,-3.278166950E-1,-4.390829563E0
1.960742058E1,-3.175275564E0,-3.278166950E-1,-4.390829563E0
1.962408724E1,4.520041943E0,8.370093346E0,-7.259823799E0
1.964075391E1,6.939185619E0,1.215075302E1,-3.991228104E0
1.965742057E1,1.662533188E1,3.095833969E1,-2.459821701E0
1.967408724E1,1.662533188E1,3.095833969E1,-2.459821701E0
1.969075390E1,-9.530612946E0,4.902893448E1,1.884587097E1
1.970742057E1,4.345366001E0,2.227239227E1,-4.965106964E0
1.972408724E1,2.976671457E0,1.021496010E1,-6.687939167E0
1.974075390E1,2.254039049E0,9.614361763E0,-4.307080805E-1
1.975742057E1,1.316052437E0,8.152346611E0,1.466800332E0
1.977408724E1,1.442872047E0,5.680561066E0,3.546163082E0
1.979075390E1,2.148754835E0,3.914657831E0,6.125625968E-1
1.980742057E1,2.201396942E0,2.108076811E0,-1.986042738E0
1.982408723E1,1.306481123E0,1.021735311E0,-5.008177757E0
1.984075390E1,5.431707501E-1,-1.268195957E-1,-5.297709465E0
1.985742056E1,1.557727575E0,-3.665804386E0,-2.656033039E0
1.987408723E1,3.218346357E0,-2.897708178E0,1.402194023E0
1.989075390E1,3.072384357E0,-2.758924484E0,7.274180651E-1
1.990742056E1,1.313659668E0,-1.890329838E0,1.667797327E0
1.992408723E1,2.799602449E-1,-7.322037220E-1,1.112662554E0
1.994075390E1,2.799602449E-1,-7.322037220E-1,1.112662554E0
1.995742056E1,-4.498506486E-1,-7.872386575E-1,3.964907169E0
1.997408723E1,-4.498506486E-1,-7.872386575E-1,3.964907169E0
1.999075389E1,-1.469193101E0,4.883750916E0,-9.198010445E0
2.000742056E1,-1.469193101E0,4.883750916E0,-9.198010445E0
2.002408723E1,-6.776473522E0,7.917850018E0,3.625126362E0
2.004075389E1,-2.763949394E1,4.548038101E1,-1.419900990E1
2.005742056E1,9.279366493E0,6.357490540E1,-4.137190342E0
2.007408722E1,9.279366493E0,6.357490540E1,-4.137190342E0
2.009075389E1,-1.024128079E0,1.572323799E1,1.648654819E0
2.010742056E1,-1.299302697E0,-2.105684042E0,9.159725189E0
2.012408722E1,-1.299302697E0,-2.105684042E0,9.159725189E0
2.014075389E1,6.891329288E-1,1.095673466E1,-5.814558864E-1
2.015742055E1,-2.512463629E-1,8.178668022E0,-1.112662554E0
2.017408722E1,-7.920243144E-1,2.986242771E0,-5.742774159E-2
2.019075389E1,-2.261217356E0,7.082754970E-1,1.806581140E0
2.020742055E1,-5.802595139E0,9.571290761E-2,9.734002113E0
2.022408722E1,-5.836094379E0,2.105683982E-1,5.022534847E0
2.024075388E1,-3.591626883E0,6.388836503E-1,-4.522434771E-1
2.025742055E1,-4.163511276E0,-2.127219439E0,-3.565305769E-1
2.027408722E1,-3.266202927E0,-2.098505497E0,-3.148954630E0
2.029075388E1,-1.765903115E0,1.481157184E0,-8.035098076E0
2.030742055E1,5.814558864E-1,9.724431038E0,-8.214560509E0
2.032408721E1,1.813281059E1,5.301777267E1,2.767299461E1
2.034075388E1,4.240081787E0,5.405865097E1,-4.905286431E-1
2.035742054E1,-2.445464849E0,4.168297195E1,1.075813103E1
2.037408721E1,8.159525394E-1,1.815913010E1,-5.283352375E0
2.039075388E1,4.881358147E-1,1.088973618E1,-7.142575741E0
2.040742054E1,1.292124271E0,9.107083321E0,-2.701496840E0
2.042408721E1,1.002592683E0,7.745566845E0,4.106083870E0
2.044075388E1,1.191625714E0,7.374679565E0,2.773281336E0
2.045742054E1,2.876172781E0,6.183053493E0,1.323230863E0
2.047408721E1,3.259024382E0,6.056233883E0,6.005984545E-1
2.049075387E1,2.574677229E0,2.830709219E0,-1.100698411E-1
2.050742054E1,6.819544435E-1,3.876372576E-1,-4.859822750E0
2.052408720E1,6.819544435E-1,3.876372576E-1,-4.859822750E0
2.054075387E1,7.776673436E-1,-4.965106964E0,-4.055834293E0
2.055742054E1,2.411965132E0,-2.842673302E0,1.249053478E0
2.057408720E1,1.517049551E0,-1.722832322E0,1.847259045E0
2.059075387E1,1.517049551E0,-1.722832322E0,1.847259045E0
2.060742054E1,3.086741269E-1,-1.009771109E0,7.250252366E-1
2.062408720E1,3.565305769E-1,2.153540403E-2,2.309073925E0
2.064075387E1,9.834501147E-1,1.330409408E0,-1.234696507E0
2.065742053E1,9.834501147E-1,1.330409408E0,-1.234696507E0
2.067408720E1,-1.990828395E0,9.336793900E0,1.251446247E0
2.069075386E1,-2.342573404E0,4.761956406E1,-1.251446247E0
2.070742053E1,1.967378807E1,6.545087433E1,-5.879165173E0
2.072408720E1,3.227917671E0,2.189672089E1,-9.403793216E-1
2.074075386E1,-1.007378340E0,1.355773354E1,1.019342422E0
2.075742053E1,-6.123233318E0,2.768495798E0,3.090330505E1
2.077408720E1,-1.694118381E0,3.337987661E0,-4.125226021E0
2.079075386E1,-1.694118381E0,3.337987661E0,-4.125226021E0
2.080742053E1,2.146361828E0,1.052602673E1,1.849651933E0
2.082408719E1,-1.722832322E0,6.798008919E0,3.407379389E0
2.084075386E1,-1.722832322E0,6.798008919E0,3.407379389E0
2.084075386E1,-1.785045743E0,4.898108006E0,-2.572284460E0
2.087408719E1,-1.442872047E0,2.749353170E0,1.368694544E0
2.089075386E1,-6.707081795E0,3.206382394E-1,1.856830406E1
2.090742052E1,-6.707081795E0,3.206382394E-1,1.856830406E1
2.092408719E1,-7.353144169E0,-2.593819857E0,-9.700503349E0
2.094075386E1,-3.668197155E0,-2.012363911E0,-8.042277336E0
2.095742052E1,7.896314859E-1,2.344966233E-1,-2.084148407E0
2.097408719E1,1.816152334E0,4.785645485E0,-9.399007797E0
2.099075385E1,5.922235966E0,1.117926693E1,-1.914258122E0
2.100742052E1,8.937192917E0,5.535556030E1,1.277767301E0
2.102408719E1,-8.027919769E0,5.799005508E1,9.542576790E0
2.104075385E1,-8.027919769E0,5.799005508E1,9.542576790E0
2.105742052E1,3.991228104E0,1.008814049E1,-7.118647575E0
2.107408718E1,3.888336897E0,9.480362892E0,6.652047038E-1
2.109075385E1,2.232503414E0,5.852844238E0,6.460621357E-1
2.110742052E1,2.232503414E0,5.852844238E0,6.460621357E-1
2.112408718E1,2.593819857E0,7.336394310E0,1.713261008E0
2.114075385E1,3.871587038E0,6.405586243E0,7.920243144E-1
2.114075385E1,3.871587038E0,6.405586243E0,7.920243144E-1
2.117408718E1,3.871587038E0,6.405586243E0,7.920243144E-1
2.119075384E1,3.972085714E-1,-1.548156261E0,-3.505485058E0
2.120742051E1,3.036491871E0,-3.955335855E0,-2.201396942E0
2.122408718E1,2.512463808E0,-3.809373617E0,-1.411765367E-1
2.124075384E1,2.512463808E0,-3.809373617E0,-1.411765367E-1
2.125742051E1,5.838487148E-1,-4.091726840E-1,9.427721500E-1
2.127408718E1,-3.613162339E-1,-8.925228715E-1,7.728816867E-1
2.129075384E1,-3.613162339E-1,-8.925228715E-1,7.728816867E-1
2.130742051E1,1.172483116E-1,3.278166950E-1,-1.823330879E0
2.132408717E1,1.172483116E-1,3.278166950E-1,-1.823330879E0
2.134075384E1,-2.986242771E0,9.846465111E0,-1.983649969E0
2.135742050E1,-2.986242771E0,9.846465111E0,-1.983649969E0
2.137408717E1,6.077769279E0,6.188557053E1,3.936193228E0
2.139075384E1,5.941378593E0,3.448057556E1,2.919243574E-1
2.140742050E1,-7.441678643E-1,1.317488194E1,-2.115255117E0
2.142408717E1,-1.974078655E0,7.633104324E0,-5.838487148E-1
2.144075384E1,-1.785045743E0,2.572284460E0,1.425165176E1
2.145742050E1,-5.527420044E-1,7.156932354E0,-3.129812002E0
2.147408717E1,4.426721931E-1,9.542576790E0,-4.622933388E0
2.149075383E1,-5.240281820E-1,6.221338749E0,4.888536453E0
2.150742050E1,-5.240281820E-1,6.221338749E0,4.888536453E0
2.152408716E1,-2.600998163E0,3.165704250E0,-1.988435626E0
2.154075383E1,-2.318645239E0,2.184647083E0,-1.914258115E-2
2.155742050E1,-7.140182972E0,-4.546362907E-2,2.468675041E1
2.157408716E1,-7.424928665E0,-2.244467735E0,1.938186264E1
2.159075383E1,-6.750152588E0,-3.735196114E0,-4.689932346E0
2.160742050E1,-1.737189293E0,-1.459621787E0,-8.159524918E0
2.162408716E1,1.816152334E0,2.160718918E0,-5.517848969E0
2.164075383E1,-3.517449200E-1,3.615555048E0,-1.207418346E1
2.165742049E1,4.730610371E0,1.055952644E1,-8.645268440E0
2.167408716E1,1.184447193E1,6.491249084E1,1.422772312E1
2.169075382E1,1.184447193E1,6.491249084E1,1.422772312E1
2.170742049E1,2.821137905E0,4.261856461E1,7.939385414E0
2.172408716E1,4.326223373E0,1.221535969E1,-6.520441532E0
2.174075382E1,3.895515203E0,5.776273727E0,-3.498306751E0
2.175742049E1,3.895515203E0,5.776273727E0,-3.498306751E0
2.177408716E1,4.084548473E0,8.662017822E0,4.036691666E0
2.179075382E1,4.156332970E0,9.159725189E0,9.164510965E-1
2.180742049E1,3.582055569E0,6.216553211E0,-1.052841991E-1
2.182408715E1,2.861815929E0,2.210968018E0,3.517449200E-1
2.184075382E1,2.117648125E0,9.834501147E-1,-5.120640397E-1
2.185742049E1,2.081755698E-1,-3.833301783E0,-5.871986866E0
2.187408715E1,2.031506538E0,-5.706882000E0,-5.546562672E0
2.189075382E1,2.031506538E0,-5.706882000E0,-5.546562672E0
2.190742048E1,3.842873096E0,-3.098705292E0,1.562513232E0
2.192408715E1,1.296909928E0,-1.591227055E0,4.462614059E0
2.194075382E1,3.182454109E-1,-6.125625968E-1,2.467000246E0
2.195742048E1,-4.211367965E-1,-7.130611539E-1,1.117448211E0
2.197408715E1,1.579262912E-1,-2.991028428E-1,2.036292076E0
2.199075381E1,3.589234054E-1,1.387837082E-1,8.063812256E-1
2.200742048E1,-2.632105052E-1,2.115255117E0,-7.537391186E-1
2.202408715E1,-2.632105052E-1,2.115255117E0,-7.537391186E-1
2.204075381E1,-2.632105052E-1,2.115255117E0,-7.537391186E-1
2.205742048E1,-3.538984776E0,6.678368378E1,-9.169296265E0
2.207408714E1,-3.538984776E0,6.678368378E1,-9.169296265E0
2.209075381E1,2.548356056E0,1.491207027E1,1.363908947E-1
2.210742048E1,9.068797827E-1,9.437292099E0,4.374079704E0
2.212408714E1,-3.184846878E0,-5.359922647E-1,3.244667435E1
2.214075381E1,2.651247501E0,2.163111687E0,-1.305524063E1
2.215742047E1,6.379265308E0,8.528019905E0,-7.298109055E0
2.217408714E1,6.343372822E0,1.227517986E1,3.905086517E0
2.219075380E1,6.343372822E0,1.227517986E1,3.905086517E0
2.220742047E1,-2.287538528E0,3.991228104E0,-1.746760458E-1
2.222408714E1,-3.658625841E0,2.864208698E0,1.978864312E0
2.224075380E1,-6.494120598E0,2.196611166E0,2.153540373E0
2.225742047E1,-6.494120598E0,2.196611166E0,2.153540373E0
2.227408714E1,-7.807780266E0,-4.522434771E-1,-8.149953842E0
2.229075380E1,-2.560320139E0,2.636890650E0,-1.271785259E1
2.230742047E1,2.481357098E0,2.120040894E0,-4.467400074E0
2.232408713E1,1.088734269E0,4.689932346E0,-1.026520920E1
2.234075380E1,1.412004662E1,2.120519447E1,1.803470421E1
2.235742046E1,1.977907181E1,4.749274445E1,2.604348183E1
2.237408713E1,-9.925428391E0,5.290530777E1,1.275374413E0
2.239075380E1,3.261417150E0,3.376033401E1,8.776873589E0
2.240742046E1,3.261417150E0,3.376033401E1,8.776873589E0
2.242408713E1,6.503692150E0,8.037490845E0,-3.562912941E0
2.244075380E1,6.503692150E0,8.037490845E0,-3.562912941E0
2.245742046E1,4.168296814E0,6.510870457E0,-1.435693622E0
2.247408713E1,4.168296814E0,6.510870457E0,-1.435693622E0
2.249075379E1,4.414757729E0,4.766502857E0,3.517449379E0
2.250742046E1,4.144368649E0,2.871387243E0,2.199003935E0
2.252408712E1,4.144368649E0,2.871387243E0,2.199003935E0
2.254075379E1,7.010970116E-1,-5.565705299E0,-9.403793335E0
2.255742046E1,2.400001049E0,-5.273781300E0,-6.486942291E0
2.257408712E1,4.462614059E0,-3.050848961E0,1.794617027E-1
2.259075379E1,1.983649969E0,-2.311466694E0,1.718046665E0
2.259075379E1,1.983649969E0,-2.311466694E0,1.718046665E0
2.262408712E1,8.398807645E-1,-6.939185411E-2,1.895115495E0
2.264075379E1,-3.828516230E-2,-7.920243144E-1,1.150947690E0
2.265742045E1,1.636690736E0,1.138983607E0,8.037490845E0
2.267408712E1,1.636690736E0,1.138983607E0,8.037490845E0
2.269075379E1,-1.004985452E0,2.218146563E0,-5.886343718E-1
2.270742045E1,-1.004985452E0,2.218146563E0,-5.886343718E-1
2.272408712E1,-1.316052437E1,6.020581055E1,-6.860222340E0
2.274075378E1,-1.316052437E1,6.020581055E1,-6.860222340E0
2.275742045E1,7.068397999E0,2.548595428E1,-5.503492057E-2
2.277408712E1,6.149554253E-1,8.846264839E0,1.797009826E0
2.279075378E1,-3.680161238E0,-1.071984529E0,2.540938377E1
2.280742045E1,-3.907479286E0,-5.307280540E0,2.109512520E1
2.282408711E1,6.197410822E-1,8.623732567E0,-4.137190342E0
2.284075378E1,1.347159147E0,1.073898792E1,-2.043470621E0
2.285742045E1,1.347159147E0,1.073898792E1,-2.043470621E0
2.287408711E1,-4.677968502E0,4.706682205E0,3.278166950E-1
2.289075378E1,-6.276373863E0,2.519642353E0,8.049455643E0
2.290742044E1,-9.477970123E0,1.734796405E0,8.592626572E0
2.292408711E1,-9.477970123E0,1.734796405E0,8.592626572E0
2.294075378E1,-8.145168304E0,-2.065006018E0,-1.272981644E0
2.295742044E1,-6.484549642E-1,-2.225325108E-1,7.369893789E-1
2.297408711E1,1.830509305E0,2.782852650E0,-3.189632654E0
2.299075377E1,1.830509305E0,2.782852650E0,-3.189632654E0
2.300742044E1,-5.048855543E-1,1.056909752E1,-1.201196957E1
2.302408711E1,7.530212879E0,6.250052643E1,1.297867012E1
2.304075377E1,-8.805587292E-1,5.716453171E1,1.535235023E1
2.305742044E1,-8.805587292E-1,5.716453171E1,1.535235023E1
2.307408710E1,2.983849764E0,1.162911797E1,-6.733402729E0
2.309075377E1,6.185446739E0,1.009771156E1,-7.010970116E-1
2.310742044E1,3.058027267E0,4.048655987E0,-2.620140791E0
2.312408710E1,3.058027267E0,4.048655987E0,-2.620140791E0
2.314075377E1,-1.928615093E0,6.611369133E0,3.481556892E0
2.315742043E1,4.610969067E0,6.185446739E0,3.002992392E0
2.317408710E1,5.113461971E0,4.354937077E0,-1.457229018E0
2.319075376E1,1.598405480E0,1.179661512E0,-6.599404812E0
2.320742043E1,4.666004181E-1,2.297109663E-1,-4.922036171E0
2.322408710E1,7.441678643E-1,-2.974278450E0,-2.014756680E0
2.324075376E1,1.651047587E0,-2.962314367E0,-1.854437590E0
2.325742043E1,1.167697430E0,-2.574677229E0,-2.055434704E0
2.327408710E1,1.057627559E0,-1.397408366E0,-1.081555843E0
2.329075376E1,3.349951804E-1,-1.038485050E0,-6.795616150E-1
2.330742043E1,3.349951804E-1,-1.038485050E0,-6.795616150E-1
2.332408709E1,1.117448211E0,3.924229145E-1,5.340780258E0
2.334075376E1,-2.057827413E-1,-1.627119333E-1,-4.211367965E-1
2.335742042E1,-1.483550072E0,5.091926575E0,-1.256231904E0
2.337408709E1,-9.116654396E0,3.264527893E1,-9.934999466E0
2.339075376E1,-9.116654396E0,3.264527893E1,-9.934999466E0
2.340742042E1,9.245866776E0,6.248377609E1,5.668596745E0
2.342408709E1,3.364308596E0,2.004228210E1,-2.419143677E0
2.344075376E1,-1.703689694E0,1.054995537E1,-3.464807272E0
2.345742042E1,-2.794816732E0,7.968099594E0,-1.363908887E0
2.347408709E1,-2.794816732E0,7.968099594E0,-1.363908887E0
2.349075375E1,1.435693540E-2,8.475378036E0,-5.556134224E0
2.350742042E1,1.435693540E-2,8.475378036E0,-5.556134224E0
2.352408708E1,3.519842148E0,7.585247993E0,8.149953842E0
2.354075375E1,-1.567298889E0,4.063013077E0,-1.698904037E-1
2.355742042E1,-1.378265858E0,2.986242771E0,-8.614161611E-2
2.357408708E1,-4.800002098E0,2.392822690E-2,1.490728474E1
2.359075375E1,-9.004191399E0,-3.488735437E0,3.056352425E1
2.360742042E1,-6.539584160E0,-1.210768223E0,-8.126026154E0
2.362408708E1,-1.725225091E0,1.820937991E0,-7.932207108E0
2.364075375E1,2.390429735E0,2.239681959E0,-4.072584152E0
2.365742041E1,3.780659735E-1,4.232903481E0,-1.138026428E1
2.367408708E1,1.062413216E1,1.838884163E1,1.354337597E1
2.369075375E1,-4.051048756E0,5.998567200E1,-6.326622963E0
2.370742041E1,-3.297309637E0,5.230710220E1,3.067598581E0
2.372408708E1,3.038884640E0,3.008495903E1,-3.515056372E0
2.374075374E1,4.680361271E0,7.872386456E0,-4.275974274E0
2.375742041E1,1.584048629E0,6.470192432E0,1.313659668E0
2.377408708E1,1.751546144E0,5.036891460E0,2.806781054E0
2.379075374E1,2.813959360E0,4.493721008E0,4.675575256E0
2.380742041E1,2.859423161E0,4.326223373E0,1.220339537E-1
2.382408707E1,5.438885689E0,3.404986620E0,3.302095234E-1
2.384075374E1,5.438885689E0,3.404986620E0,3.302095234E-1
2.385742041E1,9.810572863E-2,-8.709874153E-1,-5.125426292E0
2.387408707E1,4.450650215E-1,-1.270588875E0,-2.244467735E0
2.389075374E1,7.417750359E-2,-1.835294962E0,-2.555534601E0
2.390742040E1,7.417750359E-2,-1.835294962E0,-2.555534601E0
2.392408707E1,-7.824530005E-1,-1.878365755E0,-2.450250387E0
2.394075374E1,-2.273181438E0,-8.901300430E-1,2.919243574E-1
2.395742040E1,-3.366701365E0,2.751746178E-1,1.848455429E1
2.397408707E1,-3.366701365E0,2.751746178E-1,1.848455429E1
2.399075373E1,-4.307080805E-2,-2.177468538E0,-4.859822750E0
2.400742040E1,9.954141974E-1,5.711667538E0,-1.732164383E1
2.402408706E1,2.577069998E0,3.064248657E1,-2.143969154E1
2.404075373E1,2.577069998E0,3.064248657E1,-2.143969154E1
2.405742040E1,1.222493076E1,7.397411346E1,3.659104538E1
2.407408706E1,-2.294716835E0,2.162633133E1,-3.964907169E0
2.409075373E1,-3.546163082E0,9.734002113E0,-8.003992081E0
2.410742040E1,-2.732603550E0,3.431307554E0,-9.164510727E0
2.412408706E1,-1.531406492E-1,6.891329288E-1,3.031945610E1
2.414075373E1,-2.591426849E0,8.896514893E0,1.452443361E0
2.415742039E1,-4.728217602E0,9.576076508E0,-3.055634499E0
2.417408706E1,-3.759124279E0,5.436492920E0,1.603191197E-1
2.419075372E1,-1.813759565E0,1.911865234E0,3.163311481E0
2.420742039E1,-5.970092297E0,2.974278450E0,6.039484501E0
2.422408706E1,-6.577869415E0,4.402793884E0,-7.274180651E-1
2.424075372E1,-6.642475605E0,4.797609329E0,-6.010770321E0
2.425742039E1,-6.616154671E0,3.754338741E0,-5.477170944E0
2.427408706E1,-6.616154671E0,3.754338741E0,-5.477170944E0
2.429075372E1,-1.050449133E0,2.799602509E0,-4.541577339E0
2.430742039E1,1.091127157E0,1.825723648E0,-5.967699528E0
2.432408705E1,2.596212626E0,3.749552965E0,-6.984649181E0
2.434075372E1,6.534798622E0,1.451964760E1,-1.652961922E1
2.435742038E1,2.283231354E1,7.168657684E1,1.130848026E1
2.437408705E1,-1.581655788E1,6.361797714E1,-7.259823799E0
2.439075372E1,-1.581655788E1,6.361797714E1,-7.259823799E0
2.440742038E1,5.106283665E0,1.043270683E1,-9.339186668E0
2.442408705E1,5.106283665E0,1.043270683E1,-9.339186668E0
2.444075372E1,-1.227517962E0,7.886743546E0,9.930213690E-1
2.445742038E1,-7.178468257E-2,1.590987778E1,1.023649502E1
2.447408705E1,5.201996326E0,1.258146191E1,1.464407444E0
2.449075371E1,5.201996326E0,1.258146191E1,1.464407444E0
2.450742038E1,8.360522270E0,2.995813847E0,-4.177868366E0
2.452408704E1,5.783452511E0,1.165304661E0,-5.206781864E0
2.454075371E1,3.871587038E0,-1.942971945E0,-1.785045743E0
2.455742038E1,1.744367719E0,-2.890529871E0,-2.699103832E0
2.457408704E1,1.555334687E0,-3.072384357E0,-1.816152334E0
2.459075371E1,9.164510965E-1,-6.518048763E0,3.055634499E0
2.460742038E1,-1.962114573E0,-7.879564762E0,5.996413708E0
2.462408704E1,-1.962114573E0,-7.879564762E0,5.996413708E0
2.464075371E1,-8.977870941E0,-8.494520187E0,-5.900700569E0
2.465742037E1,-4.130012035E0,-4.474578202E-1,2.087019920E1
2.467408704E1,3.038884699E-1,-2.167897224E0,2.469393015E0
2.469075371E1,8.638089895E-1,-1.794616938E0,2.823530734E-1
2.470742037E1,1.016949654E0,-8.159525394E-1,-2.435893536E0
2.472408704E1,1.861616015E0,6.460621357E-1,-4.759324074E0
2.474075370E1,1.861616015E0,6.460621357E-1,-4.759324074E0
2.475742037E1,1.861616015E0,6.460621357E-1,-4.759324074E0
2.477408704E1,-2.048256159E0,7.834101105E1,5.032345200E1
2.479075370E1,-2.048256159E0,7.834101105E1,5.032345200E1
2.480742037E1,-3.640380621E0,1.338395405E1,-1.429382515E1
2.482408703E1,-3.043670416E0,5.767600060E0,-7.211070061E0
2.484075370E1,-4.997110844E0,1.689931005E-1,2.872284412E0
2.485742037E1,-6.431009769E0,-2.856431901E-1,1.755464363E1
2.487408703E1,-6.431009769E0,-2.856431901E-1,1.755464363E1
2.489075370E1,-6.431009769E0,-2.856431901E-1,1.755464363E1
2.490742036E1,-6.431009769E0,-2.856431901E-1,1.755464363E1
2.492408703E1,-2.513360977E0,4.694717884E0,-7.713862062E-1
2.494075370E1,-2.513360977E0,4.694717884E0,-7.713862062E-1
2.495742036E1,-2.513360977E0,4.694717884E0,-7.713862062E-1
2.497408703E1,-7.050152779E0,-6.302096844E-1,-3.925126553E0
2.499075369E1,-7.050152779E0,-6.302096844E-1,-3.925126553E0
2.500742036E1,-8.579166412E0,-1.692622900E0,-3.203989506E0
2.502408702E1,-8.579166412E0,-1.692622900E0,-3.203989506E0
2.504075369E1,5.058426857E0,8.281558990E0,-3.227917671E0
2.505742036E1,1.741017723E1,1.978385735E1,-1.923829436E0
2.507408702E1,4.104647827E1,3.417429352E1,8.798408508E0
2.509075369E1,9.932606697E0,2.493560410E1,-1.647458458E1
2.510742036E1,-3.533481216E1,4.582015991E1,2.462693024E1
2.512408702E1,-3.244667530E0,2.684029198E1,7.465606928E-1
2.514075369E1,-3.244667530E0,2.684029198E1,7.465606928E-1
2.515742035E1,1.550549030E0,3.170490026E0,-8.638089895E-1
2.517408702E1,1.825723648E0,7.403393269E0,2.931207657E0
2.519075368E1,2.112862349E0,7.322037220E0,1.722832322E0
2.520742035E1,2.213361025E0,5.702096462E0,-7.465606928E-1
2.522408702E1,2.266003132E0,4.443471432E0,-9.906286001E-1
2.524075368E1,1.198804140E0,1.710868239E0,-1.435693622E0
2.525742035E1,-3.182454109E-1,-7.178468257E-2,-3.223132133E0
2.527408702E1,-1.866401732E-1,-8.446664214E-1,-1.471585870E0
2.529075368E1,-3.110669367E-2,-9.140582681E-1,-8.374879360E-1
2.530742035E1,-2.416750938E-1,-1.330409408E0,-1.741974831E0
2.532408701E1,-4.953143001E-1,-2.115255117E0,-2.928814888E0
2.534075368E1,-7.034898400E-1,-2.244467735E0,-4.024727821E0
2.535742034E1,-1.146162033E0,-2.124826431E0,-1.698904037E-1
2.537408701E1,4.433900356E0,2.849851847E0,3.027877808E1
2.539075368E1,1.052841991E-1,-1.261017561E0,4.426721931E-1
2.540742034E1,2.632105052E-1,-8.159525394E-1,8.614161611E-2
2.542408701E1,-3.445664644E-1,1.741974831E0,-4.620540619E0
2.544075368E1,-6.463014126E0,1.263649654E1,-1.372044468E1
2.545742034E1,-8.851051331E0,6.073941040E1,-2.157847404E1
2.547408701E1,5.230710506E0,7.679285431E1,1.914975929E1
2.549075367E1,-5.462814331E0,2.617987251E1,-8.839086533E0
2.550742034E1,-3.917050600E0,3.268595695E0,-1.021496010E1
2.552408701E1,2.129612207E0,-8.087740541E-1,7.178468257E-2
2.554075367E1,4.089334011E0,1.538584948E0,1.025563812E1
2.555742034E1,4.646861553E0,9.387042999E0,7.501499176E0
2.557408700E1,-1.244267747E-1,1.282552910E1,-2.182254314E0
2.559075367E1,-1.244267747E-1,1.282552910E1,-2.182254314E0
2.560742034E1,-3.433700562E0,4.283152580E0,6.508477330E-1
2.562408700E1,-3.436093330E0,3.505485058E0,-7.968099117E-1
2.564075367E1,-7.216753006E0,2.134397745E0,1.351466274E1
2.565742033E1,-7.604390144E0,1.361516118E0,1.674975872E0
2.567408700E1,-7.743174076E0,1.088734269E0,-5.144568920E0
2.569075367E1,-1.183729362E1,-3.661018610E-1,2.861815929E0
2.570742033E1,-1.887937069E0,2.373680115E0,-7.834101200E0
2.572408700E1,4.244867325E0,7.025327206E0,-7.479963779E0
2.574075366E1,7.994420528E0,8.863015175E0,-8.224131584E0
2.575742033E1,1.864966011E1,2.249731827E1,-7.310073376E0
2.577408700E1,-5.015356064E0,4.259942245E1,-4.402793884E0
2.579075366E1,-2.467000246E0,4.576751709E1,1.990828395E0
2.580742033E1,6.092126369E0,2.372723007E1,-9.528220177E0
2.582408699E1,6.687939167E0,8.484949112E0,-3.223132133E0
2.584075366E1,6.687939167E0,8.484949112E0,-3.223132133E0
2.585742033E1,6.508477330E-1,5.711667538E0,-5.718846321E-1
2.587408699E1,1.103091240E0,7.298109055E0,8.279166222E-1
2.589075366E1,2.002792597E0,6.673582554E0,2.737389088E0
2.590742032E1,3.799802303E0,3.524627686E0,1.835294962E0
2.592408699E1,3.802195072E0,1.868794441E0,-4.163511276E0
2.594075366E1,1.596012712E0,4.857429862E-1,-6.915257454E0
2.595742032E1,-2.847459018E-1,-3.864408493E0,-7.393822193E0
2.597408699E1,1.246660590E0,-4.524827480E0,8.097311974E0
2.599075365E1,9.571290575E-3,-2.904886723E0,4.376472473E0
2.600742032E1,-7.058826685E-1,-1.457229018E0,-1.603191197E-1
2.602408698E1,-1.545763373E0,-1.014556766E0,-1.256231904E0
2.604075365E1,-2.218146563E0,-7.824530005E-1,-2.249253243E-1
2.605742032E1,-1.758724689E0,-6.723831892E-1,9.427721500E-1
2.607408698E1,8.444271088E0,2.388036966E0,3.352823257E1
2.609075365E1,-1.610369682E0,1.380658627E0,-1.310309696E1
2.610742032E1,-1.610369682E0,1.380658627E0,-1.310309696E1
2.612408698E1,-3.979264021E0,3.448535919E1,-2.664886665E1
2.614075365E1,1.953739738E1,7.032027435E1,1.902054787E1
2.615742031E1,-1.344766378E0,8.736195564E0,-4.106083870E0
2.617408698E1,1.433300734E0,9.387042999E0,-2.062613010E0
2.619075364E1,1.048056364E0,7.939385414E0,-2.687139750E0
2.620742031E1,1.502692580E0,8.659625053E0,-3.187239647E0
2.622408698E1,2.385644197E0,1.494556999E1,1.507478207E-1
2.624075364E1,2.385644197E0,1.494556999E1,1.507478207E-1
2.625742031E1,7.657032460E-2,1.181097221E1,-1.605584025E0
2.627408698E1,-5.742774159E-2,3.108276606E0,7.776673794E0
2.629075364E1,1.416550994E0,9.516255379E0,-1.469193101E0
2.630742031E1,1.416550994E0,9.516255379E0,-1.469193101E0
2.632408697E1,-5.190032482E0,4.297509670E0,1.483550072E-1
2.634075364E1,-4.094119549E0,2.720639229E0,3.589234129E-2
2.635742030E1,-5.297709465E0,3.158525944E0,9.987641335E0
2.637408697E1,-9.212367058E0,6.939185411E-2,6.611369133E0
2.639075364E1,-9.643074989E0,-1.921436548E0,-3.515056372E0
2.640742030E1,-4.570291042E0,-9.786644578E-1,-5.635097504E0
2.642408697E1,-4.570291042E0,-9.786644578E-1,-5.635097504E0
2.644075364E1,5.647061348E0,7.836493969E0,-8.898907661E0
2.645742030E1,9.712467194E0,1.179661560E1,-8.791230202E0
2.647408697E1,3.191307640E1,5.023970413E1,2.851287460E1
2.649075363E1,-1.649851227E1,4.632743835E1,4.031906128E0
2.650742030E1,3.754338741E0,2.536870575E1,-5.221138954E0
2.652408697E1,7.525427341E0,1.506760406E1,-6.247660160E0
2.654075363E1,7.243073940E0,1.087298584E1,2.201396823E-1
2.655742030E1,2.928814888E0,8.422736168E0,-3.302095234E-1
2.657408696E1,1.825723648E0,7.118647575E0,-2.297109663E-1
2.659075363E1,3.550948858E0,7.496713161E0,3.151347399E0
2.660742030E1,3.065205812E0,5.228317261E0,1.756331801E0
2.662408696E1,4.481756687E0,3.055634499E0,-4.187439680E-1
2.664075363E1,3.306880951E0,2.072184324E0,-2.153540373E0
2.665742029E1,-2.536391914E-1,4.785645381E-2,-3.560520172E0
2.667408696E1,-1.052841991E-1,-2.100898266E0,-2.273181438E0
2.669075363E1,-9.284151793E-1,-3.476771355E0,-3.041277647E0
2.670742029E1,-1.234696507E0,-2.682354212E0,-4.666004181E0
2.672408696E1,-2.222932339E0,-1.435693540E-2,-4.185046673E0
2.674075362E1,-3.768695593E0,2.033899277E-1,-4.656432629E0
2.675742029E1,-3.768695593E0,2.033899277E-1,-4.656432629E0
2.677408696E1,1.356730461E1,3.110669374E0,6.109593964E1
2.679075362E1,1.356730461E1,3.110669374E0,6.109593964E1
2.680742029E1,2.861815929E0,1.081795120E1,-2.845305443E1
2.682408695E1,2.861815929E0,1.081795120E1,-2.845305443E1
2.684075362E1,9.655039787E0,5.612365341E1,2.316491508E1
2.685742029E1,-8.240880966E0,3.102055359E1,-5.568098068E0
2.687408695E1,-1.899901152E0,1.141615677E1,-1.339980721E0
2.689075362E1,-1.366301775E0,6.999006271E0,-2.055434704E0
2.690742028E1,-8.303094506E-1,8.963513374E0,-3.404986620E0
2.692408695E1,-2.033899277E-1,1.550549030E1,-5.419743061E0
2.694075362E1,-1.050449133E0,1.485942841E1,-4.390829563E0
2.695742028E1,-1.452443361E0,1.006899738E1,2.072184324E0
2.697408695E1,-1.024128079E0,7.501499176E0,9.554540634E0
2.699075361E1,-1.196411327E-1,-1.698904037E-1,-1.983649969E0
2.700742028E1,-2.632104978E-2,5.410171986E0,-4.792823792E0
2.702408694E1,-2.632104978E-2,5.410171986E0,-4.792823792E0
2.704075361E1,-7.585247755E-1,5.534598827E0,4.378865361E-1
2.705742028E1,-5.527420044E-1,5.606383324E0,2.392822742E0
2.707408694E1,-5.448457241E0,3.787838221E0,2.175793648E1
2.709075361E1,-4.319045067E0,-1.588834286E0,-5.788238049E0
2.710742028E1,-4.283152580E0,-2.132004976E0,-6.252445698E0
2.712408694E1,-1.007378340E0,-1.531406522E0,-6.838686943E0
2.714075361E1,-1.007378340E0,-1.531406522E0,-6.838686943E0
2.715742027E1,9.248259544E0,1.326341629E1,-5.520241737E0
2.717408694E1,2.960160828E1,3.703610992E1,4.028077698E1
2.719075360E1,-1.404586911E0,4.192704010E1,-5.809773445E0
2.720742027E1,-1.404586911E0,4.192704010E1,-5.809773445E0
2.722408694E1,2.158325911E0,3.099423218E1,-2.079362869E0
2.724075360E1,6.455835342E0,9.585647583E0,-4.969892502E0
2.725742027E1,5.340780258E0,7.511070251E0,2.423929453E0
2.727408694E1,5.340780258E0,7.511070251E0,2.423929453E0
2.729075360E1,3.108276606E0,6.379265308E0,1.172483116E-1
2.730742027E1,2.935993433E0,5.065605640E0,-5.503492355E-1
2.732408693E1,3.491128206E0,2.754138947E0,5.096712112E-1
2.734075360E1,3.491128206E0,2.754138947E0,5.096712112E-1
2.735742027E1,1.074377418E0,4.785645381E-2,-2.806781054E0
2.737408693E1,3.756731451E-1,-3.694518089E0,-3.235096216E0
2.739075360E1,6.604190469E-1,-5.154139996E0,1.138983607E0
2.740742026E1,-5.072783828E-1,-2.928814888E0,-1.107876897E0
2.742408693E1,-6.699903607E-1,-1.627119422E0,-1.127019525E0
2.744075360E1,-1.060020447E0,-7.585247755E-1,-1.840080619E0
2.745742026E1,-6.867401004E-1,-3.110669553E-1,-1.651047617E-1
2.747408693E1,-6.867401004E-1,-3.110669553E-1,-1.651047617E-1
2.749075359E1,1.148554832E-1,-9.379864931E-1,-2.438286304E0
2.750742026E1,-2.467000246E0,4.886143684E0,-1.007617569E1
2.752408693E1,-3.230310678E0,2.433500671E1,-2.613919449E1
2.754075359E1,1.228475189E1,6.670710754E1,2.542134857E1
2.755742026E1,1.384487152E1,6.489096069E1,2.242792702E1
2.757408692E1,-4.383651257E0,1.590987778E1,-8.137989998E0
2.759075359E1,-4.383651257E0,1.590987778E1,-8.137989998E0
2.760742026E1,-1.014556766E0,4.548755646E0,-2.586641312E0
2.762408692E1,5.240281820E-1,7.415357590E0,-5.048855543E-1
2.764075359E1,1.428515077E0,1.460578918E1,4.991427898E0
2.765742025E1,1.428515077E0,1.460578918E1,4.991427898E0
2.767408692E1,-3.206382394E-1,4.785645485E0,7.068397999E0
2.769075359E1,-5.838487148E-1,4.156332970E0,-2.002792597E0
2.770742025E1,-3.933800459E0,5.070391178E0,-1.469193101E0
2.772408692E1,-4.701896667E0,3.830909014E0,-6.819544435E-1
2.774075358E1,-5.651846886E0,4.546362877E0,1.395015621E1
2.775742025E1,-9.454042435E0,4.847858906E0,2.618705177E1
2.777408692E1,-7.958528042E0,1.751546144E0,-4.955535889E0
2.779075358E1,-8.568697929E0,-2.301895380E0,-5.455635786E-1
2.780742025E1,-8.568697929E0,-2.301895380E0,-5.455635786E-1
2.782408691E1,1.732403636E0,-1.165304661E0,-5.644668579E0
2.784075358E1,4.182653904E0,3.500699520E0,-6.549155712E0
2.785742024E1,7.097112179E0,1.104526901E1,-1.074855900E1
2.787408691E1,9.626325607E0,2.455275345E1,1.172483116E-1
2.789075358E1,-9.138189316E0,5.335515976E1,-7.082754970E-1
2.790742024E1,2.199003935E0,3.815834427E1,3.424129248E0
2.792408691E1,6.419943333E0,1.283988667E1,-6.941578388E0
2.794075358E1,5.986842155E0,1.036331463E1,-3.933800459E0
2.795742024E1,3.902693748E0,1.023649502E1,1.292124271E0
2.797408691E1,2.129612207E0,7.740781307E0,9.164510965E-1
2.799075357E1,2.129612207E0,7.740781307E0,9.164510965E-1
2.800742024E1,3.515056372E0,7.834101200E0,2.153540373E0
2.802408690E1,4.204189301E0,5.075176716E0,-4.546362907E-2
2.804075357E1,5.063212872E0,2.543570518E0,2.249253243E-1
2.805742024E1,5.063212872E0,2.543570518E0,2.249253243E-1
2.807408690E1,-1.866401732E-1,-8.470591903E-1,-5.134997368E0
2.809075357E1,8.614161611E-2,-4.666004181E0,1.067198873E0
2.810742024E1,-1.342373490E0,-4.977071285E0,3.756731510E0
2.812408690E1,-1.155733347E0,-1.986042738E0,-2.622533560E0
2.814075357E1,-1.170090318E0,-5.048855543E-1,-1.909472466E0
2.815742023E1,-1.861616015E0,-3.780659735E-1,-4.948357105E0
2.817408690E1,-1.861616015E0,-3.780659735E-1,-4.948357105E0
2.819075356E1,-1.263410330E0,1.205982566E0,-1.825723648E0
2.820742023E1,-3.546163082E0,3.172882795E0,-6.975078106E0
2.822408690E1,-4.125226021E0,1.273460197E1,-1.643869209E1
2.824075356E1,6.910471916E0,4.497310257E1,3.854837179E0
2.825742023E1,-1.966900229E0,4.477688980E1,-2.734996319E0
2.827408690E1,-6.482156754E0,2.386601257E1,-1.255035496E1
2.829075356E1,-2.215753794E0,8.286344528E0,-6.826723099E0
2.830742023E1,-2.215753794E0,8.286344528E0,-6.826723099E0
2.832408689E1,-8.039883971E-1,1.095194912E1,-3.637090325E-1
2.834075356E1,-3.924229145E-1,1.476850128E1,1.502692580E0
2.835742023E1,1.741974831E0,1.808973885E1,-6.482156754E0
2.837408689E1,1.741974831E0,1.808973885E1,-6.482156754E0
2.839075356E1,2.297109663E-1,9.451649189E-1,1.141854954E1
2.840742022E1,-1.698904037E-1,5.324030399E0,-6.967899323E0
2.842408689E1,-1.698904037E-1,5.324030399E0,-6.967899323E0
2.844075356E1,-2.950350285E0,3.637090445E0,3.211168051E0
2.845742022E1,-2.950350285E0,3.637090445E0,3.211168051E0
2.847408689E1,-8.685946465E0,2.354537487E0,1.244746304E1
2.849075355E1,-6.254838467E0,-2.340180635E0,-3.000599623E0
2.849075355E1,-6.254838467E0,-2.340180635E0,-3.000599623E0
2.852408689E1,2.723032236E0,-1.124626637E0,-3.223132133E0
2.854075355E1,2.890529871E0,1.122233868E0,-5.974878311E0
2.855742022E1,2.890529871E0,1.122233868E0,-5.974878311E0
2.857408688E1,2.890529871E0,1.122233868E0,-5.974878311E0
2.859075355E1,-1.737189293E0,6.506324005E1,9.444471359E0
2.860742022E1,2.536391973E0,3.760081482E1,1.476371527E0
2.862408688E1,4.218546391E0,1.694118500E1,-2.502892494E0
2.864075355E1,4.218546391E0,1.694118500E1,-2.502892494E0
2.865742021E1,2.768495798E0,1.152861977E1,1.165304661E0
2.867408688E1,3.383451223E0,9.714859962E0,1.320838094E0
2.869075355E1,3.383451223E0,9.714859962E0,1.320838094E0
2.870742021E1,2.526820660E0,6.707081795E0,3.436093330E0
2.872408688E1,3.273381472E0,5.625525951E0,1.794616938E0
2.874075354E1,4.677968502E0,2.500499725E0,1.361516118E0
2.875742021E1,4.677968502E0,2.500499725E0,1.361516118E0
2.877408688E1,-7.896314561E-2,-1.201196909E0,-6.879364967E0
2.879075354E1,2.105683982E-1,-3.873979807E0,-4.091726780E0
2.880742021E1,4.115654826E-1,-5.290530682E0,6.348158360E0
2.882408687E1,-1.770688742E-1,-2.914458036E0,2.160718918E0
2.884075354E1,-1.770688742E-1,-2.914458036E0,2.160718918E0
2.885742020E1,-1.354337573E0,-6.388836503E-1,-4.630111694E0
2.887408687E1,-2.005185366E0,-4.737788737E-1,-1.203589797E0
2.889075354E1,7.980063438E0,2.359323025E0,2.857987404E1
2.890742020E1,7.980063438E0,2.359323025E0,2.857987404E1
2.892408687E1,-3.529413462E0,4.170690060E0,-1.618505287E1
2.894075354E1,-5.328815937E0,1.876451492E1,-2.381337166E1
2.895742020E1,1.493121386E0,5.890890121E1,1.256949711E1
2.897408687E1,-3.263810158E0,3.538505936E1,-5.989234924E0
2.899075353E1,-3.414557934E0,1.750349808E1,-6.601797581E0
2.900742020E1,-3.369094372E0,6.204588890E0,-7.673782349E0
2.902408686E1,-1.184447169E0,5.903093338E0,-3.536591768E0
2.904075353E1,4.929214716E-1,1.242832088E1,8.614161611E-1
2.905742020E1,8.422735929E-1,1.626401520E1,4.417150497E0
2.907408686E1,7.872386575E-1,1.361037540E1,4.871787071E0
2.909075353E1,1.418943882E0,6.451049805E0,1.624726534E0
2.910742020E1,-6.221339107E-1,7.403393269E0,-1.931007862E0
2.912408686E1,-6.221339107E-1,7.403393269E0,-1.931007862E0
2.914075353E1,-5.666203976E0,2.600998163E0,9.332008660E-2
2.915742019E1,-5.666203976E0,2.600998163E0,9.332008660E-2
2.915742019E1,-5.752345562E0,2.928814888E0,7.549355507E0
2.919075352E1,-9.116654396E0,-9.332008660E-2,-1.048056364E0
2.920742019E1,-1.308634663E1,-2.730210543E0,2.390429735E0
2.922408686E1,-1.308634663E1,-2.730210543E0,2.390429735E0
2.922408686E1,-6.101697683E-1,8.662018180E-1,-4.989035130E0
2.925742019E1,3.299702406E0,6.063412666E0,-1.011685371E1
2.927408686E1,3.299702406E0,6.063412666E0,-1.011685371E1
2.929075352E1,3.299702406E0,6.063412666E0,-1.011685371E1
2.929075352E1,2.389951324E1,6.327580261E1,3.884029770E1
2.932408685E1,5.178068161E0,4.387958145E1,1.215793228E1
2.934075352E1,8.090133667E0,1.546241951E1,-7.783852100E0
2.935742019E1,4.168296814E0,8.432307243E0,-3.177668571E0
2.937408685E1,4.168296814E0,8.432307243E0,-3.177668571E0
2.939075352E1,3.900300860E-1,6.869793892E0,1.057627559E0
2.940742018E1,2.775674164E-1,7.666603565E0,5.108676434E0
2.942408685E1,4.307080805E-1,5.304887772E0,-1.373480201E0
2.944075352E1,2.002792597E0,4.051048756E0,-9.308080077E-1
2.945742018E1,2.002792597E0,4.051048756E0,-9.308080077E-1
2.947408685E1,4.546363056E-1,-6.508477330E-1,-4.742574692E0
2.949075351E1,4.546363056E-1,-6.508477330E-1,-4.742574692E0
2.950742018E1,1.562513232E0,-4.529613495E0,2.895315409E0
2.952408685E1,1.524227977E0,-2.821137905E0,1.897508383E0
2.954075351E1,2.943171859E-1,-1.488335729E0,4.929214716E-1
2.955742018E1,-2.488535494E-1,-4.354937077E-1,-1.117448211E0
2.957408684E1,-8.327022791E-1,-2.608176768E-1,-1.004985452E0
2.959075351E1,3.421736360E-1,5.670989752E-1,6.515655994E0
2.960742018E1,3.421736360E-1,5.670989752E-1,6.515655994E0
2.962408684E1,-1.524227977E0,3.649054527E0,-3.929014683E0
2.964075351E1,-1.706082582E0,5.369493961E0,-4.893322468E0
2.965742017E1,-2.438286304E0,2.860140991E1,-1.650090408E1
2.967408684E1,-2.438286304E0,2.860140991E1,-1.650090408E1
2.969075351E1,-3.251846075E0,2.676611328E1,-5.111069202E0
2.970742017E1,-4.084548473E0,1.441675663E1,-5.481956482E0
2.972408684E1,-4.048655987E0,5.697310925E0,-5.197210789E0
2.974075350E1,-2.124826431E0,4.249652863E0,-3.639483213E0
2.975742017E1,-9.810572863E-2,6.563512325E0,-1.201196909E0
2.977408684E1,6.652047038E-1,1.317488194E1,3.577269793E0
2.979075350E1,1.957328916E0,1.202393341E1,8.901300430E0
2.980742017E1,-3.213560820E0,8.422736168E0,-5.934200287E-1
2.982408683E1,-4.388436794E0,7.025327206E0,-2.914458036E0
2.984075350E1,-3.493520975E0,3.239881754E0,8.733802438E-1
2.985742016E1,-3.321237803E0,2.289931297E0,2.562713146E0
2.987408683E1,-7.913064480E0,2.311466694E0,2.102812576E1
2.987408683E1,-7.913064480E0,2.311466694E0,2.102812576E1
2.990742016E1,-7.917850018E0,2.895315289E-1,-8.059026718E0
2.992408683E1,-5.257031441E0,-1.447657704E0,2.734996319E0
2.994075350E1,2.555534601E0,4.570291340E-1,-4.462614059E0
2.995742016E1,2.799602509E0,7.585247755E-1,-5.312066078E0
2.997408683E1,4.189832687E0,5.082355499E0,-9.253045082E0
2.999075349E1,7.704888821E0,1.393340588E1,-7.307680130E0
3.000742016E1,-1.490728498E0,4.845465851E1,-1.091127157E0
3.002408682E1,-1.778824425E1,5.280959702E1,-4.931607246E0
3.004075349E1,3.704089403E0,3.567219925E1,1.698904037E0
3.005742016E1,3.704089403E0,3.567219925E1,1.698904037E0
3.007408682E1,5.209175110E0,1.049970531E1,8.183453679E-1
3.009075349E1,3.328416348E0,9.686145782E0,7.872386575E-1
3.010742016E1,8.183453679E-1,8.425128937E0,3.146561861E0
3.012408682E1,8.183453679E-1,8.425128937E0,3.146561861E0
3.014075349E1,3.053241730E0,5.541777134E0,-6.388836503E-1
3.015742015E1,3.053241730E0,5.541777134E0,-6.388836503E-1
3.017408682E1,2.878565550E0,1.495514154E0,-2.275574446E0
3.019075349E1,1.004985496E-1,4.785645287E-3,-1.947757602E0
3.020742015E1,-7.657032460E-2,-6.939185858E-1,-1.174875975E0
3.022408682E1,-1.914258152E-1,-1.282552958E0,-5.503492355E-1
3.024075348E1,-4.307080805E-2,-2.356930256E0,-1.160519004E0
3.025742015E1,-6.604190469E-1,-1.811366796E0,-7.728816867E-1
3.027408682E1,-6.604190469E-1,-1.811366796E0,-7.728816867E-1
3.029075348E1,-2.031506538E0,-8.925228715E-1,-4.484149456E0
3.030742015E1,3.732803464E-1,4.019941986E-1,9.408578873E0
3.032408681E1,3.589234129E-2,1.402194023E0,4.527220249E0
3.034075348E1,3.589234129E-2,1.402194023E0,4.527220249E0
3.035742015E1,-1.385444283E0,3.309273720E0,-3.562912941E0
3.037408681E1,-2.684746981E0,1.418465233E1,-7.290930748E0
3.039075348E1,-2.684746981E0,1.418465233E1,-7.290930748E0
3.040742014E1,1.727618027E1,7.395018005E1,9.808179855E0
3.042408681E1,-1.430907965E0,2.101376915E1,-5.280959606E0
3.044075348E1,-2.842673302E0,7.728816986E0,-1.933400750E0
3.045742014E1,-2.842673302E0,7.728816986E0,-1.933400750E0
3.047408681E1,3.302095234E-1,9.437292099E0,1.304088354E0
3.049075347E1,-3.493520916E-1,1.602951813E1,4.599005222E0
3.050742014E1,1.155733347E0,1.297149181E1,1.106919765E1
3.052408681E1,-4.752145767E0,1.034895802E1,-3.811766386E0
3.052408681E1,-4.752145767E0,1.034895802E1,-3.811766386E0
3.055742014E1,-4.177868366E0,3.732803345E0,1.131805062E0
3.057408680E1,-3.646661758E0,2.378465652E0,3.780659676E0
3.059075347E1,-8.269595146E0,-6.101697683E-1,1.851087570E1
3.060742014E1,-8.566305161E0,-2.318645239E0,7.848458290E-1
3.062408680E1,-5.903093338E0,-1.064806104E0,-6.305087566E0
3.064075347E1,-9.068797827E-1,1.404586911E0,-1.761117458E0
3.065742013E1,1.849651933E0,1.981257200E0,-4.797609329E0
3.067408680E1,2.778067112E0,2.459821701E0,-4.974678040E0
3.069075346E1,3.364308596E0,5.637490273E0,-6.317051888E0
3.070742013E1,2.179143524E1,3.826601791E1,2.600519562E1
3.072408680E1,-1.270110226E1,5.611169052E1,-3.421736360E-1
3.074075346E1,-6.896114826E0,6.104569244E1,1.254078388E1
3.075742013E1,4.206582069E0,1.840798378E1,-1.540977836E0
3.077408680E1,2.438286304E0,9.504291534E0,-3.448057413E0
3.079075346E1,2.438286304E0,9.504291534E0,-3.448057413E0
3.080742013E1,3.799802303E0,8.650053978E0,2.031506538E0
3.082408679E1,3.244667530E0,5.539384365E0,3.158525825E-1
3.084075346E1,3.318845034E0,4.914857864E0,-6.340979934E-1
3.085742012E1,3.318845034E0,4.914857864E0,-6.340979934E-1
3.087408679E1,2.526820660E0,1.873580098E0,1.339980721E0
3.089075346E1,2.122433662E0,1.770688742E-1,-2.514856577E0
3.090742012E1,2.122433662E0,1.770688742E-1,-2.514856577E0
3.092408679E1,4.881358147E-1,-5.000999451E0,-2.919243574E0
3.094075346E1,2.167897224E0,-5.749952793E0,5.158925533E0
3.095742012E1,4.091726840E-1,-3.314059258E0,4.924428940E0
3.097408679E1,-3.637090325E-1,-1.179661512E0,-5.623133183E-1
3.099075345E1,-7.752745152E-1,-8.614161611E-1,-3.005385160E0
3.100742012E1,-1.710868239E0,3.589234129E-2,2.026720762E0
3.102408678E1,3.038884699E-1,6.987041831E-1,4.910071850E0
3.104075345E1,-1.170090318E0,3.546163082E0,-1.371087432E0
3.105742012E1,-1.579262972E0,7.915457249E0,-3.732803345E0
3.107408678E1,-3.952943087E0,3.628715515E1,-1.291645622E1
3.109075345E1,9.982855797E0,6.604907990E1,6.017949104E0
3.110742012E1,9.982855797E0,6.604907990E1,6.017949104E0
3.112408678E1,-1.502692580E0,1.510588932E1,-4.043870449E0
3.114075345E1,-1.703689694E0,5.828916073E0,-4.972285271E0
3.115742011E1,-6.771687865E-1,-4.378865361E-1,-4.517649174E0
3.117408678E1,-6.771687865E-1,-4.378865361E-1,-4.517649174E0
3.119075345E1,4.019941986E-1,1.567298794E1,1.214118195E1
3.120742011E1,2.656033039E-1,1.364626789E1,-3.412165165E0
3.122408678E1,-1.921436548E0,6.463014126E0,3.323630571E0
3.124075344E1,-4.761716843E0,4.003192425E0,-3.445664644E-1
3.125742011E1,-4.986642361E0,3.670589924E0,1.734796405E0
3.127408678E1,-4.192225456E0,4.259224415E0,2.663211584E0
3.129075344E1,-5.819344521E0,2.773281336E0,7.087540627E0
3.130742011E1,-6.754938126E0,1.713261008E0,1.708475351E0
3.132408677E1,-7.920242786E0,2.823530734E-1,2.636890650E0
3.134075344E1,-5.276174068E0,-1.249053478E0,-8.398807645E-1
3.135742011E1,-7.657032609E-1,1.265803218E0,-8.417949677E0
3.137408677E1,1.974078655E0,5.558526993E0,-7.168896675E0
3.139075344E1,4.883750916E0,8.415556908E0,-7.776673794E0
3.140742010E1,3.049413109E1,3.952703857E1,2.782613373E1
3.142408677E1,-6.384050846E0,3.571527100E1,-6.037091732E0
3.144075344E1,-6.384050846E0,3.571527100E1,-6.037091732E0
3.145742010E1,2.261217356E0,2.843869781E1,-3.012563705E0
3.147408677E1,5.252245903E0,1.300020504E1,-5.276174068E0
3.149075343E1,4.383651257E0,9.171689034E0,8.614161611E-2
3.150742010E1,2.512463808E0,9.016156197E0,2.392822690E-2
3.152408677E1,2.368894339E0,8.865407944E0,1.543370605E0
3.154075343E1,2.756531715E0,6.683153629E0,1.411765337E0
3.155742010E1,3.086741209E0,3.328416348E0,2.273181528E-1
3.157408676E1,3.921836376E0,6.460621357E-1,-1.028913707E-1
3.159075343E1,2.962314367E0,1.220339537E-1,-2.696711063E0
3.160742010E1,-1.028913707E-1,-2.076970100E0,-6.151947021E0
3.162408676E1,6.963114142E-1,-5.412564754E0,-5.838487148E-1
3.164075343E1,1.725225091E0,-5.245067120E0,7.618747234E0
3.165742009E1,2.775674164E-1,-2.577069998E0,2.256431818E0
3.167408676E1,-1.332802176E0,-6.053841114E-1,-2.045863390E0
3.169075342E1,-2.031506538E0,2.129612118E-1,-1.167697430E0
3.170742009E1,-2.682354212E0,-6.652047038E-1,-8.183453679E-1
3.172408676E1,1.756331801E0,2.517249346E0,2.132962036E1
3.174075342E1,-1.423729420E0,1.473978758E0,-2.210968018E0
3.175742009E1,-3.292523861E0,1.063370419E1,-7.149754047E0
3.177408676E1,-3.783052683E0,2.267917252E1,-1.358883953E1
3.179075342E1,1.595534134E1,6.731488800E1,9.221938133E0
3.180742009E1,-2.249253273E0,2.820180702E1,-4.371686935E0
3.182408675E1,-1.404586911E0,1.144008541E1,-1.914258152E-1
3.184075342E1,-2.868994236E0,8.755337715E0,-4.666004181E-1
3.185742008E1,-1.957328916E0,1.074138069E1,-5.687739372E0
3.187408675E1,-1.962114573E-1,1.677129364E1,5.144568682E-1
3.189075342E1,-1.962114573E-1,1.677129364E1,5.144568682E-1
3.190742008E1,-4.398007870E0,9.829715729E0,3.381058455E0
3.192408675E1,1.258624673E0,8.587840080E0,-1.545763373E0
3.194075342E1,-5.101497650E0,4.582255363E0,1.895115495E0
3.195742008E1,-5.778666496E0,6.429514408E0,-1.033699393E0
3.197408675E1,-5.426921844E0,5.589633465E0,-3.637090325E-1
3.199075341E1,-6.848258495E0,2.366501570E0,2.073141479E1
3.200742008E1,-8.657232285E0,-5.000999570E-1,1.916650891E0
3.202408675E1,-7.381857872E0,-5.216353536E-1,-1.761117458E0
3.204075341E1,-4.271188259E0,-6.963114142E-1,-3.278166950E-1
3.205742008E1,1.351944804E0,6.077769399E-1,-6.034698486E0
3.207408674E1,4.981856823E0,4.374079704E0,-7.996813297E0
3.209075341E1,1.546241951E1,1.473739433E1,-9.116654396E-1
3.210742008E1,4.291048813E1,3.789752579E1,2.442114830E1
3.212408674E1,-3.460021496E0,3.229592896E1,-9.516255379E0
3.214075341E1,-1.452204037E1,5.393422318E1,2.966143036E1
3.215742007E1,4.247260094E0,1.770928001E1,-7.994420528E0
3.217408674E1,5.441278458E0,9.080761909E0,-5.718846321E0
3.219075340E1,2.256431818E0,6.778866768E0,-5.218746185E0
3.220742007E1,-2.287538528E0,5.702096462E0,-1.746760458E-1
3.222408674E1,-2.287538528E0,5.702096462E0,-1.746760458E-1
3.224075340E1,-4.402793646E-1,7.262216568E0,3.950550079E0
3.225742007E1,2.203789711E0,4.431507587E0,4.426721931E-1
3.227408674E1,4.316651821E0,1.715653777E0,-6.795616150E-1
3.229075340E1,3.148954630E0,7.513462901E-1,-3.603590965E0
3.230742007E1,2.273181528E-1,-2.170290232E0,-7.802994728E0
3.232408673E1,1.162911773E0,-5.168497086E0,3.756731451E-1
3.234075340E1,8.685946465E-1,-3.538984776E0,5.840879917E0
3.235742006E1,3.110669367E-2,-2.313859463E0,2.553141832E0
3.237408673E1,-1.787438512E0,-5.000999570E-1,-5.225924492E0
3.239075340E1,-5.458028316E0,-8.374879509E-2,-1.253839016E0
3.240742006E1,-1.261017561E0,4.929214478E0,5.027559662E1
3.242408673E1,-1.548156261E0,-1.751546144E0,3.359523058E0
3.244075340E1,-1.777867198E0,2.088934183E0,-1.046859932E1
3.245742006E1,6.388836503E-1,1.671865273E1,-2.102094650E1
3.247408673E1,8.506484032E0,4.480560303E1,-2.167897224E0
3.249075339E1,1.890808487E1,6.314898300E1,2.434457779E1
3.250742006E1,-1.550549030E0,2.407658195E1,-9.841679573E0
3.252408673E1,1.842473447E-1,1.085862923E1,-4.187439680E-1
3.254075339E1,-4.737788737E-1,8.506484032E0,1.739582062E0
3.255742006E1,3.589234129E-2,9.458827972E0,7.752745152E-1
3.257408672E1,8.781659007E-1,1.310309696E1,-6.747759819E0
3.259075339E1,1.914258152E-1,1.360798264E1,-7.489534616E-1
3.260742006E1,-2.653640270E0,9.028120041E0,6.532405615E-1
3.262408672E1,-1.957328916E0,5.044070244E0,5.967699528E0
3.264075339E1,-1.098305583E0,3.984049797E0,6.778866768E0
3.265742005E1,-1.098305583E0,3.984049797E0,6.778866768E0
3.267408672E1,-3.048455954E0,4.074976921E0,-6.963114142E-1
3.269075338E1,-2.304288149E0,4.029513359E0,7.585247755E-1
3.270742005E1,-5.209175110E0,2.952743053E0,1.473260880E1
3.272408672E1,-8.123632431E0,2.751746178E-1,5.168497086E0
3.274075338E1,-6.776473522E0,4.187439680E-1,-7.901100159E0
3.275742005E1,-4.283152580E0,7.896314859E-1,-6.905686378E0
3.277408672E1,3.948157430E-1,1.720439434E0,-4.130012035E0
3.279075338E1,3.969692707E0,6.604190350E0,-1.049731255E1
3.280742005E1,1.546481228E1,1.743171310E1,-3.883551121E0
3.282408671E1,4.945485687E1,4.504727936E1,3.534677505E1
3.284075338E1,-1.348116302E1,3.176950645E1,-1.155733299E1
3.285742005E1,-9.499505997E0,4.653800583E1,1.766621017E1
3.287408671E1,-9.499505997E0,4.653800583E1,1.766621017E1
3.289075338E1,4.548755646E0,1.087298584E1,-4.345366001E0
3.290742004E1,1.885544300E0,8.824729919E0,-7.609176040E-1
3.292408671E1,1.155733347E0,6.709474564E0,1.988435626E0
3.294075338E1,1.495514154E0,6.838686943E0,3.369094372E0
3.295742004E1,2.232503414E0,6.144768715E0,2.469393015E0
3.297408671E1,3.560520172E0,2.816352367E0,8.614161611E-1
3.299075337E1,3.560520172E0,2.816352367E0,8.614161611E-1
3.300742004E1,8.255237937E-1,6.699903309E-2,-5.479563713E0
3.302408670E1,-7.369893789E-1,-1.773081541E0,-5.359922886E0
3.304075337E1,1.095912814E0,-3.945764542E0,3.321237803E0
3.305742004E1,-3.014956415E-1,-4.213760853E0,2.648854733E0
3.307408670E1,-4.163511395E-1,-2.931207657E0,1.335195065E0
3.309075337E1,-1.887937069E0,-1.454836130E0,-2.409572363E0
3.310742004E1,-3.340380430E0,-1.086341500E0,-9.332008362E-1
3.312408670E1,-3.340380430E0,-1.086341500E0,-9.332008362E-1
3.314075337E1,-3.278167009E0,-6.867401004E-1,-1.342373490E0
3.315742003E1,-3.337987661E0,3.369094372E0,-5.594419479E0
3.317408670E1,-2.720639229E0,1.942254066E1,-1.591705608E1
3.319075336E1,9.123832703E0,5.355376434E1,-3.424129248E0
3.320742003E1,2.154258156E1,6.773841858E1,1.803948975E1
3.322408670E1,-2.467000246E0,1.746521187E1,-7.487142086E0
3.324075336E1,-3.072384357E0,7.685746193E0,-1.191625714E0
3.325742003E1,-1.983649969E0,5.950950146E0,8.350951076E-1
3.327408670E1,-5.479564071E-1,8.597412109E0,-4.165904045E0
3.329075336E1,-7.034898400E-1,1.547916985E1,-4.910071850E0
3.330742003E1,6.987041831E-1,1.322034550E1,5.089533806E0
3.332408669E1,2.734996319E0,1.046620655E1,1.178465176E1
3.334075336E1,-2.873780012E0,8.812766075E0,1.225125194E0
3.335742002E1,-5.486742496E0,5.003392220E0,-1.928615093E0
3.337408669E1,-3.694518089E0,2.864208698E0,2.761317253E0
3.339075336E1,-3.924229145E0,1.641476393E0,4.369294167E0
3.340742002E1,-4.744967461E0,8.662018180E-1,8.803194046E0
3.342408669E1,-5.216353416E0,1.890329838E0,5.154139996E0
3.344075336E1,-8.417949677E0,-8.279166222E-1,2.859423161E0
3.345742002E1,-4.505684853E0,-1.052842021E0,-7.398607731E0
3.347408669E1,-9.140582681E-1,1.050449133E0,-7.133004189E0
3.349075335E1,2.321038008E0,5.199603558E0,-6.845865726E0
3.350742002E1,2.321038008E0,5.199603558E0,-6.845865726E0
3.352408668E1,1.476850128E1,2.323670006E1,5.103890896E0
3.354075335E1,-1.339980662E-1,3.828276825E1,-6.233303070E0
3.355742002E1,-1.141615677E1,5.230231857E1,9.688538551E0
3.357408668E1,-1.141615677E1,5.230231857E1,9.688538551E0
3.359075335E1,2.031506538E0,1.189232826E1,-4.845465660E0
3.360742002E1,2.962314367E0,6.273981094E0,2.596212626E0
3.362408668E1,1.421336651E0,7.293323517E0,-5.790630579E-1
3.364075335E1,1.981257200E0,8.161917686E0,-2.632105052E-1
3.365742001E1,1.983649969E0,8.025527000E0,-6.939185411E-2
3.367408668E1,2.136790514E0,5.410171986E0,3.780659735E-1
3.369075335E1,3.615555048E0,2.797209740E0,8.709874153E-1
3.370742001E1,2.266003132E0,6.987041831E-1,-2.708675146E0
3.372408668E1,8.063812256E-1,-9.140582681E-1,-4.632504463E0
3.374075334E1,9.260223508E-1,-5.812166214E0,-5.838487148E0
3.375742001E1,1.751546144E0,-5.319244862E0,5.417350292E0
3.377408668E1,4.905286431E-1,-2.490928411E0,1.253839016E0
3.379075334E1,4.307080805E-2,-1.464407444E0,-2.512463629E-1
3.380742001E1,-7.585247755E-1,-5.048855543E-1,-1.756331801E0
3.382408667E1,-1.079162955E0,-2.632105052E-1,1.160519004E0
3.384075334E1,-1.079162955E0,-2.632105052E-1,1.160519004E0
3.385742000E1,-1.562513232E0,1.636690736E0,2.758924484E0
3.387408667E1,-4.601397991E0,6.262016773E0,-4.084548473E0
3.389075334E1,-6.958328247E0,3.251845932E1,-1.531167221E1
3.390742000E1,8.059026718E0,6.384050751E1,5.082355499E0
3.392408667E1,1.475653744E1,5.344608688E1,1.034177971E1
3.394075334E1,-1.998006940E0,1.362951756E1,-4.783252239E0
3.395742000E1,-1.998006940E0,1.362951756E1,-4.783252239E0
3.397408667E1,1.268195987E0,7.204789162E0,5.414957523E0
3.399075333E1,1.497906923E0,1.001396275E1,5.735595703E0
3.400742000E1,-2.548356056E0,1.390469265E1,2.691925526E0
3.402408666E1,-2.548356056E0,1.390469265E1,2.691925526E0
3.402408666E1,-4.637290478E0,1.199522018E1,3.419343472E0
3.405742000E1,-4.938786030E0,5.642275810E0,8.877372146E-1
3.407408666E1,-4.977071285E0,5.871986866E0,8.877372146E-1
3.409075333E1,-3.818944931E0,4.342973232E0,1.351944804E0
3.410742000E1,-3.818944931E0,4.342973232E0,1.351944804E0
3.412408666E1,-6.391229153E0,1.540977836E0,1.024606609E1
3.414075333E1,-5.989234924E0,-5.455635786E-1,-9.810572863E-1
3.415741999E1,-4.388436794E0,-1.395015597E0,-9.523434043E-1
3.417408666E1,-2.091326952E0,-9.786644578E-1,-4.462614059E0
3.419075332E1,1.572084427E0,3.507878065E0,-7.125825882E0
3.420741999E1,6.108876228E0,9.140582085E0,-9.360722542E0
3.422408666E1,6.108876228E0,9.140582085E0,-9.360722542E0
3.424075332E1,1.829791451E1,4.544688034E1,1.395015621E1
3.425741999E1,-2.048495483E1,4.850251389E1,7.305287361E0
3.427408666E1,3.409772158E0,2.481596375E1,-2.002792597E0
3.429075332E1,4.500899315E0,1.117208862E1,-3.675375462E0
3.430741999E1,3.773481369E0,8.480163574E0,-1.830509305E0
3.432408665E1,7.417750359E-1,8.030312538E0,1.328016520E0
3.434075332E1,4.929214716E-1,6.585047722E0,2.268395901E0
3.435741998E1,2.136790514E0,6.221338749E0,2.225325108E-1
3.437408665E1,2.390429735E0,5.745167255E0,-6.675975323E-1
3.439075332E1,3.105883837E0,2.888136864E0,7.465606928E-1
3.440741998E1,3.129812002E0,1.026520967E0,-1.371087432E0
3.442408665E1,4.570291340E-1,-5.479564071E-1,-3.933800459E0
3.444075332E1,1.268195957E-1,-3.115455151E0,-4.240081787E0
3.445741998E1,2.167897224E0,-4.558327198E0,6.496513367E0
3.447408665E1,7.489534616E-1,-2.493321180E0,8.279166222E-1
3.449075331E1,-2.895315289E-1,-1.040877819E0,-2.153540373E0
3.450741998E1,-8.039883971E-1,-6.652047038E-1,-3.414557934E0
3.452408665E1,-9.619147182E-1,-6.340979934E-1,7.633104324E-1
3.454075331E1,7.805387497E0,4.867001057E0,3.715814209E1
