"Time (s)","Gyroscope x (rad/s)","Gyroscope y (rad/s)","Gyroscope z (rad/s)"
3.731370200E-2,-1.184466839E0,-1.032896042E0,-6.543888897E-2
5.165375400E-2,-1.270216942E0,-5.432115197E-1,-6.589704007E-2
6.832042000E-2,-1.314199209E0,-2.689332068E-1,-1.179732606E-1
8.498708600E-2,-1.246545911E0,-3.434587121E-1,-1.725693047E-1
1.016537520E-1,-1.186528444E0,-6.150645018E-1,-1.466839015E-1
1.183204180E-1,-1.186528444E0,-6.150645018E-1,-1.466839015E-1
1.349870840E-1,-1.167973399E0,-1.076114655E0,2.401462197E-1
1.516537500E-1,-1.054581642E0,-1.005636096E0,3.849211633E-1
1.683204160E-1,-1.054581642E0,-1.005636096E0,3.849211633E-1
1.849870820E-1,-1.054581642E0,-1.005636096E0,3.849211633E-1
2.016537480E-1,-3.235292733E-1,-8.663589954E-1,6.994401664E-2
2.183204140E-1,-1.826485693E-1,-7.814487815E-1,-1.840230078E-2
2.349870800E-1,-1.771507785E-2,-6.552288532E-1,-5.383246019E-2
2.516537460E-1,-1.771507785E-2,-6.552288532E-1,-5.383246019E-2
2.683204120E-1,-1.771507785E-2,-6.552288532E-1,-5.383246019E-2
2.849870780E-1,-1.771507785E-2,-6.552288532E-1,-5.383246019E-2
3.016537440E-1,-1.771507785E-2,-6.552288532E-1,-5.383246019E-2
3.183204100E-1,-1.771507785E-2,-6.552288532E-1,-5.383246019E-2
3.349870760E-1,7.307469845E-2,-5.014436245E-1,-1.731801629E-1
3.516537420E-1,1.146135032E-1,-4.318050444E-1,-1.466839015E-1
3.683204080E-1,1.146135032E-1,-4.318050444E-1,-1.466839015E-1
3.849870740E-1,1.282816082E-1,-3.713294268E-1,3.226129711E-1
4.016537400E-1,1.282816082E-1,-3.713294268E-1,3.226129711E-1
4.183204060E-1,1.132390574E-1,-4.762454629E-1,3.733147383E-1
4.349870720E-1,1.230128929E-1,-4.185950756E-1,2.968039215E-1
4.516537380E-1,1.164461002E-1,-3.450622559E-1,2.169333547E-1
4.683204040E-1,1.164461002E-1,-3.450622559E-1,2.169333547E-1
4.849870700E-1,1.164461002E-1,-3.450622559E-1,2.169333547E-1
5.016537360E-1,1.164461002E-1,-3.450622559E-1,2.169333547E-1
5.183204020E-1,-1.185077652E-1,-2.966512144E-1,3.708712757E-1
5.349870680E-1,-2.333503515E-1,-4.255436659E-1,3.167333901E-1
5.516537340E-1,-3.765217662E-1,-5.672643185E-1,2.939023077E-1
5.683204000E-1,-3.765217662E-1,-5.672643185E-1,2.939023077E-1
5.849870660E-1,-3.765217662E-1,-5.672643185E-1,2.939023077E-1
6.016537320E-1,-3.765217662E-1,-5.672643185E-1,2.939023077E-1
6.183203980E-1,-3.765217662E-1,-5.672643185E-1,2.939023077E-1
6.349870640E-1,-3.472002745E-1,-1.140026376E-1,8.624647260E-1
6.516537300E-1,-2.797760665E-1,1.278998107E-1,1.267009854E0
6.683203960E-1,-2.797760665E-1,1.278998107E-1,1.267009854E0
6.849870620E-1,-2.797760665E-1,1.278998107E-1,1.267009854E0
7.016537280E-1,-2.797760665E-1,1.278998107E-1,1.267009854E0
7.183203940E-1,-1.361846685E0,2.069839001E0,4.536969185E0
7.349870600E-1,-1.361846685E0,2.069839001E0,4.536969185E0
7.516537260E-1,-1.360777617E0,2.034027100E0,5.890645504E0
7.683203920E-1,-1.055956125E0,1.749745846E0,6.029541016E0
7.849870580E-1,-1.055956125E0,1.749745846E0,6.029541016E0
8.016537240E-1,-1.055956125E0,1.749745846E0,6.029541016E0
8.183203900E-1,-1.307861447E0,1.609475970E0,4.660211086E0
8.349870560E-1,-1.307861447E0,1.609475970E0,4.660211086E0
8.516537220E-1,2.282343507E-1,2.244317293E0,3.331121922E0
8.683203880E-1,2.282343507E-1,2.244317293E0,3.331121922E0
8.849870540E-1,2.282343507E-1,2.244317293E0,3.331121922E0
9.016537200E-1,2.282343507E-1,2.244317293E0,3.331121922E0
9.183203860E-1,2.282343507E-1,2.244317293E0,3.331121922E0
9.349870520E-1,2.282343507E-1,2.244317293E0,3.331121922E0
9.516537180E-1,2.282343507E-1,2.244317293E0,3.331121922E0
9.683203840E-1,-6.973785162E-1,-1.143844277E-1,-4.317668438E0
9.849870500E-1,-6.973785162E-1,-1.143844277E-1,-4.317668438E0
1.001653716E0,-6.973785162E-1,-1.143844277E-1,-4.317668438E0
1.018320382E0,-6.973785162E-1,-1.143844277E-1,-4.317668438E0
1.034987048E0,-6.701186895E-1,2.580140233E-1,3.951531649E-1
1.051653714E0,-1.113606453E0,5.508472919E-1,2.467817307E0
1.068320380E0,-1.357341528E0,9.198096395E-1,4.147695541E0
1.084987046E0,-1.357341528E0,9.198096395E-1,4.147695541E0
1.101653712E0,-1.357341528E0,9.198096395E-1,4.147695541E0
1.118320378E0,-1.357341528E0,9.198096395E-1,4.147695541E0
1.134987044E0,-9.474512935E-1,-3.904953003E-1,5.018177986E0
1.151653710E0,-9.474512935E-1,-3.904953003E-1,5.018177986E0
1.168320376E0,-2.858236313E0,-5.251146555E-1,4.144030094E0
1.184987042E0,-2.858236313E0,-5.251146555E-1,4.144030094E0
1.201653708E0,-2.858236313E0,-5.251146555E-1,4.144030094E0
1.218320374E0,-1.255708933E0,-6.417897940E-1,3.209178209E0
1.234987040E0,-1.255708933E0,-6.417897940E-1,3.209178209E0
1.251653706E0,-1.102000117E0,2.733619884E-2,2.814941168E0
1.268320372E0,-1.102000117E0,2.733619884E-2,2.814941168E0
1.284987038E0,-1.102000117E0,2.733619884E-2,2.814941168E0
1.301653704E0,-1.529223561E0,3.942979336E0,2.260734081E0
1.318320370E0,-1.529223561E0,3.942979336E0,2.260734081E0
1.334987036E0,-3.679696620E-1,3.185049057E0,2.056247234E0
1.351653702E0,-3.679696620E-1,3.185049057E0,2.056247234E0
1.368320368E0,3.111592531E-1,1.568548083E0,1.969122648E0
1.384987034E0,3.111592531E-1,1.568548083E0,1.969122648E0
1.401653700E0,3.111592531E-1,1.568548083E0,1.969122648E0
1.418320366E0,3.111592531E-1,1.568548083E0,1.969122648E0
1.434987032E0,3.111592531E-1,1.568548083E0,1.969122648E0
1.451653698E0,3.111592531E-1,1.568548083E0,1.969122648E0
1.468320364E0,3.111592531E-1,1.568548083E0,1.969122648E0
1.484987030E0,-1.020755053E0,1.122464016E-1,5.904008150E-1
1.501653696E0,-5.839866996E-1,1.105054379E0,1.661857605E0
1.518320362E0,-1.133154154E0,1.959043384E0,1.441946268E0
1.534987028E0,-1.327409148E0,2.040899277E0,1.803578258E0
1.551653694E0,-1.331074357E0,2.015242815E0,2.238513947E0
1.568320360E0,-1.706145287E0,2.362824917E0,3.133430958E0
1.584987026E0,-1.706145287E0,2.362824917E0,3.133430958E0
1.601653692E0,-3.343873739E0,1.535714030E0,2.041204691E0
1.618320358E0,-3.628536701E0,1.097113132E0,1.055879712E0
1.634987024E0,-3.923584461E0,5.259546041E-1,2.412915789E-2
1.651653690E0,-4.392117977E0,8.197805285E-1,1.273653060E-1
1.668320356E0,-4.392117977E0,8.197805285E-1,1.273653060E-1
1.684987022E0,-5.823984623E0,1.228449106E0,1.312443018E0
1.701653688E0,-6.372541428E0,1.080619812E0,1.561675787E0
1.718320354E0,-6.425686836E0,5.949822664E-1,1.266628146E0
1.734987020E0,-6.425686836E0,5.949822664E-1,1.266628146E0
1.751653686E0,-5.962040424E0,-2.919169962E-1,4.437932670E-1
1.768320352E0,-5.962040424E0,-2.919169962E-1,4.437932670E-1
1.784987018E0,-5.962040424E0,-2.919169962E-1,4.437932670E-1
1.801653684E0,-5.857582569E0,-6.688205600E-1,1.163697392E-1
1.818320350E0,-5.629729748E0,-7.696132660E-1,2.544251680E-1
1.834987016E0,-5.629729748E0,-7.696132660E-1,2.544251680E-1
1.851653682E0,-5.629729748E0,-7.696132660E-1,2.544251680E-1
1.868320348E0,-3.707338333E0,-6.999746561E-1,1.725693047E-1
1.884987014E0,-3.412290573E0,-5.497019291E-1,-8.155044913E-2
1.901653680E0,-2.444070101E0,-1.721875072E-1,-3.594939113E-1
1.918320346E0,-2.444070101E0,-1.721875072E-1,-3.594939113E-1
1.934987012E0,-1.257159710E0,-3.657552972E-2,-4.731147587E-1
1.951653678E0,-8.222240210E-1,-3.902662396E-1,-4.279107749E-1
1.968320344E0,-6.481275558E-1,-1.170951366E0,-5.262600183E-1
1.984987010E0,-6.481275558E-1,-1.170951366E0,-5.262600183E-1
2.001653676E0,-1.089171886E0,-4.660134614E-1,-1.090088248E0
2.018320342E0,-1.422704101E0,1.178968996E-1,-1.126740098E0
2.034987008E0,-1.288313866E0,7.330377400E-2,-9.923498631E-1
2.051653674E0,-1.288313866E0,7.330377400E-2,-9.923498631E-1
2.068320340E0,-6.029235125E-1,-3.346775472E-1,-1.021060467E0
2.084987006E0,-9.834922850E-2,-7.812197208E-1,-9.789108038E-1
2.101653672E0,5.265654325E-1,-8.441387415E-1,-6.783653498E-1
2.118320338E0,5.265654325E-1,-8.441387415E-1,-6.783653498E-1
2.134987004E0,9.266818762E-1,-6.902008653E-1,-4.578431547E-1
2.151653670E0,6.969966888E-1,-8.478039503E-1,-4.682278633E-1
2.168320336E0,-1.154534444E-1,-5.173261166E-1,-6.044507027E-1
2.184987002E0,-1.154534444E-1,-5.173261166E-1,-6.044507027E-1
2.201653668E0,-1.188742876E0,5.229766369E-1,-7.577777505E-1
2.218320334E0,-1.407432437E0,7.745765448E-1,-8.487966061E-1
2.234987000E0,-1.384219646E0,8.478803039E-1,-6.918043494E-1
2.251653666E0,-1.384219646E0,8.478803039E-1,-6.918043494E-1
2.268320332E0,-1.378110886E0,1.978590965E0,4.245510325E-2
2.284986998E0,-1.350622058E0,2.863734007E0,6.960803866E-1
2.301653664E0,-1.350622058E0,2.863734007E0,6.960803866E-1
2.318320330E0,-9.999856353E-1,4.359130859E0,1.157283306E0
2.334986996E0,-8.668171167E-1,4.414719582E0,1.017395258E0
2.351653662E0,-3.646862805E-1,4.004218578E0,4.999928176E-1
2.368320328E0,3.078758419E-1,3.238194227E0,-1.139262840E-1
2.384986994E0,3.078758419E-1,3.238194227E0,-1.139262840E-1
2.401653660E0,4.612029195E-1,2.561966896E0,-4.896081090E-1
2.418320326E0,4.612029195E-1,2.561966896E0,-4.896081090E-1
2.434986992E0,-5.009091273E-2,2.524093151E0,1.527161920E-3
2.451653658E0,-5.009091273E-2,2.524093151E0,1.527161920E-3
2.468320324E0,7.825177908E-1,1.386663079E0,4.734202102E-2
2.484986990E0,7.825177908E-1,1.386663079E0,4.734202102E-2
2.501653656E0,1.663995624E0,1.293200731E0,4.865537882E-1
2.518320322E0,1.663995624E0,1.293200731E0,4.865537882E-1
2.534986988E0,1.357341528E0,4.355465770E-1,-1.252272818E-2
2.551653654E0,9.132428169E-1,8.552107215E-2,-2.739728391E-1
2.568320320E0,9.132428169E-1,8.552107215E-2,-2.739728391E-1
2.584986986E0,-1.038470119E-1,5.094612241E-1,-2.269362658E-1
2.601653652E0,-6.230821013E-1,9.932661057E-1,-1.579085439E-1
2.618320318E0,-9.938769937E-1,1.212566614E0,-1.252272818E-2
2.634986984E0,-9.938769937E-1,1.212566614E0,-1.252272818E-2
2.651653650E0,-1.516166329E0,9.040798545E-1,4.187478125E-1
2.668320316E0,-1.455079913E0,1.453858167E-1,6.172788739E-1
2.684986982E0,-1.089171886E0,-1.795178801E-1,5.219839811E-1
2.701653648E0,-7.141009569E-1,-1.996764243E-1,2.098320574E-1
2.718320314E0,-5.693259835E-1,-4.330267608E-1,1.756236255E-1
2.734986980E0,-3.628536761E-1,-3.701077104E-1,4.596757591E-1
2.751653646E0,-1.062904745E-1,-2.729802132E-1,1.050992846E0
2.768320312E0,-1.062904745E-1,-2.729802132E-1,1.050992846E0
2.784986978E0,3.176496923E-1,-1.245400533E-1,1.299003959E0
2.801653644E0,6.420188546E-1,-2.735910714E-1,1.476765633E0
2.818320310E0,9.584468603E-1,-2.821431756E-1,1.757152557E0
2.834986976E0,9.584468603E-1,-2.821431756E-1,1.757152557E0
2.851653642E0,1.233335972E0,-4.873937368E-1,1.753487349E0
2.868320308E0,1.709810495E0,-1.495320678E0,1.366809964E0
2.884986974E0,2.469726324E0,-1.942473650E0,8.347467184E-1
2.901653640E0,2.469726324E0,-1.942473650E0,8.347467184E-1
2.918320306E0,3.306611061E0,-9.602030516E-1,7.883210182E-1
2.934986972E0,3.345706463E0,-4.684569240E-1,1.109635830E0
2.951653638E0,2.671922445E0,-2.778671086E-1,1.699120402E0
2.968320304E0,2.671922445E0,-2.778671086E-1,1.699120402E0
2.984986970E0,1.100167513E0,5.192350745E-1,2.124893188E0
3.001653636E0,1.100167513E0,5.192350745E-1,2.124893188E0
3.018320302E0,7.330377400E-2,3.255909383E-1,1.589775562E0
3.034986968E0,-2.028071135E-1,3.115410358E-2,8.457422853E-1
3.034986968E0,-2.028071135E-1,3.115410358E-2,8.457422853E-1
3.068320300E0,-7.397572398E-1,2.156352699E-1,8.891136646E-1
3.084986966E0,-7.397572398E-1,2.156352699E-1,8.891136646E-1
3.101653632E0,-7.397572398E-1,2.156352699E-1,8.891136646E-1
3.118320298E0,-8.417716622E-1,-2.112828493E-1,1.568395376E0
3.134986964E0,-8.417716622E-1,-2.112828493E-1,1.568395376E0
3.151653630E0,2.302960157E-1,-1.999894977E0,1.173165798E0
3.168320296E0,4.618137777E-1,-1.977903843E0,1.291673541E0
3.184986962E0,7.880155444E-1,-1.420184255E0,1.554345489E0
3.201653628E0,1.059850335E0,-9.259946346E-1,1.911090493E0
3.218320294E0,1.183245063E0,-8.722385764E-1,2.327089310E0
3.234986960E0,1.262046576E0,-1.100701928E0,2.437045097E0
3.251653626E0,1.662773967E0,-1.100091100E0,2.776074886E0
3.268320292E0,2.599840403E0,-2.186132371E-1,3.565312386E0
3.284986958E0,3.173442602E0,9.773836732E-1,3.965428829E0
3.301653624E0,3.060432434E0,1.486233950E0,3.746739149E0
3.318320290E0,2.744004488E0,1.722638726E0,2.724151373E0
3.334986956E0,2.847851515E0,8.258891702E-1,1.857334375E0
3.351653622E0,3.082423687E0,6.114756465E-1,1.711948514E0
3.368320288E0,3.089143276E0,7.599157691E-1,1.859166980E0
3.384986954E0,3.028667688E0,5.296197534E-1,2.221409798E0
3.401653620E0,3.141066790E0,-5.839103460E-1,2.074802160E0
3.418320286E0,2.888168573E0,-1.193553448E0,1.698509574E0
3.434986952E0,2.516152143E0,-1.242422581E0,1.608101487E0
3.451653618E0,1.712864876E0,-1.156901479E0,1.576947451E0
3.468320284E0,1.411097646E0,-6.657662392E-1,1.396131396E0
3.484986950E0,1.343902469E0,-7.139482349E-2,8.396336436E-1
3.501653616E0,1.290146470E0,7.330377400E-2,3.759872615E-1
3.518320282E0,6.469057798E-1,1.246164143E-1,-8.823941946E-1
3.534986948E0,-4.624246359E-1,-1.104901657E-1,-1.543960690E0
3.551653614E0,-8.295543790E-1,1.814268380E-1,-9.263764620E-1
3.568320280E0,-6.640099883E-1,4.221075773E-1,-5.189296007E-1
3.584986946E0,-2.064722925E-1,3.323104382E-1,-4.889972508E-1
3.601653612E0,4.886918236E-3,-1.214857325E-1,-1.110246778E0
3.618320278E0,4.886918236E-3,-1.214857325E-1,-1.110246778E0
3.634986944E0,-1.985310465E-1,5.852084756E-1,-7.889318466E-1
3.651653610E0,-4.294379354E-1,1.060461283E0,-7.339540124E-1
3.668320276E0,-1.125212908E0,1.549763918E0,-5.048797131E-1
3.684986942E0,-1.125212908E0,1.549763918E0,-5.048797131E-1
3.701653608E0,-2.098931313E0,2.340833902E0,-5.256491303E-1
3.718320274E0,-1.451414704E0,1.823431373E0,-8.329141140E-1
3.734986940E0,-1.451414704E0,1.823431373E0,-8.329141140E-1
3.751653606E0,2.158185244E0,-5.038870573E-1,-1.853974611E-1
3.768320272E0,2.982241869E0,-1.159955859E0,-4.550942779E-2
3.784986938E0,1.422704101E0,-1.486157656E0,-1.811214089E-1
3.801653604E0,1.422704101E0,-1.486157656E0,-1.811214089E-1
3.818320270E0,4.587594569E-1,-6.755400896E-1,5.427533388E-1
3.834986936E0,7.776308656E-1,-5.631409883E-1,7.657189965E-1
3.851653602E0,3.597993553E-1,-5.001455545E-2,5.635227561E-1
3.868320268E0,1.710421443E-1,1.743408084E0,1.019838691E0
3.884986934E0,2.712239623E-1,2.811199665E0,1.303279996E0
3.901653600E0,7.904590368E-1,2.197891474E0,2.046702385E0
3.918320266E0,9.932661057E-1,-2.863428742E-2,2.635576010E0
3.934986932E0,9.932661057E-1,-2.863428742E-2,2.635576010E0
3.951653598E0,6.084213257E-1,-1.746386051E0,2.113286734E0
3.968320264E0,4.581485987E-1,-1.844735265E0,1.421176910E0
3.984986930E0,3.976729810E-1,-1.462944746E0,1.034499526E0
4.001653596E0,3.976729810E-1,-1.462944746E0,1.034499526E0
4.018320262E0,-7.525854111E-1,-1.404225379E-1,2.422078848E-1
4.034986928E0,-8.124501705E-1,1.097723961E0,5.403099060E-1
4.051653594E0,-8.124501705E-1,1.097723961E0,5.403099060E-1
4.068320260E0,-5.699368119E-1,-1.911319494E0,2.537226915E0
4.084986926E0,-1.103221774E0,-2.912526846E0,2.299600363E0
4.101653592E0,-1.103221774E0,-2.912526846E0,2.299600363E0
4.118320258E0,-6.969966888E-1,2.272416949E-1,1.740964688E-2
4.134986924E0,-6.969966888E-1,2.272416949E-1,1.740964688E-2
4.151653590E0,1.832594275E-1,-1.037782907E0,5.403099060E-1
4.168320256E0,1.832594275E-1,-1.037782907E0,5.403099060E-1
4.184986922E0,1.673769504E-1,1.310304999E0,1.707672477E0
4.201653588E0,1.673769504E-1,1.310304999E0,1.707672477E0
4.218320254E0,-5.247328281E-1,1.576031089E0,2.076634884E0
4.234986920E0,2.076940238E-1,1.122158647E0,1.449276686E0
4.251653586E0,4.129445851E-1,2.809977904E-2,1.193935156E0
4.268320252E0,4.129445851E-1,2.809977904E-2,1.193935156E0
4.284986918E0,4.129445851E-1,2.809977904E-2,1.193935156E0
4.301653584E0,9.334014058E-1,9.101885557E-2,2.609308958E0
4.318320250E0,9.334014058E-1,9.101885557E-2,2.609308958E0
4.334986916E0,9.334014058E-1,9.101885557E-2,2.609308958E0
4.351653582E0,1.629176378E0,-1.740277410E0,3.025307894E0
4.368320248E0,1.722638726E0,-1.221042395E0,1.578169107E0
4.384986914E0,1.722638726E0,-1.221042395E0,1.578169107E0
4.401653580E0,1.722638726E0,-1.221042395E0,1.578169107E0
4.418320246E0,3.888154328E-1,3.531409264E0,-2.197891474E0
4.434986912E0,1.358410567E-1,3.471162796E0,-2.553109407E0
4.451653578E0,1.716530025E-1,3.432067394E0,-2.794400930E0
4.468320244E0,1.716530025E-1,3.432067394E0,-2.794400930E0
4.484986910E0,1.716530025E-1,3.432067394E0,-2.794400930E0
4.501653576E0,1.716530025E-1,3.432067394E0,-2.794400930E0
4.518320242E0,1.716530025E-1,3.432067394E0,-2.794400930E0
4.534986908E0,1.716530025E-1,3.432067394E0,-2.794400930E0
4.551653574E0,1.716530025E-1,3.432067394E0,-2.794400930E0
4.568320240E0,-9.232457280E-1,-6.297252178E-1,2.829067409E-1
4.584986906E0,-9.232457280E-1,-6.297252178E-1,2.829067409E-1
4.601653572E0,-9.232457280E-1,-6.297252178E-1,2.829067409E-1
4.618320238E0,-9.232457280E-1,-6.297252178E-1,2.829067409E-1
4.634986904E0,-4.968621433E-1,6.096430421E-1,-6.231584549E-1
4.651653570E0,-6.697368622E-1,-7.551816106E-1,1.191949919E-1
4.668320236E0,-1.027245522E0,-2.506301880E0,6.139954329E-1
4.684986902E0,-1.027245522E0,-2.506301880E0,6.139954329E-1
4.701653568E0,-1.027245522E0,-2.506301880E0,6.139954329E-1
4.718320234E0,-1.027245522E0,-2.506301880E0,6.139954329E-1
4.734986900E0,-6.719512492E-2,3.200931549E-1,-7.923679948E-1
4.751653566E0,1.321758628E-1,1.423314959E-1,-1.001741886E0
4.768320232E0,2.245691717E-1,2.097556889E-1,-8.830050230E-1
4.784986898E0,2.245691717E-1,2.097556889E-1,-8.830050230E-1
4.801653564E0,2.245691717E-1,2.097556889E-1,-8.830050230E-1
4.818320230E0,2.245691717E-1,2.097556889E-1,-8.830050230E-1
4.834986896E0,2.245691717E-1,2.097556889E-1,-8.830050230E-1
4.851653562E0,5.754346251E-1,1.630398154E0,-8.424589038E-1
4.868320228E0,5.754346251E-1,1.630398154E0,-8.424589038E-1
4.884986894E0,5.754346251E-1,1.630398154E0,-8.424589038E-1
4.901653560E0,1.921933293E-1,-3.385718167E-1,2.191477455E-2
4.918320226E0,1.921933293E-1,-3.385718167E-1,2.191477455E-2
4.934986892E0,5.231293440E-1,-9.919680357E-1,3.891972303E-1
4.951653558E0,5.231293440E-1,-9.919680357E-1,3.891972303E-1
4.968320224E0,-1.514944583E-1,-2.090302944E0,2.100229502E0
4.984986890E0,-1.514944583E-1,-2.090302944E0,2.100229502E0
5.001653556E0,-1.514944583E-1,-2.090302944E0,2.100229502E0
5.018320222E0,-1.377271056E0,-1.024801970E0,5.851397514E0
5.034986888E0,-1.377271056E0,-1.024801970E0,5.851397514E0
5.051653554E0,-9.592867494E-1,-4.460305691E0,3.408319950E0
5.068320220E0,-9.592867494E-1,-4.460305691E0,3.408319950E0
5.084986886E0,2.135736048E-1,-3.535379842E-2,1.238528371E0
5.101653552E0,2.135736048E-1,-3.535379842E-2,1.238528371E0
5.118320218E0,2.135736048E-1,-3.535379842E-2,1.238528371E0
5.134986884E0,-2.439641207E-1,4.231765866E-1,1.182023361E-1
5.151653550E0,-3.396408260E-1,-3.840048611E-1,-6.468294263E-1
5.168320216E0,-1.924224049E-1,-7.207440734E-1,-8.940005898E-1
5.184986882E0,-1.893680729E-2,-1.031674266E0,-9.504292607E-1
5.201653548E0,-1.893680729E-2,-1.031674266E0,-9.504292607E-1
5.218320214E0,1.036026716E0,1.913839340E0,-5.342012644E-1
5.234986880E0,1.036026716E0,1.913839340E0,-5.342012644E-1
5.251653546E0,-5.153408051E-1,1.995160699E0,-4.154644012E-1
5.268320212E0,-5.153408051E-1,1.995160699E0,-4.154644012E-1
5.284986878E0,-6.593521833E-1,1.294880629E0,-1.029383540E0
5.301653544E0,-6.593521833E-1,1.294880629E0,-1.029383540E0
5.318320210E0,-6.593521833E-1,1.294880629E0,-1.029383540E0
5.334986876E0,-6.593521833E-1,1.294880629E0,-1.029383540E0
5.351653542E0,4.604393244E-2,5.205331445E-1,-6.144536138E-1
5.368320208E0,1.244636998E-2,-3.727802336E-1,-5.437459946E-1
5.384986874E0,-1.634826809E-1,-9.946405888E-1,-5.942950845E-1
5.401653540E0,-1.634826809E-1,-9.946405888E-1,-5.942950845E-1
5.418320206E0,-9.527199864E-1,-2.253327519E-1,5.686387420E-1
5.434986872E0,-9.527199864E-1,-2.253327519E-1,5.686387420E-1
5.451653538E0,5.558869243E-1,3.384190798E-1,8.280271888E-1
5.468320204E0,6.340776682E-1,5.503891706E-1,1.215315461E0
5.484986870E0,5.070177913E-1,5.302306414E-1,1.856341720E0
5.501653536E0,5.070177913E-1,5.302306414E-1,1.856341720E0
5.518320202E0,5.070177913E-1,5.302306414E-1,1.856341720E0
5.534986868E0,2.522871494E-1,-2.172616959E0,3.535609007E0
5.551653534E0,2.522871494E-1,-2.172616959E0,3.535609007E0
5.568320200E0,4.347066581E-1,1.440037370E0,1.147509456E0
5.584986866E0,9.997565746E-1,2.222784281E0,4.910589159E-1
5.601653532E0,9.997565746E-1,2.222784281E0,4.910589159E-1
5.618320198E0,9.997565746E-1,2.222784281E0,4.910589159E-1
5.634986864E0,9.997565746E-1,2.222784281E0,4.910589159E-1
5.651653530E0,1.905516267E0,-2.074649483E-1,7.538834810E-1
5.668320196E0,1.905516267E0,-2.074649483E-1,7.538834810E-1
5.684986862E0,1.296636820E0,1.347414970E0,-1.282052398E-1
5.701653528E0,1.296636820E0,1.347414970E0,-1.282052398E-1
5.718320194E0,1.296636820E0,1.347414970E0,-1.282052398E-1
5.734986860E0,1.296636820E0,1.347414970E0,-1.282052398E-1
5.751653526E0,4.505891204E-1,1.705152631E0,-9.634101391E-1
5.768320192E0,2.926042378E-1,-1.903378248E0,2.542113781E0
5.784986858E0,2.871064469E-2,-2.376798391E0,1.904981852E0
5.801653524E0,-5.827649832E-1,-1.839237452E0,3.576613367E-1
5.818320190E0,-5.827649832E-1,-1.839237452E0,3.576613367E-1
5.834986856E0,-7.641918659E-1,-4.144030094E0,-9.251546860E-1
5.851653522E0,-2.382372618E-1,-7.176362991E0,-5.476402640E-1
5.868320188E0,-8.918625861E-2,-7.202630043E0,4.951058924E-1
5.884986854E0,-8.918625861E-2,-7.202630043E0,4.951058924E-1
5.901653520E0,6.853902936E-1,-6.766472816E0,2.694219112E0
5.918320186E0,1.502727389E0,-1.550909281E0,3.341735840E0
5.934986852E0,2.598618746E0,2.287077665E0,3.649611712E0
5.951653518E0,2.935205221E0,4.492299557E0,3.986198187E0
5.968320184E0,2.838688612E0,4.342637539E0,4.213439941E0
5.984986850E0,2.739728451E0,8.319978118E-1,5.116297722E0
6.001653516E0,2.739728451E0,8.319978118E-1,5.116297722E0
6.018320182E0,4.905244112E-1,-7.073050737E-1,4.273915291E0
6.034986848E0,-2.535088956E-1,-9.156099558E-1,3.242775679E0
6.051653514E0,-1.331685185E0,-2.534325123E-1,4.773908257E-1
6.068320180E0,-1.331685185E0,-2.534325123E-1,4.773908257E-1
6.084986846E0,-1.138041139E0,2.359159708E0,-1.578780055E0
6.101653512E0,-7.018836141E-1,2.645655394E0,-1.683237910E0
6.118320178E0,1.472184062E-1,2.194226265E0,-1.939801097E0
6.134986844E0,1.472184062E-1,2.194226265E0,-1.939801097E0
6.151653510E0,1.472184062E-1,2.194226265E0,-1.939801097E0
6.168320176E0,2.907716334E-1,-1.035950303E0,-1.108414173E0
6.184986842E0,4.294379354E-1,-1.345658779E0,-2.031125426E-1
6.201653508E0,4.294379354E-1,-1.345658779E0,-2.031125426E-1
6.218320174E0,1.265711784E0,2.486219704E-1,8.982766867E-1
6.234986840E0,1.227838159E0,9.028581381E-1,7.455604672E-1
6.251653506E0,4.208858311E-1,2.222936869E0,3.451386094E-2
6.268320172E0,4.208858311E-1,2.222936869E0,3.451386094E-2
6.284986838E0,-4.422661066E-1,2.022573233E0,2.776380479E-1
6.301653504E0,-5.705476999E-1,2.602283955E-1,3.906480372E-1
6.301653504E0,-5.705476999E-1,2.602283955E-1,3.906480372E-1
6.334986836E0,-5.705476999E-1,2.602283955E-1,3.906480372E-1
6.351653502E0,1.026252806E-1,-8.343649507E-1,-5.803215317E-3
6.368320168E0,1.026252806E-1,-8.343649507E-1,-5.803215317E-3
6.384986834E0,8.491020650E-2,2.736674249E-1,-7.788526267E-2
6.401653500E0,8.491020650E-2,2.736674249E-1,-7.788526267E-2
6.418320166E0,8.491020650E-2,2.736674249E-1,-7.788526267E-2
6.434986832E0,-1.795942485E-1,1.404988952E-2,-2.107483521E-2
6.451653498E0,-1.582139730E-1,1.007926911E-1,-6.627883017E-2
6.468320164E0,-1.466075517E-2,1.759290546E-1,-1.010981202E-1
6.484986830E0,6.230820715E-2,2.003636509E-1,-1.114828214E-1
6.501653496E0,1.478292793E-1,3.249800503E-1,-1.298087686E-1
6.518320162E0,1.478292793E-1,3.249800503E-1,-1.298087686E-1
6.534986828E0,1.502727419E-1,7.177661061E-1,-1.634063274E-1
6.551653494E0,1.527161896E-1,8.020654321E-1,-1.615737379E-1
6.568320160E0,1.527161896E-1,8.020654321E-1,-1.615737379E-1
6.584986826E0,1.832594275E-1,9.443969727E-1,-1.212566569E-1
6.601653492E0,1.832594275E-1,9.443969727E-1,-1.212566569E-1
6.618320158E0,2.871064544E-1,9.944878817E-1,-6.414080039E-3
6.634986824E0,2.871064544E-1,9.944878817E-1,-6.414080039E-3
6.651653490E0,2.871064544E-1,9.944878817E-1,-6.414080039E-3
6.668320156E0,2.871064544E-1,9.944878817E-1,-6.414080039E-3
6.684986822E0,2.840521336E-1,2.632827163E-1,-4.856374860E-2
6.701653488E0,2.840521336E-1,2.632827163E-1,-4.856374860E-2
6.718320154E0,1.313359290E-1,2.095266134E-1,2.901607752E-2
6.734986820E0,1.313359290E-1,2.095266134E-1,2.901607752E-2
6.751653486E0,1.539379209E-1,-1.092684343E-1,1.108719558E-1
6.768320152E0,1.539379209E-1,-1.092684343E-1,1.108719558E-1
6.784986818E0,1.539379209E-1,-1.092684343E-1,1.108719558E-1
6.801653484E0,1.539379209E-1,-1.092684343E-1,1.108719558E-1
6.818320150E0,7.672461867E-1,-6.032289471E-3,2.788597643E-1
6.834986816E0,7.672461867E-1,-6.032289471E-3,2.788597643E-1
6.851653482E0,7.916807532E-1,1.188742876E0,3.054323897E-4
6.868320148E0,7.916807532E-1,1.188742876E0,3.054323897E-4
6.884986814E0,2.602283955E-1,1.328019977E0,-2.428187430E-1
6.901653480E0,2.602283955E-1,1.328019977E0,-2.428187430E-1
6.918320146E0,2.602283955E-1,1.328019977E0,-2.428187430E-1
6.934986812E0,1.466075517E-2,-2.130390890E-2,1.432477981E-1
6.951653478E0,-9.285144508E-2,-4.244746566E-1,4.547888339E-1
6.968320144E0,-9.285144508E-2,-4.244746566E-1,4.547888339E-1
6.984986810E0,7.391463965E-2,-4.409680068E-1,6.068941355E-1
7.001653476E0,1.783725172E-1,-3.664425015E-1,5.580250025E-1
7.018320142E0,3.555232882E-1,-2.729802132E-1,5.061014891E-1
7.034986808E0,3.555232882E-1,-2.729802132E-1,5.061014891E-1
7.051653474E0,6.023126841E-1,1.850920320E-1,4.095848203E-1
7.068320140E0,6.536253095E-1,3.909534514E-1,3.436114490E-1
7.084986806E0,6.536253095E-1,3.909534514E-1,3.436114490E-1
7.101653472E0,5.455022454E-1,9.285144806E-1,1.554650813E-1
7.118320138E0,5.455022454E-1,9.285144806E-1,1.554650813E-1
7.134986804E0,-2.993237376E-1,-1.178205460E-1,3.955349326E-1
7.151653470E0,-2.993237376E-1,-1.178205460E-1,3.955349326E-1
7.168320136E0,-2.419024557E-1,-4.983893037E-1,4.193586707E-1
7.184986802E0,-2.419024557E-1,-4.983893037E-1,4.193586707E-1
7.201653468E0,-2.932150960E-1,5.455022454E-1,4.773908257E-1
7.218320134E0,-3.304778337E-1,1.255937934E0,3.930914998E-1
7.234986800E0,-3.304778337E-1,1.255937934E0,3.930914998E-1
7.251653466E0,-3.304778337E-1,1.255937934E0,3.930914998E-1
7.268320132E0,-3.304778337E-1,1.255937934E0,3.930914998E-1
7.284986798E0,-2.511875868E0,2.980409145E0,-8.090903759E-1
7.301653464E0,-2.511875868E0,2.980409145E0,-8.090903759E-1
7.318320130E0,-2.511875868E0,2.980409145E0,-8.090903759E-1
7.334986796E0,-2.249814987E0,1.594967961E0,-1.575725675E0
7.351653462E0,-2.249814987E0,1.594967961E0,-1.575725675E0
7.368320128E0,-1.724471331E0,-9.449314475E-1,-1.900705814E0
7.384986794E0,-1.724471331E0,-9.449314475E-1,-1.900705814E0
7.401653460E0,7.574722916E-2,2.029903650E0,-2.634354353E0
7.418320126E0,7.574722916E-2,2.029903650E0,-2.634354353E0
7.434986792E0,-2.922377110E0,-1.724394917E0,-2.353967428E0
7.451653458E0,-2.922377110E0,-1.724394917E0,-2.353967428E0
7.468320124E0,-2.431852579E0,-4.647917449E-1,-1.194546103E0
7.484986790E0,-1.425758362E0,-4.171442986E-1,-1.633757830E0
7.501653456E0,-1.175914645E0,-2.766453922E-1,-1.711337686E0
7.518320122E0,-1.133154154E0,-6.706531644E-1,-1.393077135E0
7.534986788E0,-1.133154154E0,-6.706531644E-1,-1.393077135E0
7.551653454E0,-1.210123181E0,-1.562515736E0,2.138026757E-3
7.568320120E0,-1.210123181E0,-1.562515736E0,2.138026757E-3
7.584986786E0,-2.278525680E-1,-4.195877314E-1,4.951058924E-1
7.601653452E0,7.483093739E-1,-4.275289774E-1,7.119628787E-1
7.618320118E0,1.969428062E0,6.352993846E-2,1.165224552E0
7.634986784E0,1.969428062E0,6.352993846E-2,1.165224552E0
7.651653450E0,1.969428062E0,6.352993846E-2,1.165224552E0
7.668320116E0,3.901593447E0,-1.141553521E-1,6.991347671E-1
7.684986782E0,3.901593447E0,-1.141553521E-1,6.991347671E-1
7.701653448E0,2.298073292E0,1.488066554E0,-3.161225319E-1
7.718320114E0,2.151465654E0,1.447749496E0,-6.863065958E-1
7.734986780E0,1.786779523E0,2.603505611E0,-1.628870964E0
7.751653446E0,6.701186895E-1,7.053655624E0,-2.447429657E0
7.768320112E0,1.246775031E0,3.392742872E0,-6.881392002E-1
7.784986778E0,6.420188546E-1,9.370665550E-1,9.202677608E-1
7.801653444E0,2.131918073E-1,-2.870301008E-1,3.007592678E0
7.818320110E0,2.131918073E-1,-2.870301008E-1,3.007592678E0
7.834986776E0,1.021976829E0,-1.093982458E0,3.174969673E0
7.851653442E0,1.127045512E0,-1.476994634E0,3.386328936E0
7.868320108E0,1.029918075E0,-2.664515734E0,3.812712431E0
7.884986774E0,9.553925395E-1,-3.251556873E0,3.132209063E0
7.901653440E0,9.553925395E-1,-3.251556873E0,3.132209063E0
7.918320106E0,1.928500056E0,-1.991342783E0,1.421176910E0
7.934986772E0,1.928500056E0,-1.991342783E0,1.421176910E0
7.951653438E0,-3.109301627E-1,1.070235133E0,1.719278932E0
7.968320104E0,-3.109301627E-1,1.070235133E0,1.719278932E0
7.984986770E0,-3.109301627E-1,1.070235133E0,1.719278932E0
8.001653436E0,-2.015853859E-2,2.205221802E-1,5.989528894E-1
8.018320102E0,-2.015853859E-2,2.205221802E-1,5.989528894E-1
8.034986768E0,-1.154534444E-1,1.221729591E-1,-1.252578259E0
8.051653434E0,-1.154534444E-1,1.221729591E-1,-1.252578259E0
8.068320100E0,-3.149618864E0,1.214399219E0,-3.636172533E0
8.084986766E0,-3.149618864E0,1.214399219E0,-3.636172533E0
8.101653432E0,-3.149618864E0,1.214399219E0,-3.636172533E0
8.118320098E0,-3.149618864E0,1.214399219E0,-3.636172533E0
8.134986764E0,-1.290757298E0,4.586372852E0,-4.691746712E0
8.151653430E0,-1.290757298E0,4.586372852E0,-4.691746712E0
8.168320096E0,-8.552106619E-1,3.288896084E0,-3.389994144E0
8.184986762E0,-1.888182998E0,2.371987820E0,-1.830456257E0
8.201653428E0,-5.998691916E-1,9.352339506E-1,-1.365588188E0
8.218320094E0,-5.998691916E-1,9.352339506E-1,-1.365588188E0
8.234986760E0,6.603448391E-1,-1.258305073E0,-4.651735425E-1
8.251653426E0,2.315177470E-1,-9.107230306E-1,-1.420260668E-1
8.268320092E0,2.315177470E-1,-9.107230306E-1,-1.420260668E-1
8.284986758E0,6.047561392E-2,-7.036398649E-1,4.272999167E-1
8.301653424E0,2.113592178E-1,-6.266708970E-1,4.297433794E-1
8.318320090E0,5.320632458E-1,1.545487940E-1,4.877755344E-1
8.334986756E0,4.013381600E-1,7.751874328E-1,8.762855530E-1
8.351653422E0,2.687804960E-2,-1.172096804E-1,1.385135889E0
8.368320088E0,-1.869246215E-1,-8.612430096E-1,1.552512884E0
8.384986754E0,-4.825831577E-2,-2.067090034E0,1.375972867E0
8.401653420E0,-4.825831577E-2,-2.067090034E0,1.375972867E0
8.418320086E0,-4.825831577E-2,-2.067090034E0,1.375972867E0
8.434986752E0,1.719584346E0,-1.966908216E0,-1.786779463E-1
8.451653418E0,1.719584346E0,-1.966908216E0,-1.786779463E-1
8.468320084E0,3.167944670E0,1.948047757E0,-4.184423760E-2
8.484986750E0,3.167944670E0,1.948047757E0,-4.184423760E-2
8.501653416E0,6.536253095E-1,2.083048820E0,1.815184712E0
8.518320082E0,6.536253095E-1,2.083048820E0,1.815184712E0
8.534986748E0,-1.309083223E0,-2.724380493E0,3.819432020E0
8.551653414E0,-1.309083223E0,-2.724380493E0,3.819432020E0
8.568320080E0,5.968148708E-1,-7.164680362E-1,3.298364401E0
8.584986746E0,5.968148708E-1,-7.164680362E-1,3.298364401E0
8.601653412E0,3.586997986E0,-2.417726517E0,1.744324327E0
8.618320078E0,3.586997986E0,-2.417726517E0,1.744324327E0
8.634986744E0,5.522217751E-1,1.838703036E0,3.267210245E0
8.651653410E0,5.522217751E-1,1.838703036E0,3.267210245E0
8.668320076E0,3.286452591E-1,-1.203327298E0,2.148106098E0
8.684986742E0,3.286452591E-1,-1.203327298E0,2.148106098E0
8.701653408E0,3.286452591E-1,-1.203327298E0,2.148106098E0
8.718320074E0,-5.894845128E-1,-3.474293277E-2,-1.215315461E0
8.734986740E0,-5.894845128E-1,-3.474293277E-2,-1.215315461E0
8.751653406E0,-5.894845128E-1,-3.474293277E-2,-1.215315461E0
8.768320072E0,-3.497200966E0,-6.077340841E-1,-3.012479544E0
8.784986738E0,-3.877769709E0,-1.407356143E0,-2.974606037E0
8.801653404E0,-3.877769709E0,-1.407356143E0,-2.974606037E0
8.818320070E0,-3.297448158E0,1.546098709E0,-4.102262497E0
8.834986736E0,-3.297448158E0,1.546098709E0,-4.102262497E0
8.851653402E0,-6.866120100E-1,5.008480549E0,-4.926319122E0
8.868320068E0,-6.866120100E-1,5.008480549E0,-4.926319122E0
8.884986734E0,-1.580918074E0,8.167262077E-1,-2.871980667E0
8.901653400E0,-8.301652074E-1,7.776308656E-1,-2.762025118E0
8.918320066E0,-2.474002391E-1,-2.130390890E-2,-1.920253396E0
8.934986732E0,-2.474002391E-1,-2.130390890E-2,-1.920253396E0
8.951653398E0,-5.497782957E-3,-9.980766773E-1,-2.764163017E-1
8.968320064E0,1.631008983E-1,-7.635046244E-1,3.784307241E-1
8.984986730E0,7.593049407E-1,-7.268527150E-1,6.197223067E-1
9.001653396E0,7.593049407E-1,-7.268527150E-1,6.197223067E-1
9.018320062E0,1.768453479E0,-5.429824591E-1,1.008843184E0
9.034986728E0,2.161239624E0,-6.804270148E-1,1.276401997E0
9.051653394E0,2.059836149E0,-4.751764536E-1,1.774256706E0
9.068320060E0,2.059836149E0,-4.751764536E-1,1.774256706E0
9.084986726E0,2.059836149E0,-4.751764536E-1,1.774256706E0
9.101653392E0,1.394604325E0,1.331074357E0,1.603825450E0
9.118320058E0,1.514944673E0,-3.171533585E0,2.330449075E-1
9.134986724E0,1.127045512E0,-6.098797798E0,-8.933897614E-1
9.151653390E0,1.174692988E0,-3.290652275E0,-1.359479547E0
9.168320056E0,9.315688014E-1,6.122087002E0,-2.082743406E0
9.184986722E0,9.315688014E-1,6.122087002E0,-2.082743406E0
9.201653388E0,9.315688014E-1,6.122087002E0,-2.082743406E0
9.218320054E0,-1.320078731E0,-2.629085541E0,1.718057156E0
9.234986720E0,-1.320078731E0,-2.629085541E0,1.718057156E0
9.251653386E0,-1.987753987E0,-1.867948174E0,2.498131514E0
9.268320052E0,-1.987753987E0,-1.867948174E0,2.498131514E0
9.284986718E0,-1.563813806E0,-9.797507524E-1,2.587928534E0
9.301653384E0,-1.563813806E0,-9.797507524E-1,2.587928534E0
9.318320050E0,2.189339399E0,9.957095981E-2,3.627009630E0
9.334986716E0,2.189339399E0,9.957095981E-2,3.627009630E0
9.351653382E0,3.414734125E0,-2.417115688E0,2.917795658E0
9.368320048E0,4.755582333E0,-5.148902893E0,3.049131632E0
9.384986714E0,6.003579140E0,4.789790630E0,3.647778988E0
9.401653380E0,1.320078731E0,6.612000465E0,4.347218990E0
9.418320046E0,-6.267472506E-1,-2.295553446E0,2.473086119E0
9.434986712E0,-6.267472506E-1,-2.295553446E0,2.473086119E0
9.451653378E0,-6.267472506E-1,-2.295553446E0,2.473086119E0
9.468320044E0,-3.145953715E-1,5.772672296E-1,-4.010327160E-1
9.484986710E0,-1.234557748E0,8.686497211E-1,-1.360701323E0
9.501653376E0,-1.756236196E0,-1.108643174E0,-2.329532862E0
9.518320042E0,-1.756236196E0,-1.108643174E0,-2.329532862E0
9.534986708E0,-3.377471447E0,-1.517922640E0,-3.077231407E0
9.551653374E0,-3.504531145E0,-9.430988431E-1,-3.755291224E0
9.568320040E0,-4.174038887E0,1.954767294E-2,-4.972744942E0
9.584986706E0,-4.174038887E0,1.954767294E-2,-4.972744942E0
9.601653372E0,-3.859443665E0,9.547205925E0,-7.507222652E0
9.618320038E0,-3.859443665E0,9.547205925E0,-7.507222652E0
9.634986704E0,-1.648724079E0,2.231488943E0,-3.308138132E0
9.651653370E0,-1.648724079E0,2.231488943E0,-3.308138132E0
9.668320036E0,-1.090393662E0,6.389645338E-1,-3.535990715E0
9.684986702E0,-1.026252866E0,-3.975966275E-1,-2.638019562E0
9.701653368E0,-9.969313145E-1,-2.320522517E-1,-1.448054910E0
9.718320034E0,-9.969313145E-1,-2.320522517E-1,-1.448054910E0
9.734986700E0,-6.731730103E-1,-8.746820092E-1,3.448331654E-1
9.751653366E0,-3.610210717E-1,-1.555185318E0,1.423009515E0
9.768320032E0,-3.610210717E-1,-1.555185318E0,1.423009515E0
9.784986698E0,7.428115606E-1,2.504545450E-1,1.649029493E0
9.801653364E0,1.017700672E0,7.874047160E-1,1.572060466E0
9.818320030E0,1.337793827E0,1.511279464E0,1.664301038E0
9.834986696E0,1.337793827E0,1.511279464E0,1.664301038E0
9.851653362E0,1.337793827E0,1.511279464E0,1.664301038E0
9.868320028E0,1.337793827E0,1.511279464E0,1.664301038E0
9.884986694E0,6.829468012E-1,-2.349309683E0,1.639255643E0
9.901653360E0,6.829468012E-1,-2.349309683E0,1.639255643E0
9.918320026E0,6.829468012E-1,-2.349309683E0,1.639255643E0
9.934986692E0,8.258891702E-1,-2.692615509E0,3.637699783E-1
9.951653358E0,8.258891702E-1,-2.692615509E0,3.637699783E-1
9.968320024E0,2.679252863E0,4.212523460E0,3.985892832E-1
9.984986690E0,2.679252863E0,4.212523460E0,3.985892832E-1
1.000165336E1,-1.566868186E0,4.510625362E0,1.747989535E0
1.001832002E1,-1.566868186E0,4.510625362E0,1.747989535E0
1.003498669E1,-3.878991306E-1,-1.944306254E0,4.846295834E0
1.005165335E1,-1.299309373E0,-2.812345028E0,4.408916473E0
1.006832002E1,-1.571755052E0,-5.006571293E0,2.944062710E0
1.008498669E1,-1.571755052E0,-5.006571293E0,2.944062710E0
1.010165335E1,4.340805054E0,1.717751741E0,2.807839870E0
1.011832002E1,5.580860615E0,1.988364816E0,3.378387690E0
1.013498668E1,-3.451386094E-1,2.023795128E0,3.510334492E0
1.015165335E1,-3.451386094E-1,2.023795128E0,3.510334492E0
1.016832002E1,-3.451386094E-1,2.023795128E0,3.510334492E0
1.018498668E1,1.045189619E0,-2.940626621E0,1.365282834E-1
1.020165335E1,7.867938280E-1,-1.593593508E-1,-1.065042734E0
1.021832001E1,7.867938280E-1,-1.593593508E-1,-1.065042734E0
1.023498668E1,7.867938280E-1,-1.593593508E-1,-1.065042734E0
1.025165335E1,-3.200320482E0,1.770286083E0,-2.161545038E0
1.026832001E1,-3.200320482E0,1.770286083E0,-2.161545038E0
1.028498668E1,-3.200320482E0,1.770286083E0,-2.161545038E0
1.030165334E1,-4.125780582E0,-2.516686440E0,-4.058279991E0
1.031832001E1,-4.991375923E0,-2.940626621E0,-4.207942009E0
1.033498668E1,-8.491020203E-1,8.878308296E0,-6.918349266E0
1.035165334E1,-8.491020203E-1,8.878308296E0,-6.918349266E0
1.036832001E1,-1.155756116E0,1.065348148E0,-3.443139315E0
1.038498667E1,-1.417817116E0,-5.869646668E-1,-2.582430840E0
1.040165334E1,-5.051851869E-1,-5.600866675E-1,-1.046105981E0
1.041832001E1,-5.051851869E-1,-5.600866675E-1,-1.046105981E0
1.043498667E1,-1.521053314E-1,-1.799531341E0,2.409861535E-1
1.045165334E1,-1.521053314E-1,-1.799531341E0,2.409861535E-1
1.046832000E1,-1.521053314E-1,-1.799531341E0,2.409861535E-1
1.048498667E1,-1.521053314E-1,-1.799531341E0,2.409861535E-1
1.050165334E1,-1.521053314E-1,-1.799531341E0,2.409861535E-1
1.051832000E1,1.188132048E0,3.093419313E0,-9.037744403E-1
1.053498667E1,1.188132048E0,3.093419313E0,-9.037744403E-1
1.055165333E1,-1.067791581E0,-4.519711971E0,1.810908675E0
1.056832000E1,-1.067791581E0,-4.519711971E0,1.810908675E0
1.058498667E1,1.803883672E0,-5.475715637E0,4.581485875E-3
1.060165333E1,1.803883672E0,-5.475715637E0,4.581485875E-3
1.061832000E1,1.803883672E0,-5.475715637E0,4.581485875E-3
1.063498666E1,5.092168808E0,1.086850643E1,-3.656025827E-1
1.065165333E1,1.751349330E0,6.967523575E0,1.336877584E0
1.066832000E1,-4.015825272E0,2.801425934E0,2.662454128E0
1.068498666E1,-4.015825272E0,2.801425934E0,2.662454128E0
1.070165333E1,6.304124594E-1,-4.831253052E0,3.639226913E0
1.071831999E1,-1.560148597E0,-4.834918499E0,5.329489708E0
1.073498666E1,-3.469711840E-1,-5.042001724E0,5.236638546E0
1.075165333E1,-3.469711840E-1,-5.042001724E0,5.236638546E0
1.076831999E1,3.266294003E0,-2.580827236E0,4.011243343E0
1.078498666E1,3.952905893E0,-7.335722446E-1,3.020420790E0
1.080165332E1,3.922973633E0,2.624275208E0,2.228129387E0
1.081831999E1,3.922973633E0,2.624275208E0,2.228129387E0
1.083498666E1,5.656607747E-1,2.807534456E0,2.921460867E0
1.085165332E1,6.676751971E-1,-4.287507236E-1,1.842673659E0
1.086831999E1,9.938769937E-1,-1.080467105E-1,4.761691093E-1
1.088498665E1,9.938769937E-1,-1.080467105E-1,4.761691093E-1
1.090165332E1,9.938769937E-1,-1.080467105E-1,4.761691093E-1
1.091831999E1,-2.285856009E0,4.575377107E-1,-1.250134826E0
1.093498665E1,-2.285856009E0,4.575377107E-1,-1.250134826E0
1.095165332E1,-2.285856009E0,4.575377107E-1,-1.250134826E0
1.096831998E1,-4.825831890E0,-3.672442675E0,-4.655095100E0
1.098498665E1,-5.986474991E0,3.192990303E0,-9.763756752E0
1.100165332E1,-5.986474991E0,3.192990303E0,-9.763756752E0
1.101831998E1,3.628536761E-1,5.099499226E0,-6.493186951E0
1.103498665E1,6.908880472E-1,3.016450167E0,-4.529867649E0
1.105165331E1,-7.586940527E-1,1.101389170E0,-1.208595991E0
1.106831998E1,-7.586940527E-1,1.101389170E0,-1.208595991E0
1.108498665E1,1.057406902E0,-2.366413832E0,3.851502538E-1
1.110165331E1,1.110552192E0,-1.509981394E0,3.570504785E-1
1.111831998E1,9.975422025E-1,4.948004708E-2,2.360992432E-1
1.113498664E1,9.975422025E-1,4.948004708E-2,2.360992432E-1
1.115165331E1,9.975422025E-1,4.948004708E-2,2.360992432E-1
1.116831998E1,-1.940717459E0,-9.119447470E-1,2.291659117E0
1.118498664E1,-1.940717459E0,-9.119447470E-1,2.291659117E0
1.120165331E1,-3.616319597E-1,-3.368232012E0,2.436434269E0
1.121831997E1,-3.616319597E-1,-3.368232012E0,2.436434269E0
1.123498664E1,2.441626549E0,-4.061487317E-1,4.444041252E-1
1.125165331E1,2.747058868E0,-4.892263412E-1,2.104429156E-1
1.126831997E1,3.541183233E0,3.081812859E0,-9.376774728E-2
1.128498664E1,4.033540249E0,4.875311852E0,-2.611446977E-1
1.130165330E1,2.223547697E0,3.276067734E0,2.916879356E-1
1.131831997E1,-9.248492718E-1,9.395100474E-1,1.319162488E0
1.133498664E1,1.769675255E0,9.217949510E-1,8.622356653E-1
1.135165330E1,1.142317131E-1,1.912006736E-1,2.242789984E0
1.136831997E1,-1.634063244E0,-1.729892731E0,3.819432020E0
1.138498663E1,-1.634063244E0,-1.729892731E0,3.819432020E0
1.140165330E1,-1.634063244E0,-1.729892731E0,3.819432020E0
1.141831997E1,-2.718348205E-1,-4.879511356E0,4.396088600E0
1.143498663E1,-2.718348205E-1,-4.879511356E0,4.396088600E0
1.145165330E1,4.958389282E0,-8.960622549E-1,2.237903118E0
1.146831996E1,4.958389282E0,-8.960622549E-1,2.237903118E0
1.148498663E1,3.291339397E0,4.174038887E0,3.036914349E0
1.150165330E1,7.061597109E-1,2.645044565E0,2.991099358E0
1.151831996E1,1.788001180E0,7.580831647E-1,1.489593744E0
1.153498663E1,1.788001180E0,7.580831647E-1,1.489593744E0
1.155165329E1,1.788001180E0,7.580831647E-1,1.489593744E0
1.156831996E1,-2.760498047E0,6.475166678E-1,-1.853058338E0
1.158498663E1,-2.760498047E0,6.475166678E-1,-1.853058338E0
1.160165329E1,-4.046368122E0,-2.185597897E0,-3.452913284E0
1.161831996E1,-4.539336205E0,-3.321806431E0,-4.172512054E0
1.163498662E1,-5.412872791E0,-4.171442986E-1,-8.133970261E0
1.165165329E1,-5.401266575E0,8.181922913E0,-1.116385937E1
1.166831996E1,-5.401266575E0,8.181922913E0,-1.116385937E1
1.168498662E1,7.648026943E-1,3.734216452E0,-4.780322552E0
1.170165329E1,7.648026943E-1,3.734216452E0,-4.780322552E0
1.171831995E1,-4.532616735E-1,2.296851575E-1,-7.913753390E-1
1.173498662E1,-4.532616735E-1,2.296851575E-1,-7.913753390E-1
1.175165329E1,5.400044918E-1,-2.640691996E0,-1.725693047E-1
1.176831995E1,5.400044918E-1,-2.640691996E0,-1.725693047E-1
1.178498662E1,6.017017961E-1,4.599811733E-1,-1.047633067E-1
1.180165328E1,6.017017961E-1,4.599811733E-1,-1.047633067E-1
1.181831995E1,7.880155444E-1,1.401323795E0,-1.985310577E-2
1.183498662E1,7.880155444E-1,1.401323795E0,-1.985310577E-2
1.185165328E1,-1.406210780E0,-3.352349520E0,1.980118155E0
1.186831995E1,-1.406210780E0,-3.352349520E0,1.980118155E0
1.188498661E1,4.807505906E-1,-3.929616690E0,1.245247841E0
1.190165328E1,1.591302752E0,-3.163592339E0,2.293797284E-1
1.191831995E1,1.638339281E0,-2.994382858E0,5.192350596E-3
1.193498661E1,2.288910389E0,-1.168507934E0,-1.615737379E-1
1.195165328E1,3.971231937E0,4.754971504E0,-1.024114847E0
1.196831994E1,3.971231937E0,4.754971504E0,-1.024114847E0
1.198498661E1,3.971231937E0,4.754971504E0,-1.024114847E0
1.200165328E1,1.416595459E0,2.500880480E0,2.842048407E0
1.201831994E1,1.416595459E0,2.500880480E0,2.842048407E0
1.203498661E1,9.914335608E-1,-2.839223146E0,3.250106096E0
1.205165327E1,9.914335608E-1,-2.839223146E0,3.250106096E0
1.206831994E1,6.395754218E-1,-3.409770727E0,3.584859848E0
1.208498661E1,2.249204159E0,-2.468428135E0,3.692372084E0
1.210165327E1,2.489274025E0,1.835648656E0,3.634340048E0
1.211831994E1,2.489274025E0,1.835648656E0,3.634340048E0
1.213498660E1,7.440332770E-1,1.478292793E-1,3.318522930E0
1.215165327E1,1.567479014E0,-1.842291832E0,2.601367712E0
1.216831994E1,1.567479014E0,-1.842291832E0,2.601367712E0
1.218498660E1,1.567479014E0,-1.842291832E0,2.601367712E0
1.220165327E1,1.567479014E0,-1.842291832E0,2.601367712E0
1.221831993E1,-1.171638608E0,3.743379354E0,-3.252854943E-1
1.223498660E1,-1.171638608E0,3.743379354E0,-3.252854943E-1
1.225165327E1,-1.171638608E0,3.743379354E0,-3.252854943E-1
1.226831993E1,-4.192975998E0,-3.196578979E0,-3.209178209E0
1.228498660E1,-4.963276386E0,-4.289416313E0,-4.614167213E0
1.230165326E1,-4.963276386E0,-4.289416313E0,-4.614167213E0
1.231831993E1,-4.963276386E0,-4.289416313E0,-4.614167213E0
1.233498660E1,-1.088561058E0,9.078061104E0,-7.400321484E0
1.235165326E1,-1.088561058E0,9.078061104E0,-7.400321484E0
1.236831993E1,-1.088561058E0,9.078061104E0,-7.400321484E0
1.238498659E1,-1.088561058E0,9.078061104E0,-7.400321484E0
1.240165326E1,4.740310609E-1,-2.201480389E0,-2.299905866E-1
1.241831993E1,4.740310609E-1,-2.201480389E0,-2.299905866E-1
1.241831993E1,9.590576887E-1,-2.255236387E0,-1.023198515E-1
1.245165326E1,9.590576887E-1,-2.255236387E0,-1.023198515E-1
1.246831992E1,1.138651967E0,1.338404775E0,-6.349939108E-1
1.248498659E1,3.231474757E-1,1.375667453E0,-2.257145345E-1
1.250165326E1,-1.685986757E0,-1.123304009E0,1.757763386E0
1.251831992E1,-1.310304999E0,-2.374355078E0,2.228740215E0
1.253498659E1,-1.310304999E0,-2.374355078E0,2.228740215E0
1.255165325E1,1.341459036E0,-1.736001372E0,9.782999158E-1
1.256831992E1,1.341459036E0,-1.736001372E0,9.782999158E-1
1.258498659E1,1.863137603E0,-1.527696490E0,1.334739476E-1
1.260165325E1,1.863137603E0,-1.527696490E0,1.334739476E-1
1.261831992E1,1.704312682E0,4.320035934E0,-1.792888194E-1
1.263498658E1,1.704312682E0,4.320035934E0,-1.792888194E-1
1.265165325E1,6.719512399E-3,2.056781769E0,2.145662546E0
1.266831992E1,5.736020207E-1,-3.255222082E0,3.072344303E0
1.268498658E1,-3.170388341E-1,-4.960756302E0,4.297128201E0
1.270165325E1,-3.170388341E-1,-4.960756302E0,4.297128201E0
1.271831991E1,3.469711840E-1,-3.863643408E0,4.115701675E0
1.273498658E1,2.032347202E0,3.035998046E-1,3.102887630E0
1.275165325E1,2.663370371E0,8.234457374E-1,2.686277866E0
1.276831991E1,2.663370371E0,8.234457374E-1,2.686277866E0
1.278498658E1,2.789208651E0,9.334014058E-1,3.383885384E0
1.280165324E1,1.102610946E0,-3.450622559E-1,3.702146053E0
1.281831991E1,1.144149780E0,-3.158094645E0,3.074177027E0
1.283498658E1,1.144149780E0,-3.158094645E0,3.074177027E0
1.285165324E1,1.467297196E0,4.119060993E0,7.162389755E-1
1.286831991E1,5.522217751E-1,4.229627609E0,-4.034761786E-1
1.288498657E1,-1.056796074E0,3.017061234E0,-8.744529486E-1
1.290165324E1,-1.056796074E0,3.017061234E0,-8.744529486E-1
1.291831991E1,-3.368308306E0,-1.368871570E0,-2.171318769E0
1.293498657E1,-5.009702206E0,-4.905778885E0,-3.504836559E0
1.295165324E1,-5.009702206E0,-4.905778885E0,-3.504836559E0
1.296831990E1,-7.057931900E0,7.443998337E0,-1.324935150E1
1.298498657E1,-6.415301800E0,1.021182632E1,-1.123838520E1
1.300165324E1,7.208204269E-1,8.089682579E0,-5.243357658E0
1.301831990E1,7.208204269E-1,8.089682579E0,-5.243357658E0
1.303498657E1,7.208204269E-1,8.089682579E0,-5.243357658E0
1.305165323E1,-1.050687432E-1,-2.128787279E0,-3.332267404E-1
1.306831990E1,-1.050687432E-1,-2.128787279E0,-3.332267404E-1
1.308498657E1,-1.050687432E-1,-2.128787279E0,-3.332267404E-1
1.310165323E1,-1.050687432E-1,-2.128787279E0,-3.332267404E-1
1.311831990E1,1.373834848E0,1.847255111E0,4.199695289E-1
1.313498656E1,1.032972336E0,1.693317175E0,7.223476171E-1
1.315165323E1,1.032972336E0,1.693317175E0,7.223476171E-1
1.316831990E1,-1.709199667E0,-7.665589452E-1,2.516457558E0
1.318498656E1,-1.709199667E0,-7.665589452E-1,2.516457558E0
1.320165323E1,3.787361458E-2,-2.029216528E0,1.432783365E0
1.321831989E1,3.787361458E-2,-2.029216528E0,1.432783365E0
1.323498656E1,1.450192928E0,-1.359708667E0,5.018253922E-1
1.325165323E1,3.166112185E0,-9.095013142E-1,-5.467239767E-2
1.326831989E1,3.065319538E0,3.555232882E-1,-4.236347377E-1
1.328498656E1,3.065319538E0,3.555232882E-1,-4.236347377E-1
1.330165322E1,3.065319538E0,3.555232882E-1,-4.236347377E-1
1.331831989E1,-3.292561173E-1,-1.822133303E0,3.559203625E0
1.333498656E1,-3.292561173E-1,-1.822133303E0,3.559203625E0
1.335165322E1,7.330377400E-2,-3.524002552E0,3.904953003E0
1.336831989E1,4.538725317E-1,-2.782412767E0,3.887238026E0
1.338498655E1,9.388991594E-1,-2.002338409E0,3.244608164E0
1.340165322E1,9.388991594E-1,-2.002338409E0,3.244608164E0
1.341831989E1,3.120908260E0,9.737184644E-1,1.770591617E0
1.343498655E1,2.997513533E0,1.999360442E0,2.016770124E0
1.345165322E1,2.997513533E0,1.999360442E0,2.016770124E0
1.346831988E1,3.164279461E-1,-8.282563090E-1,2.554331064E0
1.348498655E1,3.164279461E-1,-8.282563090E-1,2.554331064E0
1.350165322E1,1.917504549E0,-1.937586665E0,1.565340996E0
1.351831988E1,1.917504549E0,-1.937586665E0,1.565340996E0
1.353498655E1,-1.710421406E-2,3.743379354E0,-4.340194166E-1
1.355165321E1,-1.710421406E-2,3.743379354E0,-4.340194166E-1
1.356831988E1,-2.576627731E0,-8.727730811E-2,-1.692400813E0
1.358498655E1,-2.576627731E0,-8.727730811E-2,-1.692400813E0
1.360165321E1,-5.684096813E0,-5.092092514E0,-4.881725788E0
1.361831988E1,-5.684096813E0,-5.092092514E0,-4.881725788E0
1.363498654E1,-4.987710953E0,9.225279808E0,-1.010767365E1
1.365165321E1,1.252272844E0,6.520981312E0,-5.062541962E0
1.366831988E1,2.472169876E0,9.315688014E-1,-3.201847792E0
1.368498654E1,2.472169876E0,9.315688014E-1,-3.201847792E0
1.370165321E1,-3.109301627E-1,-1.021900415E0,-1.499672979E-1
1.371831987E1,3.878991306E-1,-2.330983639E0,1.805105358E-1
1.373498654E1,1.133154154E0,-8.184824586E-1,7.483093441E-2
1.375165321E1,1.133154154E0,-8.184824586E-1,7.483093441E-2
1.376831987E1,1.133154154E0,-8.184824586E-1,7.483093441E-2
1.378498654E1,1.642615438E0,-3.749946058E-1,2.840521187E-2
1.380165320E1,1.642615438E0,-3.749946058E-1,2.840521187E-2
1.381831987E1,-2.112370491E0,-2.102520227E0,2.234237909E0
1.383498654E1,-1.254105449E0,-3.637623310E0,2.488357782E0
1.385165320E1,5.852084756E-1,-2.972391605E0,1.450498462E0
1.386831987E1,5.852084756E-1,-2.972391605E0,1.450498462E0
1.388498653E1,2.079994678E0,-1.407356143E0,1.493564397E-1
1.390165320E1,2.328005791E0,7.812960744E-1,-3.594939113E-1
1.391831987E1,2.280358315E0,5.468461514E0,-4.547888339E-1
1.393498653E1,2.280358315E0,5.468461514E0,-4.547888339E-1
1.395165320E1,-8.161153197E-1,3.750098944E0,9.294307828E-1
1.396831986E1,-4.251618981E-1,-3.713981390E0,1.727220178E0
1.398498653E1,-1.344513416E0,-3.005989313E0,4.156018734E0
1.400165320E1,-1.344513416E0,-3.005989313E0,4.156018734E0
1.401831986E1,-8.888082504E-1,-4.199618816E0,4.721679211E0
1.403498653E1,7.067705393E-1,-4.210614681E0,4.268417835E0
1.405165319E1,3.236972570E0,-7.811433077E-2,3.311803341E0
1.406831986E1,3.236972570E0,-7.811433077E-2,3.311803341E0
1.408498653E1,3.767813921E0,1.891237378E0,2.476751328E0
1.410165319E1,3.767813921E0,1.891237378E0,2.476751328E0
1.411831986E1,1.232114315E0,4.923570156E-1,2.397949696E0
1.413498652E1,1.232114315E0,4.923570156E-1,2.397949696E0
1.415165319E1,4.978547990E-1,-3.101895094E0,1.677740097E0
1.416831986E1,3.011563420E-1,1.819155335E0,1.496618707E-2
1.418498652E1,-1.600465775E-1,1.909563303E0,-1.656970739E0
1.420165319E1,-1.600465775E-1,1.909563303E0,-1.656970739E0
1.421831985E1,-1.600465775E-1,1.909563303E0,-1.656970739E0
1.423498652E1,-2.510043383E0,-7.311288118E-1,-2.587928534E0
1.425165319E1,-2.510043383E0,-7.311288118E-1,-2.587928534E0
1.426831985E1,-2.510043383E0,-7.311288118E-1,-2.587928534E0
1.428498652E1,-6.735394955E0,6.183173180E0,-9.985501289E0
1.430165318E1,-4.035983562E0,1.104076958E1,-8.631824493E0
1.431831985E1,2.447735071E0,3.519191980E0,-4.333780289E0
1.433498652E1,1.955989003E0,1.423314959E-1,-2.752251148E0
1.435165318E1,5.766563416E-1,1.152091026E0,-1.746156931E0
1.436831985E1,-8.313869834E-1,-1.074434757E0,-4.150826037E-1
1.438498651E1,-8.313869834E-1,-1.074434757E0,-4.150826037E-1
1.440165318E1,-8.313869834E-1,-1.074434757E0,-4.150826037E-1
1.441831985E1,6.963858753E-2,-3.090212345E-1,7.024944760E-3
1.443498651E1,6.963858753E-2,-3.090212345E-1,7.024944760E-3
1.445165318E1,1.125823736E0,1.287702918E0,-8.158099055E-1
1.446831984E1,1.162475705E0,1.733634233E0,-7.889318466E-1
1.448498651E1,-9.834923148E-1,4.886918142E-2,4.065304995E-1
1.450165318E1,-1.435532212E0,-4.023078918E0,1.258076072E0
1.451831984E1,-1.435532212E0,-4.023078918E0,1.258076072E0
1.453498651E1,-2.987128794E-1,-3.525224209E0,8.903354406E-1
1.455165317E1,6.780598760E-1,-2.748815060E0,3.601047993E-1
1.456831984E1,1.762344837E0,-6.230056882E-1,5.073232055E-1
1.458498651E1,4.449539185E0,5.261989117E0,2.525925934E-1
1.460165317E1,3.959014654E0,4.051255226E0,4.841103256E-1
1.461831984E1,2.286466837E0,2.629772902E0,7.993165851E-1
1.463498650E1,2.286466837E0,2.629772902E0,7.993165851E-1
1.465165317E1,-1.987753987E0,-1.594280720E0,2.892139196E0
1.466831984E1,2.072664261E0,-4.899059296E0,1.724776745E0
1.468498650E1,3.326158762E0,-6.942401886E0,1.551291108E0
1.470165317E1,2.426965714E0,-6.185540199E0,2.330754519E0
1.471831983E1,2.426965714E0,-6.185540199E0,2.330754519E0
1.473498650E1,3.353036880E0,3.439779520E0,2.889695883E0
1.475165317E1,3.353036880E0,3.439779520E0,2.889695883E0
1.476831983E1,2.614501119E-1,1.606574416E0,3.389383316E0
1.478498650E1,1.228449106E0,-9.192751646E-1,2.443764448E0
1.480165316E1,1.460577726E0,-1.941251874E0,2.305098295E0
1.481831983E1,1.867413640E0,-3.018206596E0,1.769369841E0
1.483498650E1,1.867413640E0,-3.018206596E0,1.769369841E0
1.485165316E1,3.543015569E-2,6.199666500E0,-2.006690800E-1
1.486831983E1,-1.147814870E0,4.842325211E0,-4.059196413E-1
1.488498649E1,-2.893666506E0,1.881463528E0,-1.587332129E0
1.490165316E1,-2.893666506E0,1.881463528E0,-1.587332129E0
1.491831983E1,-4.643794060E0,-6.274726868E0,-4.557356834E0
1.493498649E1,-5.539932728E0,-7.554488182E0,-5.611709118E0
1.495165316E1,-4.984045506E0,5.663327217E0,-9.532850266E0
1.496831982E1,-3.732994556E0,1.074694443E1,-5.843226910E0
1.498498649E1,1.637117565E-1,3.747044563E0,-3.352731228E0
1.500165316E1,-2.321286201E-1,1.536324978E0,-2.258672476E0
1.501831982E1,-7.299833894E-1,1.032361507E0,-1.119409680E0
1.503498649E1,-7.452550530E-2,-1.886045001E-2,-6.875283122E-1
1.505165315E1,2.919933498E-1,-7.280744314E-1,-5.122101307E-1
1.506831982E1,9.663881063E-1,-2.894735336E-1,-2.593120933E-1
1.508498649E1,1.404378176E0,8.558215499E-1,-1.252272818E-2
1.510165315E1,1.404378176E0,8.558215499E-1,-1.252272818E-2
1.511831982E1,1.097723961E0,6.591231227E-1,-1.618791744E-2
1.513498648E1,-1.966984630E0,-5.564214587E-1,1.112079382E0
1.515165315E1,-3.146564484E0,-2.641913891E0,2.218966246E0
1.516831982E1,-3.146564484E0,-2.641913891E0,2.218966246E0
1.518498648E1,-1.142317131E-1,-3.616243124E0,1.293506145E0
1.520165315E1,8.399390578E-1,-2.300440311E0,6.698132157E-1
1.521831981E1,1.119715095E0,-1.862450361E0,2.428187430E-1
1.523498648E1,1.292589903E0,-1.443397164E0,7.055488229E-2
1.525165315E1,1.477071047E0,-1.086041212E0,5.192350596E-3
1.526831981E1,1.477071047E0,-1.086041212E0,5.192350596E-3
1.528498648E1,1.221729559E-3,2.119089842E0,1.186604857E0
1.530165314E1,1.221729559E-3,2.119089842E0,1.186604857E0
1.531831981E1,7.690787315E-1,1.353676319E0,1.579390883E0
1.533498648E1,7.690787315E-1,1.353676319E0,1.579390883E0
1.535165314E1,1.363450170E0,-1.064660907E0,2.683834314E0
1.536831981E1,1.363450170E0,-1.064660907E0,2.683834314E0
1.538498647E1,2.233321667E0,-3.132438183E0,3.342957497E0
1.540165314E1,2.233321667E0,-3.132438183E0,3.342957497E0
1.541831981E1,2.724456787E-1,1.879020095E0,3.046077251E0
1.543498647E1,2.724456787E-1,1.879020095E0,3.046077251E0
1.545165314E1,2.724456787E-1,1.879020095E0,3.046077251E0
1.546831980E1,1.777616501E0,1.698204130E-1,2.372904301E0
1.548498647E1,1.777616501E0,1.698204130E-1,2.372904301E0
1.550165314E1,1.777616501E0,1.698204130E-1,2.372904301E0
1.551831980E1,5.986474827E-2,-5.185478330E-1,-5.574141145E-1
1.553498647E1,-2.547306061E0,-1.758527011E-1,-1.788917542E0
1.555165313E1,-3.860054493E0,-1.458668709E0,-2.168264627E0
1.556831980E1,-3.860054493E0,-1.458668709E0,-2.168264627E0
1.558498647E1,-5.287034512E0,-3.843484879E0,-3.627009630E0
1.560165313E1,-5.287034512E0,-3.843484879E0,-3.627009630E0
1.561831980E1,-4.460534573E0,8.665727615E0,-6.084518433E0
1.563498646E1,-2.123976946E0,7.773254395E0,-4.512152672E0
1.565165313E1,8.093958497E-1,2.878394842E0,-2.533561707E0
1.566831980E1,-4.764745235E-1,1.538768411E0,-1.889710188E0
1.568498646E1,-3.878991306E-1,-5.332086086E-1,-1.505476236E0
1.570165313E1,-9.346231073E-2,-6.272817850E-1,-1.129794359E0
1.571831979E1,6.780598760E-1,-7.433460951E-1,-5.079340935E-1
1.573498646E1,6.780598760E-1,-7.433460951E-1,-5.079340935E-1
1.575165313E1,6.780598760E-1,-7.433460951E-1,-5.079340935E-1
1.576831979E1,1.875354886E0,-3.102429509E-1,-3.381136656E-1
1.578498646E1,9.199623466E-1,-7.671698332E-1,-4.553996921E-1
1.580165312E1,9.199623466E-1,-7.671698332E-1,-4.553996921E-1
1.580165312E1,-1.980423570E0,-8.215367794E-1,5.128209591E-1
1.583498646E1,-1.486844897E0,-3.848982573E0,8.720094562E-1
1.585165312E1,2.742782831E-1,-1.856952548E0,3.197877109E-1
1.586831979E1,1.357341528E0,3.671297431E-1,-3.268126398E-2
1.588498645E1,1.357341528E0,3.671297431E-1,-3.268126398E-2
1.590165312E1,1.855196357E0,1.239444613E0,-1.719584316E-1
1.591831979E1,1.855196357E0,1.239444613E0,-1.719584316E-1
1.593498645E1,1.010370374E0,2.221715212E0,4.700604379E-1
1.595165312E1,1.010370374E0,2.221715212E0,4.700604379E-1
1.596831978E1,-1.472184062E-1,-6.743183732E-1,3.515832186E0
1.598498645E1,1.446527839E0,-4.594848633E0,2.910465240E0
1.600165312E1,1.635895848E0,-3.762850761E0,3.075398684E0
1.601831978E1,1.635895848E0,-3.762850761E0,3.075398684E0
1.603498645E1,2.703076601E0,-1.668806195E0,3.628231287E0
1.605165311E1,3.784918070E0,1.104443550E0,3.388161421E0
1.606831978E1,4.697550237E-1,1.301141977E0,3.387550592E0
1.608498645E1,4.697550237E-1,1.301141977E0,3.387550592E0
1.610165311E1,1.328630924E0,-4.550178945E-1,2.492633820E0
1.611831978E1,1.328630924E0,-4.550178945E-1,2.492633820E0
1.613498644E1,9.370665550E-1,-1.736612201E0,2.087630272E0
1.615165311E1,9.370665550E-1,-1.736612201E0,2.087630272E0
1.616831978E1,8.857539296E-1,7.831286192E-1,5.146535635E-1
1.618498644E1,-9.089667797E-1,1.899178624E0,-8.940005898E-1
1.620165311E1,-2.869231939E0,8.350521326E-1,-1.721722364E0
1.621831977E1,-2.869231939E0,8.350521326E-1,-1.721722364E0
1.623498644E1,-4.384787560E0,-2.093968153E0,-2.690553904E0
1.625165311E1,-4.384787560E0,-2.093968153E0,-2.690553904E0
1.626831977E1,-4.227795124E0,5.203346252E0,-9.112575531E0
1.628498644E1,-4.026820660E0,1.008293438E1,-1.036484814E1
1.630165310E1,-1.229059935E0,6.703019142E0,-5.870105267E0
1.631831977E1,-8.093958497E-1,1.894902587E0,-1.694844365E0
1.633498644E1,-8.093958497E-1,1.894902587E0,-1.694844365E0
1.635165310E1,-3.048215210E-1,1.991419196E0,-8.402445316E-1
1.636831977E1,-3.048215210E-1,1.991419196E0,-8.402445316E-1
1.638498643E1,-3.048215210E-1,1.991419196E0,-8.402445316E-1
1.640165310E1,-3.048215210E-1,1.991419196E0,-8.402445316E-1
1.641831977E1,1.213788271E0,8.637627959E-1,-3.057378232E-1
1.643498643E1,1.213788271E0,8.637627959E-1,-3.057378232E-1
1.645165310E1,-9.388991594E-1,-2.387717664E-1,-4.550942779E-2
1.646831976E1,-9.388991594E-1,-2.387717664E-1,-4.550942779E-2
1.648498643E1,-2.454454660E0,-3.512396097E0,1.477987289E0
1.650165310E1,-7.709113359E-1,-3.662057877E0,1.147509456E0
1.651831976E1,6.407971382E-1,-2.394513607E0,6.484329700E-1
1.653498643E1,1.302363753E0,-1.727449179E0,2.593120933E-1
1.655165309E1,1.406210780E0,-1.605276227E0,1.737910360E-1
1.656831976E1,4.144717693E0,3.962679863E0,-8.338304609E-2
1.658498643E1,4.692052364E0,4.723206520E0,2.739728391E-1
1.660165309E1,2.216828346E0,1.328630924E0,2.017991781E0
1.661831976E1,3.512472510E-1,5.271763206E-1,2.906189203E0
1.663498642E1,-1.684765100E0,-2.145891666E0,3.294088364E0
1.665165309E1,-1.684765100E0,-2.145891666E0,3.294088364E0
1.666831976E1,-1.684765100E0,-2.145891666E0,3.294088364E0
1.668498642E1,-2.278525680E-1,-1.206381559E0,3.091892004E0
1.670165309E1,-1.838703007E-1,-2.081750870E0,3.708254576E0
1.671831975E1,1.520442486E0,-2.670013666E0,3.225060701E0
1.673498642E1,1.520442486E0,-2.670013666E0,3.225060701E0
1.675165309E1,3.670075655E0,6.823359728E-1,3.097389936E0
1.676831975E1,3.670075655E0,6.823359728E-1,3.097389936E0
1.678498642E1,7.672461867E-1,-9.095013142E-1,3.551262379E0
1.680165308E1,7.672461867E-1,-9.095013142E-1,3.551262379E0
1.681831975E1,2.604727507E0,-4.060341835E0,1.694233418E0
1.683498642E1,1.218064427E0,4.465421677E0,1.316413581E-1
1.685165308E1,-8.552106619E-1,5.841089249E0,-7.351757884E-1
1.686831975E1,-8.552106619E-1,5.841089249E0,-7.351757884E-1
1.688498641E1,-3.207650900E0,5.919279456E-1,-2.339306593E0
1.690165308E1,-3.207650900E0,5.919279456E-1,-2.339306593E0
1.691831975E1,-4.426937103E0,-4.134256363E0,-3.766897678E0
1.693498641E1,-5.249772072E0,-5.343768597E0,-4.303236961E0
1.695165308E1,-4.334696293E0,7.318159938E-1,-7.733853340E0
1.696831974E1,-4.334696293E0,7.318159938E-1,-7.733853340E0
1.698498641E1,-2.235765159E-1,5.276039124E0,-3.816988468E0
1.700165308E1,-3.665188700E-2,2.818530083E0,-2.217133760E0
1.701831974E1,2.443459071E-2,1.782503486E0,-1.109635830E0
1.703498641E1,2.443459071E-2,1.782503486E0,-1.109635830E0
1.705165307E1,1.076954603E0,-1.801974773E0,-4.896081090E-1
1.706831974E1,1.127656341E0,-1.725005746E0,-2.477056682E-1
1.708498641E1,1.328019977E0,-1.428660005E-1,2.281579971E-1
1.710165307E1,1.328019977E0,-1.428660005E-1,2.281579971E-1
1.711831974E1,1.508225083E0,5.131264329E-1,-5.283980444E-2
1.713498640E1,5.943714380E-1,7.330377586E-3,1.017089859E-1
1.715165307E1,-3.414123297E0,-1.874056816E0,1.475543857E0
1.716831974E1,-3.414123297E0,-1.874056816E0,1.475543857E0
1.718498640E1,-8.106175661E-1,-3.398164511E0,1.589164734E0
1.720165307E1,-5.497783050E-2,-2.824562311E0,1.160337687E0
1.721831973E1,9.517273307E-1,-1.670027971E0,4.352411628E-1
1.723498640E1,9.517273307E-1,-1.670027971E0,4.352411628E-1
1.725165307E1,2.079383612E0,1.287092090E0,-2.984074354E-1
1.726831973E1,2.461174250E0,2.252869368E0,-5.250383019E-1
1.728498640E1,2.294408083E0,5.132485867E0,-3.967566788E-1
1.730165306E1,2.294408083E0,5.132485867E0,-3.967566788E-1
1.731831973E1,2.294408083E0,5.132485867E0,-3.967566788E-1
1.733498640E1,2.985296249E0,-5.018177986E0,1.792582750E0
1.735165306E1,2.985296249E0,-5.018177986E0,1.792582750E0
1.736831973E1,8.368847519E-2,-4.595459461E0,5.070483208E0
1.738498639E1,8.368847519E-2,-4.595459461E0,5.070483208E0
1.740165306E1,2.703076601E0,-5.270999670E-1,2.846935272E0
1.741831973E1,2.703076601E0,-5.270999670E-1,2.846935272E0
1.743498639E1,8.826996088E-1,2.601673126E0,3.600131512E0
1.745165306E1,8.826996088E-1,2.601673126E0,3.600131512E0
1.746831972E1,1.373224020E0,-1.482492447E0,2.573878765E0
1.748498639E1,1.373224020E0,-1.482492447E0,2.573878765E0
1.750165306E1,1.668882608E0,3.225366175E-1,6.930260658E-1
1.751831972E1,1.163086534E0,4.986489296E0,-1.542433500E-1
1.753498639E1,1.163086534E0,4.986489296E0,-1.542433500E-1
1.755165305E1,-2.492939234E0,1.965762854E0,-1.878714681E0
1.756831972E1,-2.492939234E0,1.965762854E0,-1.878714681E0
1.758498639E1,-3.933358431E0,-2.905196428E0,-3.335627079E0
1.760165305E1,-5.090947151E0,-4.570414066E0,-4.101040840E0
1.761831972E1,-6.089711189E0,-3.783620119E0,-6.035649300E0
1.763498638E1,-6.089711189E0,-3.783620119E0,-6.035649300E0
1.765165305E1,-3.077536821E0,1.204564285E1,-7.565254688E0
1.766831972E1,1.538157463E0,5.899121284E0,-4.529256821E0
1.768498638E1,1.538157463E0,5.899121284E0,-4.529256821E0
1.770165305E1,-4.257727563E-1,-3.108538091E-1,-9.697478414E-1
1.771831971E1,2.009745091E-1,-1.795255184E0,-6.130027771E-1
1.773498638E1,7.055488229E-1,-3.220402718E0,-1.597411335E-1
1.775165305E1,7.110465765E-1,-1.040226340E0,6.414080039E-3
1.776831971E1,7.110465765E-1,-1.040226340E0,6.414080039E-3
1.778498638E1,1.071456790E0,1.312748432E0,1.817322671E-1
1.780165304E1,7.776308656E-1,6.676751971E-1,3.390299529E-2
1.781831971E1,7.776308656E-1,6.676751971E-1,3.390299529E-2
1.783498638E1,-1.525940180E0,-1.044502378E0,9.190460443E-1
1.785165304E1,-1.403156400E0,-2.618090153E0,1.173776627E0
1.786831971E1,-6.798924804E-1,-3.908236504E0,9.129374027E-1
1.788498637E1,-6.798924804E-1,-3.908236504E0,9.129374027E-1
1.790165304E1,-6.798924804E-1,-3.908236504E0,9.129374027E-1
1.791831971E1,1.457523346E0,-1.574733019E0,3.084867075E-2
1.793498637E1,3.447109938E0,2.402531147E0,-5.488619804E-1
1.795165304E1,3.447109938E0,2.402531147E0,-5.488619804E-1
1.796831970E1,1.240055561E0,3.028667688E0,3.454440236E-1
1.798498637E1,-4.410443604E-1,2.725678682E0,1.141400814E0
1.800165304E1,-3.219257295E-1,-1.991342783E0,1.992946386E0
1.801831970E1,-3.219257295E-1,-1.991342783E0,1.992946386E0
1.803498637E1,4.483747482E-1,-3.525835037E0,3.515832186E0
1.805165303E1,4.715875983E-1,-2.853883982E0,3.870133877E0
1.806831970E1,1.069013357E0,-2.241186619E0,4.062556267E0
1.808498637E1,1.069013357E0,-2.241186619E0,4.062556267E0
1.810165303E1,3.629147768E0,9.694424272E-1,1.901316643E0
1.811831970E1,2.232100010E0,3.345706463E0,2.474918604E0
1.813498636E1,-1.160643063E-2,1.854585528E0,3.554927588E0
1.815165303E1,-1.160643063E-2,1.854585528E0,3.554927588E0
1.816831970E1,1.656054378E0,-3.431151152E0,2.308763504E0
1.818498636E1,2.694524527E0,-3.986427307E0,1.453552723E0
1.820165303E1,1.791055560E0,7.238747597E0,3.484983444E-1
1.821831969E1,1.791055560E0,7.238747597E0,3.484983444E-1
1.823498636E1,-5.955931544E-1,3.595550060E0,-3.503309488E-1
1.825165303E1,-2.817919254E0,-9.565379024E-1,-2.391230106E0
1.826831969E1,-4.239401340E0,-4.305298805E0,-3.824929714E0
1.828498636E1,-4.239401340E0,-4.305298805E0,-3.824929714E0
1.830165302E1,-6.577180862E0,-6.150721073E0,-6.226850033E0
1.831831969E1,-4.660287380E0,1.117088413E1,-9.601878166E0
1.833498636E1,-1.643837094E0,7.335264206E0,-5.898815632E0
1.835165302E1,-1.643837094E0,7.335264206E0,-5.898815632E0
1.836831969E1,-1.132543325E0,3.491703033E0,-1.145066023E0
1.838498635E1,-5.534434915E-1,1.914450169E0,-5.396990180E-1
1.840165302E1,-5.534434915E-1,1.914450169E0,-5.396990180E-1
1.841831969E1,-5.534434915E-1,1.914450169E0,-5.396990180E-1
1.843498635E1,1.361006737E0,1.197294950E0,-1.853974611E-1
1.845165302E1,1.015257239E0,2.500269651E0,6.872228533E-2
1.846831968E1,1.015257239E0,2.500269651E0,6.872228533E-2
1.848498635E1,-1.606574357E-1,-9.949459881E-2,1.182023361E-1
1.850165302E1,-1.874744058E0,-1.123914838E0,8.182533979E-1
1.851831968E1,-3.366475821E0,-3.186805248E0,2.275776625E0
1.853498635E1,-2.236376047E0,-3.391444921E0,2.062584877E0
1.855165301E1,-8.142827749E-1,-2.801349401E0,1.492648125E0
1.856831968E1,-5.314523727E-2,-2.473315239E0,1.237306595E0
1.858498635E1,1.133764982E0,-1.778761864E0,7.492256761E-1
1.860165301E1,2.197891474E0,-1.782961637E-1,4.004218578E-1
1.861831968E1,2.197891474E0,-1.782961637E-1,4.004218578E-1
1.863498634E1,3.642586708E0,2.551582098E0,1.579085439E-1
1.865165301E1,3.642586708E0,2.551582098E0,1.579085439E-1
1.866831968E1,-5.027416945E-1,9.938769937E-1,1.649029493E0
1.868498634E1,-5.027416945E-1,9.938769937E-1,1.649029493E0
1.870165301E1,2.404363871E0,-5.578951836E0,8.139773011E-1
1.871831967E1,1.566868186E0,-2.065868378E0,2.273333311E0
1.873498634E1,1.566868186E0,-2.065868378E0,2.273333311E0
1.875165301E1,1.566868186E0,-2.065868378E0,2.273333311E0
1.876831967E1,1.566868186E0,-2.065868378E0,2.273333311E0
1.878498634E1,1.310915828E0,1.593135357E0,3.186576128E0
1.880165300E1,1.310915828E0,1.593135357E0,3.186576128E0
1.881831967E1,1.114217401E0,4.642572254E-2,2.994153738E0
1.883498634E1,1.993251801E0,-1.289459229E0,2.950171471E0
1.885165300E1,2.468504667E0,-2.403065681E0,2.649015188E0
1.886831967E1,2.468504667E0,-2.403065681E0,2.649015188E0
1.888498633E1,1.876576662E0,6.704851627E0,6.319395900E-1
1.890165300E1,9.040798992E-2,3.728718519E0,6.414080039E-3
1.891831967E1,-1.789833784E0,1.025031090E0,-9.184352160E-1
1.893498633E1,-1.789833784E0,1.025031090E0,-9.184352160E-1
1.895165300E1,-4.204582214E0,-3.693822861E0,-3.051574945E0
1.896831966E1,-4.204582214E0,-3.693822861E0,-3.051574945E0
1.898498633E1,-5.400044441E0,4.560105801E0,-1.130435848E1
1.900165300E1,-5.400044441E0,4.560105801E0,-1.130435848E1
1.901831966E1,-3.634645343E-1,9.194126129E0,-7.369167328E0
1.903498633E1,4.483747482E-1,1.565035582E0,-1.819460750E0
1.905165299E1,-1.116660833E0,1.022587657E0,-4.627300799E-1
1.906831966E1,-1.116660833E0,1.022587657E0,-4.627300799E-1
1.908498633E1,1.185077652E-1,-1.232648730E0,-5.647444725E-1
1.910165299E1,6.652317643E-1,-1.389030099E0,-5.403099060E-1
1.911831966E1,8.814778924E-1,3.872882724E-1,-2.251036763E-1
1.913498632E1,8.814778924E-1,3.872882724E-1,-2.251036763E-1
1.915165299E1,1.123380303E0,1.888182998E0,-8.032871783E-2
1.916831966E1,2.443459071E-2,1.598633170E0,3.130682111E-1
1.918498632E1,2.443459071E-2,1.598633170E0,3.130682111E-1
1.920165299E1,-2.822806120E0,-3.151375055E0,1.747989535E0
1.921831965E1,-2.065944672E0,-3.861810684E0,1.413846493E0
1.923498632E1,-5.412262082E-1,-4.562472820E0,8.188642263E-1
1.925165299E1,3.946186602E-1,-4.175184250E0,2.733619809E-1
1.926831965E1,3.946186602E-1,-4.175184250E0,2.733619809E-1
1.928498632E1,3.985892773E0,2.199113131E0,-4.725039005E-1
1.930165298E1,3.985892773E0,2.199113131E0,-4.725039005E-1
1.931831965E1,3.102582216E0,2.436739683E0,-1.652389169E-1
1.933498632E1,-1.276707351E-1,2.788597822E0,4.902189970E-1
1.935165298E1,-3.036608934E0,2.047618628E0,1.430339932E0
1.936831965E1,5.717694163E-1,-2.853883982E0,1.131626964E0
1.938498631E1,5.717694163E-1,-2.853883982E0,1.131626964E0
1.940165298E1,2.024405956E0,-4.495277405E0,2.079078197E0
1.941831965E1,6.206386089E-1,-3.110447168E0,3.451691389E0
1.943498631E1,9.162971973E-1,-1.301065564E0,4.016130447E0
1.945165298E1,1.127656341E0,1.521053314E-1,3.172526121E0
1.946831964E1,6.927206516E-1,-2.497673333E-1,2.834717989E0
1.948498631E1,1.062293887E0,-9.321032763E-1,2.364352226E0
1.950165298E1,1.062293887E0,-9.321032763E-1,2.364352226E0
1.951831964E1,1.761734009E0,3.164279461E-1,2.521344423E0
1.953498631E1,9.095776677E-1,1.045800447E0,2.163988590E0
1.955165297E1,2.321286127E-2,3.064097643E0,1.309999466E0
1.956831964E1,4.520399272E-1,1.571755052E0,6.905826330E-1
1.958498631E1,4.520399272E-1,1.571755052E0,6.905826330E-1
1.960165297E1,-1.693928003E0,-6.822596192E-1,-2.336557806E-1
1.961831964E1,-3.091586590E0,-2.827005863E0,-1.036332130E0
1.963498630E1,-4.126391411E0,-5.198382854E0,-2.531118155E0
1.965165297E1,-4.126391411E0,-5.198382854E0,-2.531118155E0
1.966831964E1,-4.961443901E0,6.499601364E0,-8.945198059E0
1.968498630E1,-6.004189968E0,1.040669250E1,-8.482162476E0
1.970165297E1,6.969966888E-1,7.914363861E0,-4.707629204E0
1.971831963E1,6.969966888E-1,7.914363861E0,-4.707629204E0
1.973498630E1,-4.111120105E-1,1.450803876E0,-7.565560341E-1
1.975165297E1,-1.252272725E-1,-1.481270790E0,-5.195404887E-1
1.976831963E1,-1.252272725E-1,-1.481270790E0,-5.195404887E-1
1.978498630E1,8.460476995E-1,1.219896913E0,2.474002354E-2
1.980165296E1,9.474512935E-1,1.965152025E0,2.696968019E-1
1.981831963E1,1.102000117E0,1.944993496E0,5.189296007E-1
1.983498630E1,1.102000117E0,1.944993496E0,5.189296007E-1
1.985165296E1,-1.223562121E0,-1.300378442E-1,1.071762204E0
1.986831963E1,-1.754403591E0,-1.103756309E0,1.330768943E0
1.988498629E1,-8.753692508E-1,-3.437870502E0,1.132237911E0
1.990165296E1,-3.475820720E-1,-3.387168884E0,5.451968312E-1
1.991831963E1,-3.475820720E-1,-3.387168884E0,5.451968312E-1
1.993498629E1,1.508836001E-1,-1.412853837E0,1.847866029E-1
1.995165296E1,1.508836001E-1,-1.412853837E0,1.847866029E-1
1.996831962E1,1.508836001E-1,-1.412853837E0,1.847866029E-1
1.998498629E1,1.508836001E-1,-1.412853837E0,1.847866029E-1
2.000165296E1,2.599229574E0,-1.599702090E-1,-7.052434087E-1
2.001831962E1,2.599229574E0,-1.599702090E-1,-7.052434087E-1
2.003498629E1,1.058628678E0,1.497229576E0,1.622151375E0
2.005165295E1,1.252272725E-1,-4.207331315E-2,4.561021805E0
2.006831962E1,1.230892539E0,-4.943041325E0,4.844463348E0
2.008498629E1,2.342055559E0,-7.123218060E0,2.241568327E0
2.010165295E1,2.342055559E0,-7.123218060E0,2.241568327E0
2.011831962E1,9.914335608E-1,2.083048970E-1,3.076009512E0
2.013498628E1,9.914335608E-1,2.083048970E-1,3.076009512E0
2.015165295E1,1.397658587E0,1.808159798E-1,2.058308840E0
2.016831962E1,1.397658587E0,1.808159798E-1,2.058308840E0
2.018498628E1,4.728093445E-1,1.548542261E0,1.744324327E0
2.020165295E1,-6.719512399E-3,8.429934084E-2,1.474933028E0
2.021831961E1,1.502727419E-1,1.007926911E-1,7.266236544E-1
2.023498628E1,1.502727419E-1,1.007926911E-1,7.266236544E-1
2.025165295E1,-1.521053314E-1,3.054323979E-2,-3.399462402E-1
2.026831961E1,-1.961486816E0,6.078104377E-1,-1.083979607E0
2.028498628E1,-3.462992430E0,-4.165334105E-1,-1.458439708E0
2.030165294E1,-3.462992430E0,-4.165334105E-1,-1.458439708E0
2.031831961E1,-5.095833778E0,-4.362109184E0,-2.270889759E0
2.033498628E1,-3.902204275E0,5.134318352E0,-6.833438873E0
2.035165294E1,-3.147175312E0,1.149464226E1,-8.005688667E0
2.036831961E1,-3.147175312E0,1.149464226E1,-8.005688667E0
2.038498627E1,-3.147175312E0,1.149464226E1,-8.005688667E0
2.040165294E1,-1.270598769E-1,8.478803039E-1,-8.683443069E-1
2.041831961E1,-1.270598769E-1,8.478803039E-1,-8.683443069E-1
2.043498627E1,6.517927051E-1,-1.126969218E0,-6.872228533E-2
2.045165294E1,6.585122347E-1,-4.434114695E-1,3.878991306E-2
2.046831960E1,8.442151546E-1,6.053670049E-1,3.686569035E-1
2.048498627E1,8.442151546E-1,6.053670049E-1,3.686569035E-1
2.050165294E1,9.987639189E-1,1.507003427E0,3.344484568E-1
2.051831960E1,4.526508152E-1,1.181412458E0,4.181369543E-1
2.053498627E1,4.526508152E-1,1.181412458E0,4.181369543E-1
2.055165293E1,4.526508152E-1,1.181412458E0,4.181369543E-1
2.056831960E1,4.526508152E-1,1.181412458E0,4.181369543E-1
2.058498627E1,-7.684679031E-1,-3.687103510E0,1.126129270E0
2.060165293E1,-7.684679031E-1,-3.687103510E0,1.126129270E0
2.061831960E1,2.131918073E-1,-1.449505806E0,5.458076596E-1
2.063498626E1,2.131918073E-1,-1.449505806E0,5.458076596E-1
2.065165293E1,9.529490471E-1,-5.173261166E-1,1.756236255E-1
2.066831960E1,9.529490471E-1,-5.173261166E-1,1.756236255E-1
2.068498626E1,1.224783897E0,2.433074474E0,1.975842118E0
2.070165293E1,1.169806004E0,1.530216217E0,3.448026180E0
2.071831959E1,1.751960158E0,-2.561279774E0,3.187797785E0
2.073498626E1,2.606559992E0,-5.872166634E0,1.512195706E0
2.075165293E1,3.802022457E0,-6.026104927E0,2.100458622E0
2.076831959E1,5.591245174E0,-2.715828419E0,2.696662664E0
2.078498626E1,1.134986758E0,3.331045628E0,4.374097347E0
2.080165292E1,-1.688430309E0,1.048243999E0,3.047298908E0
2.081831959E1,-1.688430309E0,1.048243999E0,3.047298908E0
2.083498626E1,8.503237963E-1,4.581485689E-2,1.588553905E0
2.085165292E1,9.395100474E-1,-6.743183732E-1,1.563508391E0
2.086831959E1,1.190575480E0,-1.197829485E0,1.083368659E0
2.088498625E1,1.190575480E0,-1.197829485E0,1.083368659E0
2.090165292E1,2.168570042E0,1.689041138E0,-1.298087686E-1
2.091831959E1,2.168570042E0,1.689041138E0,-1.298087686E-1
2.093498625E1,-2.851516724E0,2.657261848E0,-8.255837560E-1
2.095165292E1,-2.851516724E0,2.657261848E0,-8.255837560E-1
2.096831958E1,-3.974897146E0,-1.738444805E0,-2.399171352E0
2.098498625E1,-4.797731876E0,-3.646175623E0,-3.380220175E0
2.100165292E1,-3.570504665E0,4.218632221E0,-7.818152905E0
2.101831958E1,-3.570504665E0,4.218632221E0,-7.818152905E0
2.103498625E1,1.434921384E0,9.139147758E0,-7.595798016E0
2.105165291E1,1.434921384E0,9.139147758E0,-7.595798016E0
2.106831958E1,-1.029307127E0,7.293725610E-1,-6.783653498E-1
2.108498625E1,-1.029307127E0,7.293725610E-1,-6.783653498E-1
2.110165291E1,4.263836145E-1,-1.702403784E0,1.313359290E-2
2.111831958E1,9.877683520E-1,-2.357250929E0,3.344484568E-1
2.113498624E1,9.712749720E-1,-1.275409341E0,5.714640021E-1
2.115165291E1,9.712749720E-1,-1.275409341E0,5.714640021E-1
2.116831958E1,6.035344005E-1,1.221729517E0,4.682278633E-1
2.118498624E1,6.035344005E-1,1.221729517E0,4.682278633E-1
2.120165291E1,-1.428812742E0,7.440332770E-1,1.254410863E0
2.121831957E1,-1.428812742E0,7.440332770E-1,1.254410863E0
2.123498624E1,-2.114202976E0,-3.815385103E0,1.118798852E0
2.125165291E1,-2.114202976E0,-3.815385103E0,1.118798852E0
2.126831957E1,-2.114202976E0,-3.815385103E0,1.118798852E0
2.128498624E1,-2.114202976E0,-3.815385103E0,1.118798852E0
2.130165290E1,-2.114202976E0,-3.815385103E0,1.118798852E0
2.131831957E1,-2.114202976E0,-3.815385103E0,1.118798852E0
2.133498624E1,-2.114202976E0,-3.815385103E0,1.118798852E0
2.135165290E1,1.269376993E0,1.451414704E0,-4.621191919E-1
2.136831957E1,-6.041452885E-1,1.507003427E0,2.346637011E0
2.138498623E1,1.382387042E0,-2.613203287E0,3.951378822E0
2.140165290E1,1.382387042E0,-2.613203287E0,3.951378822E0
2.141831957E1,3.267515659E0,-5.228315353E0,3.455356598E0
2.143498623E1,3.267515659E0,-5.228315353E0,3.455356598E0
2.145165290E1,1.898567677E0,4.268112183E0,4.117534161E0
2.146831956E1,1.898567677E0,4.268112183E0,4.117534161E0
2.148498623E1,1.898567677E0,4.268112183E0,4.117534161E0
2.150165290E1,7.086031139E-2,-2.821508169E0,1.239139199E0
2.151831956E1,7.086031139E-2,-2.821508169E0,1.239139199E0
2.153498623E1,1.225394726E0,-2.487975836E0,6.093376279E-1
2.155165289E1,1.359784961E0,-2.561890602E0,3.857611120E-1
2.156831956E1,1.958432436E0,2.028071165E0,9.315688163E-2
2.158498623E1,1.958432436E0,2.028071165E0,9.315688163E-2
2.160165289E1,-1.660941362E0,4.466643333E0,-2.086103261E-1
2.161831956E1,-2.585790634E0,1.931554437E0,-7.418952584E-1
2.163498622E1,-3.560119867E0,-1.812970281E0,-2.167653561E0
2.165165289E1,-5.119046688E0,-6.509909630E0,-2.921460867E0
2.166831956E1,-5.119046688E0,-6.509909630E0,-2.921460867E0
2.168498622E1,-3.794692039E0,4.900357246E0,-8.509652138E0
2.170165289E1,-3.794692039E0,4.900357246E0,-8.509652138E0
2.171831955E1,2.689026833E0,7.209425926E0,-4.926929951E0
2.173498622E1,2.689026833E0,7.209425926E0,-4.926929951E0
2.175165289E1,-2.645044625E-1,-2.253327519E-1,-5.024362803E-1
2.176831955E1,-2.645044625E-1,-2.253327519E-1,-5.024362803E-1
2.178498622E1,1.071456790E0,-1.921093345E0,3.106247485E-1
2.180165288E1,1.071456790E0,-1.921093345E0,3.106247485E-1
2.181831955E1,1.101389170E0,-5.673406646E-2,2.464839369E-1
2.183498622E1,1.101389170E0,-5.673406646E-2,2.464839369E-1
2.185165288E1,6.884446144E-1,6.548470259E-1,1.444695145E-1
2.186831955E1,6.884446144E-1,6.548470259E-1,1.444695145E-1
2.188498621E1,-3.443444729E0,-1.966908216E0,1.828012824E0
2.190165288E1,-3.384801626E0,-4.507494926E0,1.619097114E0
2.191831955E1,-2.079383612E0,-4.922883034E0,9.899063706E-1
2.193498621E1,-1.361006737E0,-4.026820660E0,8.219185472E-1
2.195165288E1,-4.434878230E-1,-1.582674265E0,5.067123175E-1
2.196831954E1,-4.434878230E-1,-1.582674265E0,5.067123175E-1
2.198498621E1,6.945532560E-1,7.654135823E-1,2.183841616E-1
2.200165288E1,9.498947263E-1,9.138537049E-1,5.772672221E-2
2.201831954E1,1.080619812E0,1.392160773E0,-1.316413581E-1
2.203498621E1,1.080619812E0,1.392160773E0,-1.316413581E-1
2.205165287E1,1.080619812E0,1.392160773E0,-1.316413581E-1
2.206831954E1,2.070220709E0,7.403681278E-1,4.947699070E0
2.208498621E1,2.134361506E0,-4.737180233E0,2.889695883E0
2.210165287E1,2.879616499E0,-7.529442787E0,1.545182467E0
2.211831954E1,2.879616499E0,-7.529442787E0,1.545182467E0
2.213498620E1,7.222254276E0,-2.263177633E0,1.732107043E0
2.215165287E1,-1.136208475E-1,3.485594511E0,4.426631451E0
2.216831954E1,-1.136208475E-1,3.485594511E0,4.426631451E0
2.218498620E1,-1.136208475E-1,3.485594511E0,4.426631451E0
2.220165287E1,1.863137633E-1,8.723149300E-1,7.235693336E-1
2.221831953E1,9.034690261E-1,-1.505705357E0,5.384773016E-1
2.223498620E1,9.034690261E-1,-1.505705357E0,5.384773016E-1
2.225165287E1,9.034690261E-1,-1.505705357E0,5.384773016E-1
2.226831953E1,2.910770655E0,2.661537886E0,5.531380773E-1
2.228498620E1,-7.464767694E-1,6.059167862E0,8.799507022E-1
2.230165286E1,-7.464767694E-1,6.059167862E0,8.799507022E-1
2.231831953E1,-4.552775383E0,-2.216140985E0,-2.594037294E0
2.233498620E1,-5.147146702E0,-3.670610189E0,-3.156032801E0
2.235165286E1,-5.752513409E0,-3.308978081E0,-5.382024288E0
2.236831953E1,-5.752513409E0,-3.308978081E0,-5.382024288E0
2.238498619E1,-5.752513409E0,-3.308978081E0,-5.382024288E0
2.240165286E1,1.033583164E0,5.392103195E0,-5.222588539E0
2.241831953E1,1.033583164E0,5.392103195E0,-5.222588539E0
2.243498619E1,1.033583164E0,5.392103195E0,-5.222588539E0
2.245165286E1,1.033583164E0,5.392103195E0,-5.222588539E0
2.246831952E1,6.707295179E-1,-1.106810570E0,-7.535017133E-1
2.248498619E1,7.202095985E-1,-1.071380496E0,-1.963930279E-1
2.250165286E1,7.202095985E-1,-1.071380496E0,-1.963930279E-1
2.251831952E1,7.202095985E-1,-1.071380496E0,-1.963930279E-1
2.253498619E1,7.202095985E-1,-1.071380496E0,-1.963930279E-1
2.255165285E1,-1.622456908E0,-6.101011857E-2,1.200654745E0
2.256831952E1,-1.622456908E0,-6.101011857E-2,1.200654745E0
2.258498619E1,-2.968191862E0,-3.824548006E0,1.649640322E0
2.260165285E1,-1.875965714E0,-3.357236385E0,9.960150123E-1
2.261831952E1,-5.002982616E-1,-1.278463602E0,5.537489057E-1
2.263498618E1,7.086031139E-2,4.618137777E-1,1.408043355E-1
2.263498618E1,7.086031139E-2,4.618137777E-1,1.408043355E-1
2.266831952E1,1.432477951E0,1.086728454E0,-2.159406990E-1
2.268498618E1,1.432477951E0,1.086728454E0,-2.159406990E-1
2.270165285E1,1.432477951E0,1.086728454E0,-2.159406990E-1
2.271831951E1,1.736688614E0,3.443444729E0,8.695660233E-1
2.273498618E1,1.250440240E0,3.815461397E0,4.791317940E0
2.275165285E1,1.713475704E0,-1.936975837E0,4.413803577E0
2.276831951E1,3.816072226E0,-7.330911636E0,2.687499523E0
2.278498618E1,4.483747482E0,-8.162299156E0,2.332587242E0
2.280165284E1,4.483747482E0,-8.162299156E0,2.332587242E0
2.281831951E1,-6.536253095E-1,3.333489180E0,3.683209181E0
2.283498618E1,-6.536253095E-1,3.333489180E0,3.683209181E0
2.285165284E1,-3.078758419E-1,3.084867001E-1,1.168278933E0
2.286831951E1,-3.078758419E-1,3.084867001E-1,1.168278933E0
2.288498617E1,2.062890291E0,-2.020053387E0,4.932733178E-1
2.290165284E1,2.062890291E0,-2.020053387E0,4.932733178E-1
2.291831951E1,-4.190532267E-1,3.977951527E0,-1.151480079E-1
2.293498617E1,-4.190532267E-1,3.977951527E0,-1.151480079E-1
2.295165284E1,-1.538768411E0,-4.592939615E-1,-9.428697824E-1
2.296831950E1,-1.538768411E0,-4.592939615E-1,-9.428697824E-1
2.298498617E1,-2.942535639E0,-3.010876179E0,-2.204916477E0
2.300165284E1,-2.942535639E0,-3.010876179E0,-2.204916477E0
2.301831950E1,-5.194794178E0,-1.575267613E-1,-5.289783478E0
2.303498617E1,-5.194794178E0,-1.575267613E-1,-5.289783478E0
2.305165283E1,-1.619402528E0,1.249707127E1,-7.691703796E0
2.306831950E1,-1.619402528E0,1.249707127E1,-7.691703796E0
2.308498617E1,-8.918625712E-1,1.778838277E0,-6.099484563E-1
2.310165283E1,-8.918625712E-1,1.778838277E0,-6.099484563E-1
2.311831950E1,6.548470259E-1,4.911352694E-1,-1.762344837E-1
2.313498616E1,9.419534802E-1,-5.863538384E-1,5.922334194E-1
2.315165283E1,1.086728454E0,-5.917752534E-2,1.295949578E0
2.316831950E1,1.086728454E0,-5.917752534E-2,1.295949578E0
2.318498616E1,1.086728454E0,-5.917752534E-2,1.295949578E0
2.320165283E1,1.637117565E-1,7.464767694E-1,8.622356653E-1
2.321831949E1,1.637117565E-1,7.464767694E-1,8.622356653E-1
2.323498616E1,-1.687819362E0,6.475166976E-2,1.418733478E0
2.325165283E1,-1.729358196E0,-1.801974773E0,1.551291108E0
2.326831949E1,-1.150869250E0,-3.091510296E0,9.330959320E-1
2.328498616E1,-1.150869250E0,-3.091510296E0,9.330959320E-1
2.330165282E1,-2.773326039E-1,-1.854509115E0,2.562577724E-1
2.331831949E1,5.009091273E-2,-1.000520110E0,2.318231910E-1
2.333498616E1,5.009091273E-2,-1.000520110E0,2.318231910E-1
2.335165282E1,2.552803993E0,3.109301627E-1,-6.209440231E-1
2.336831949E1,2.122755051E0,2.003025532E0,-5.390881896E-1
2.338498615E1,3.060432673E-1,4.602255344E0,1.660025001E0
2.340165282E1,3.060432673E-1,4.602255344E0,1.660025001E0
2.341831949E1,3.060432673E-1,4.602255344E0,1.660025001E0
2.343498615E1,4.265058041E0,-4.062785149E0,2.263559341E0
2.345165282E1,4.265058041E0,-4.062785149E0,2.263559341E0
2.346831948E1,3.375638723E0,-4.571635723E0,2.505461931E0
2.346831948E1,3.375638723E0,-4.571635723E0,2.505461931E0
2.350165282E1,-1.140484571E0,5.833758712E-1,3.667326689E0
2.351831948E1,-9.059124589E-1,-1.951025724E0,2.175594807E0
2.353498615E1,7.257073522E-1,-7.873283625E-1,8.487966061E-1
2.355165281E1,7.257073522E-1,-7.873283625E-1,8.487966061E-1
2.356831948E1,1.538157463E0,-7.488438487E-1,-1.496618707E-2
2.358498615E1,1.538157463E0,-7.488438487E-1,-1.496618707E-2
2.360165281E1,8.924734592E-1,9.217338562E0,-2.568686306E-1
2.361831948E1,8.924734592E-1,9.217338562E0,-2.568686306E-1
2.363498614E1,8.924734592E-1,9.217338562E0,-2.568686306E-1
2.365165281E1,-4.257116795E0,-7.818305492E-1,-3.715584993E0
2.366831948E1,-4.257116795E0,-7.818305492E-1,-3.715584993E0
2.368498614E1,-3.849058867E0,4.224740982E0,-9.649525642E0
2.370165281E1,-4.238790512E0,8.858150482E0,-1.073747540E1
2.371831947E1,-1.153312683E0,1.019044590E1,-7.410095215E0
2.373498614E1,-1.153312683E0,1.019044590E1,-7.410095215E0
2.375165281E1,-1.475238442E0,4.410443604E-1,-1.277012825E0
2.376831947E1,-1.349400282E0,-5.612320080E-2,-4.474584460E-1
2.378498614E1,7.330377586E-3,-2.225914955E0,1.658497900E-1
2.380165280E1,7.330377586E-3,-2.225914955E0,1.658497900E-1
2.381831947E1,1.551596522E-1,-3.493382931E-1,8.555161357E-1
2.383498614E1,-8.613193035E-2,7.678570151E-1,9.874629378E-1
2.385165280E1,-8.613193035E-2,7.678570151E-1,9.874629378E-1
2.386831947E1,-1.035415769E0,6.603448391E-1,1.168889761E0
2.388498613E1,-1.167973399E0,5.870410800E-1,1.268460751E0
2.390165280E1,-1.087339282E0,-3.585012555E-1,1.330158114E0
2.391831947E1,-5.479456782E-1,-2.316322803E0,1.228754520E0
2.393498613E1,3.793470263E-1,-3.983983755E0,8.109229803E-1
2.395165280E1,8.246674538E-1,-4.360887527E0,6.496546865E-1
2.396831946E1,2.486219645E0,-2.682841778E0,7.027999163E-1
2.398498613E1,6.626050472E0,4.108676434E0,3.643808365E-1
2.400165280E1,5.308414936E0,3.187492371E0,5.830704570E-1
2.401831946E1,3.581500292E0,2.869842768E0,3.875937164E-1
2.403498613E1,-1.798385859E0,3.339597702E0,2.177732885E-1
2.405165279E1,-1.798385859E0,3.339597702E0,2.177732885E-1
2.406831946E1,5.124544621E0,-4.549644470E0,4.034761786E-1
2.408498613E1,5.472737789E0,-5.323610306E0,8.952223063E-1
2.410165279E1,5.472737789E0,-5.323610306E0,8.952223063E-1
2.411831946E1,-1.183245063E0,-2.921689987E0,3.658163786E0
2.413498612E1,-1.183245063E0,-2.921689987E0,3.658163786E0
2.415165279E1,9.810488224E-1,3.107469082E0,3.149924278E0
2.416831946E1,1.536935806E0,3.216202974E0,2.958723545E0
2.418498612E1,2.145967960E0,3.304778576E0,2.805396557E0
2.420165279E1,2.145967960E0,3.304778576E0,2.805396557E0
2.421831945E1,1.733634233E0,2.235154152E0,2.227518320E0
2.423498612E1,1.991419196E-1,2.578460217E0,1.022282243E0
2.425165279E1,1.991419196E-1,2.578460217E0,1.022282243E0
2.426831945E1,1.991419196E-1,2.578460217E0,1.022282243E0
2.428498612E1,2.272416949E-1,1.954156399E0,9.560033679E-2
2.430165278E1,-2.030514479E0,2.129474640E0,-9.752455950E-1
2.431831945E1,-3.956571102E0,-2.977965865E-3,-2.433990717E0
2.433498612E1,-5.530158997E0,-3.155651093E0,-3.960541725E0
2.435165278E1,-6.632158756E0,-5.208767414E0,-5.275122643E0
2.436831945E1,-6.632158756E0,-5.208767414E0,-5.275122643E0
2.438498611E1,-6.632158756E0,-5.208767414E0,-5.275122643E0
2.440165278E1,-6.632158756E0,-5.208767414E0,-5.275122643E0
2.441831945E1,-6.640099883E-1,2.651153088E0,-2.370460749E0
2.443498611E1,-6.640099883E-1,2.651153088E0,-2.370460749E0
2.445165278E1,-9.853248596E-1,-4.831253052E0,1.853974611E-1
2.446831944E1,-1.193629742E0,-2.632139921E0,5.528326333E-2
2.448498611E1,-1.618791699E0,-9.460768104E-2,-4.126391709E-1
2.450165278E1,-1.618791699E0,-9.460768104E-2,-4.126391709E-1
2.451831944E1,-2.417802811E0,3.891208768E-1,-8.689551353E-1
2.453498611E1,-2.638324976E0,7.782417536E-1,-1.079092622E0
2.455165277E1,-2.269973516E0,5.510000587E-1,-1.290451884E0
2.456831944E1,-2.269973516E0,5.510000587E-1,-1.290451884E0
2.456831944E1,-1.559537768E0,-7.861065865E-1,-1.172554970E0
2.460165277E1,3.597993553E-1,-3.941833973E0,-1.083368659E0
2.461831944E1,2.285856009E0,-3.399386168E0,-6.490437984E-1
2.463498610E1,2.285856009E0,-3.399386168E0,-6.490437984E-1
2.465165277E1,2.738506794E0,-7.806088328E-1,2.012494087E0
2.466831944E1,3.875326157E0,9.016364217E-1,2.165210247E0
2.468498610E1,5.194794178E0,3.176496744E0,2.294102669E0
2.470165277E1,4.876533508E0,3.206429243E0,2.336863279E0
2.471831943E1,4.876533508E0,3.206429243E0,2.336863279E0
2.473498610E1,4.876533508E0,3.206429243E0,2.336863279E0
2.475165277E1,4.876533508E0,3.206429243E0,2.336863279E0
2.476831943E1,4.876533508E0,3.206429243E0,2.336863279E0
2.478498610E1,4.876533508E0,3.206429243E0,2.336863279E0
2.480165276E1,4.876533508E0,3.206429243E0,2.336863279E0
2.481831943E1,3.194822788E0,-6.705080986E0,3.644724607E0
2.483498610E1,8.429934084E-2,-3.696495533E0,3.642663002E0
2.485165276E1,8.429934084E-2,-3.696495533E0,3.642663002E0
2.486831943E1,-3.932442144E-2,2.442695618E0,3.582034826E0
2.488498609E1,-3.932442144E-2,2.442695618E0,3.582034826E0
2.490165276E1,-3.932442144E-2,2.442695618E0,3.582034826E0
2.491831943E1,-3.932442144E-2,2.442695618E0,3.582034826E0
2.493498609E1,-3.932442144E-2,2.442695618E0,3.582034826E0
2.495165276E1,1.774180412E0,-5.757400393E-2,1.373147607E0
2.496831942E1,1.263039231E0,3.997957230E0,7.464004159E-1
2.498498609E1,1.263039231E0,3.997957230E0,7.464004159E-1
2.500165276E1,1.263039231E0,3.997957230E0,7.464004159E-1
2.501831942E1,1.263039231E0,3.997957230E0,7.464004159E-1
2.503498609E1,1.263039231E0,3.997957230E0,7.464004159E-1
2.505165275E1,1.263039231E0,3.997957230E0,7.464004159E-1
2.506831942E1,1.263039231E0,3.997957230E0,7.464004159E-1
2.508498609E1,-3.430616617E0,1.484401464E0,-1.515952587E1
2.510165275E1,-7.810516834E0,8.980322838E0,-1.370566750E1
2.511831942E1,-5.892401695E0,1.234679890E1,-8.650150299E0
2.513498608E1,1.154534459E0,6.584511280E0,-2.000887632E0
2.515165275E1,1.390939116E0,-2.016388178E0,3.417788446E-1
2.516831942E1,-6.401863098E-1,-3.031034708E0,1.267849803E0
2.518498608E1,-8.833104968E-1,-2.549062252E0,1.146287799E0
2.520165275E1,-1.003650784E0,-1.109254122E0,1.041829824E0
2.521831941E1,-1.346956849E0,2.516762912E-1,1.112690210E0
2.523498608E1,-1.549763918E0,1.367726207E0,1.110857606E0
2.525165275E1,-1.579696298E0,1.654221773E0,1.151174664E0
2.526831941E1,-1.731801629E0,1.466075420E0,1.382081509E0
2.528498608E1,-1.635285020E0,5.656607747E-1,1.528689146E0
2.530165274E1,-1.268155336E0,-2.448804229E-1,1.576336622E0
2.531831941E1,-1.068402529E0,-7.836631536E-1,1.603825450E0
2.533498608E1,-5.265654325E-1,-2.111072302E0,1.465770006E0
2.535165274E1,-5.265654325E-1,-2.111072302E0,1.465770006E0
2.536831941E1,7.764091492E-1,-4.009029388E0,1.215315461E0
2.538498607E1,2.979798317E0,-2.827005863E0,7.614429593E-1
2.540165274E1,4.596146584E0,-7.146354318E-1,3.155116439E-1
2.541831941E1,4.483136654E0,-1.917351782E-1,3.573558852E-2
2.543498607E1,3.238805056E0,1.481347084E0,-1.679878123E-2
2.545165274E1,1.660330415E0,2.477667570E0,5.140427351E-1
2.546831940E1,-3.852113247E0,2.911381483E0,2.555552721E0
2.548498607E1,3.796524525E0,-8.520799875E-1,8.848376274E-1
2.550165274E1,3.491703033E0,-3.826380730E0,1.992335439E0
2.551831940E1,1.720806122E0,-4.554531574E0,3.130987406E0
2.553498607E1,-4.935787320E-1,-4.894783020E0,4.816363335E0
2.555165273E1,5.803215504E-1,-5.497019291E-1,4.143801212E0
2.556831940E1,5.803215504E-1,-5.497019291E-1,4.143801212E0
2.558498607E1,1.019533277E0,1.756847143E0,2.392452002E0
2.560165273E1,1.019533277E0,1.756847143E0,2.392452002E0
2.561831940E1,7.867938280E-1,2.327394783E-1,2.101680279E0
2.563498606E1,7.867938280E-1,2.327394783E-1,2.101680279E0
2.565165273E1,2.199113131E0,-1.037706509E-1,1.408348799E0
2.566831940E1,1.929721832E0,4.024377346E0,6.973021626E-1
2.568498606E1,4.673115611E-1,3.398240805E0,-1.127045527E-1
2.570165273E1,-4.379900396E-1,3.909534693E0,-3.491092324E-1
2.571831939E1,-2.480721951E0,1.623067737E0,-1.598938584E0
2.573498606E1,-3.664577723E0,-2.737819672E0,-3.543931961E0
2.575165273E1,-4.794066906E0,-7.148874283E0,-6.210356712E0
2.576831939E1,-5.660273075E0,-6.360858440E0,-8.483995438E0
2.578498606E1,-4.508182049E0,9.337068558E0,-1.151449585E1
2.580165272E1,-5.277871490E-1,7.743932724E0,-5.398517609E0
2.581831939E1,-5.277871490E-1,7.743932724E0,-5.398517609E0
2.583498606E1,-9.230166674E-1,3.659079969E-1,-1.145371497E-1
2.585165272E1,-2.657261789E-1,3.329212964E-1,-1.505781710E-1
2.586831939E1,3.359756172E-1,-3.884336352E-1,1.517999023E-1
2.588498605E1,3.359756172E-1,-3.884336352E-1,1.517999023E-1
2.590165272E1,1.097723961E0,1.247996688E0,1.817322671E-1
2.591831939E1,1.466686368E0,2.452011108E0,3.210094273E-1
2.593498605E1,1.376889229E0,1.633452415E0,1.316413581E-1
2.595165272E1,-2.321286127E-2,-3.084103465E-1,5.067123175E-1
2.596831938E1,-1.556483507E0,-1.411021233E0,9.996802211E-1
2.598498605E1,-1.620013356E0,-3.611967087E0,1.473711252E0
2.600165272E1,-1.620013356E0,-3.611967087E0,1.473711252E0
2.601831938E1,1.038470119E-1,-3.253389359E0,1.015562654E0
2.603498605E1,2.895499170E-1,-3.098840714E0,8.469640017E-1
2.605165271E1,6.853902936E-1,-2.775693178E0,6.643154621E-1
2.606831938E1,1.957210779E0,7.391464114E-1,3.582721949E-1
2.606831938E1,1.957210779E0,7.391464114E-1,3.582721949E-1
2.610165271E1,3.617541313E0,7.019447327E0,-1.527161920E-3
2.611831938E1,-1.734855920E-1,3.540572166E0,5.299251676E-1
2.613498604E1,-1.278540015E0,-1.229594469E0,2.825249732E-1
2.615165271E1,-1.278540015E0,-1.229594469E0,2.825249732E-1
2.616831938E1,-5.662716627E-1,-5.493430614E0,3.150535107E0
2.618498604E1,-1.718973517E0,-3.044473648E0,4.756498814E0
2.620165271E1,-1.475238442E0,-1.150792837E0,4.040565014E0
2.621831937E1,-1.475238442E0,-1.150792837E0,4.040565014E0
2.623498604E1,6.982184649E-1,5.161807537E-1,2.021656990E0
2.625165271E1,3.130681992E0,-1.480049014E0,8.292489648E-1
2.626831937E1,2.739728451E0,-8.642973304E-1,1.261741161E0
2.628498604E1,2.739728451E0,-8.642973304E-1,1.261741161E0
2.630165270E1,-3.029889166E-1,2.278525680E-1,3.015533924E0
2.631831937E1,5.778780580E-1,-1.315726399E0,2.053421974E0
2.633498604E1,1.353065491E0,-1.078710794E0,1.909257889E0
2.635165270E1,1.633452415E0,-9.369902015E-1,1.804800034E0
2.636831937E1,2.300516844E0,-4.305832982E-1,7.779362798E-1
2.638498603E1,1.561981201E0,5.505724430E0,-3.295615613E-1
2.640165270E1,1.561981201E0,5.505724430E0,-3.295615613E-1
2.641831937E1,-2.010355949E0,2.623053312E0,-1.014951825E0
2.643498603E1,-2.010355949E0,2.623053312E0,-1.014951825E0
2.645165270E1,-4.239401340E0,-3.774457216E0,-4.147466183E0
2.646831936E1,-4.239401340E0,-3.774457216E0,-4.147466183E0
2.648498603E1,-3.915643215E0,3.562563419E0,-1.113392735E1
2.650165270E1,-3.310887098E0,8.651066780E0,-8.417410851E0
2.651831936E1,3.573558927E-1,3.746433735E0,-3.421148300E0
2.653498603E1,-6.792816520E-1,2.748891413E-1,-1.493258953E0
2.655165269E1,-7.831286192E-1,2.431241870E-1,-1.262352109E0
2.656831936E1,-8.796452731E-2,-2.418260872E-1,-8.115338683E-1
2.658498603E1,-8.796452731E-2,-2.418260872E-1,-8.115338683E-1
2.660165269E1,1.140484571E0,4.123337269E-1,3.912588954E-1
2.661831936E1,1.336572170E0,1.255937934E0,5.415316224E-1
2.663498602E1,1.615737319E0,1.838092089E0,5.232056975E-1
2.665165269E1,1.615737319E0,1.838092089E0,5.232056975E-1
2.666831936E1,6.145299673E-1,1.887572169E0,1.039997339E0
2.668498602E1,1.997527778E-1,1.469740629E0,1.264795542E0
2.670165269E1,-5.229002237E-1,-2.186132371E-1,1.608712435E0
2.671831935E1,-1.655443609E-1,-2.828838348E0,1.561064959E0
2.673498602E1,-1.655443609E-1,-2.828838348E0,1.561064959E0
2.675165269E1,7.367029190E-1,-6.343143463E0,8.909462690E-1
2.676831935E1,7.367029190E-1,-6.343143463E0,8.909462690E-1
2.678498602E1,7.367029190E-1,-6.343143463E0,8.909462690E-1
2.680165268E1,7.367029190E-1,-6.343143463E0,8.909462690E-1
2.681831935E1,2.919933498E-1,2.804480314E0,-4.914407134E-1
2.683498602E1,2.919933498E-1,2.804480314E0,-4.914407134E-1
2.685165268E1,-4.960221946E-1,-6.657127857E0,-1.951712966E-1
2.686831935E1,-4.960221946E-1,-6.657127857E0,-1.951712966E-1
2.688498601E1,-1.603520036E0,-4.403037071E0,4.526813507E0
2.690165268E1,-1.118493438E0,-1.905821800E0,4.901884556E0
2.691831935E1,-4.599811733E-1,-8.190932870E-1,4.090044975E0
2.693498601E1,-4.599811733E-1,-8.190932870E-1,4.090044975E0
2.695165268E1,2.174678564E0,-7.873283625E-1,2.114508390E0
2.696831934E1,3.289506912E0,-2.420780659E0,1.430339932E0
2.698498601E1,4.073246479E0,3.054323912E0,1.931249022E0
2.700165268E1,1.205236197E0,5.274206638E0,3.196349859E0
2.701831934E1,-1.050076604E0,-4.214203358E-1,2.973995209E0
2.703498601E1,-1.050076604E0,-4.214203358E-1,2.973995209E0
2.705165267E1,1.214399219E0,-5.292456150E0,7.480039001E-1
2.706831934E1,1.515555501E0,-4.706636906E0,-1.618791744E-2
2.708498601E1,1.086728454E0,5.660273075E0,-1.474322200E0
2.710165267E1,7.086031139E-2,6.461116791E0,-1.710115910E0
2.711831934E1,7.086031139E-2,6.461116791E0,-1.710115910E0
2.713498600E1,-2.230878115E0,2.016464710E0,-1.492648125E0
2.715165267E1,-3.497200966E0,-1.841070056E0,-2.178038359E0
2.716831934E1,-4.206414700E0,-4.780551434E0,-4.133416653E0
2.718498600E1,-4.206414700E0,-4.780551434E0,-4.133416653E0
2.720165267E1,-4.188699722E0,7.582664490E0,-1.034468937E1
2.721831933E1,-4.188699722E0,7.582664490E0,-1.034468937E1
2.723498600E1,1.387884736E0,2.207054377E0,-2.914741278E0
2.725165267E1,1.387884736E0,2.207054377E0,-2.914741278E0
2.726831933E1,-4.086685479E-1,-5.026653409E-1,-5.329795480E-1
2.728498600E1,2.535088956E-1,-1.880699992E-1,-7.727439702E-2
2.730165266E1,7.470875978E-1,-1.153007243E-2,2.886336148E-1
2.731831933E1,7.470875978E-1,-1.153007243E-2,2.886336148E-1
2.733498600E1,1.347567677E0,4.612029195E-1,5.396990180E-1
2.735165266E1,1.304196358E0,5.412262082E-1,4.486801922E-1
2.736831933E1,1.304196358E0,5.412262082E-1,4.486801922E-1
2.738498599E1,-1.009759426E0,-1.285794020E0,1.408348799E0
2.740165266E1,-1.241888046E0,-2.270508051E0,1.603214622E0
2.741831933E1,-6.695078015E-1,-3.422599077E0,1.341764450E0
2.743498599E1,-5.558869615E-2,-4.196564674E0,9.434806705E-1
2.745165266E1,-5.558869615E-2,-4.196564674E0,9.434806705E-1
2.746831932E1,4.599811733E-1,-4.779329777E0,7.199041247E-1
2.748498599E1,4.599811733E-1,-4.779329777E0,7.199041247E-1
2.750165266E1,3.079980135E0,3.387856007E0,-3.827067912E-1
2.751831932E1,3.079980135E0,3.387856007E0,-3.827067912E-1
2.753498599E1,-2.252869368E0,2.722624302E0,1.249218509E-1
2.755165265E1,-2.747669697E0,9.999856353E-1,-1.444695145E-1
2.756831932E1,-2.747669697E0,9.999856353E-1,-1.444695145E-1
2.758498599E1,-2.747669697E0,9.999856353E-1,-1.444695145E-1
2.760165265E1,-6.536252797E-2,-2.768362761E0,2.637408733E0
2.761831932E1,-5.064069033E-1,-2.759199858E0,3.286757946E0
2.763498598E1,-5.064069033E-1,-2.759199858E0,3.286757946E0
2.765165265E1,9.755510688E-1,-1.589393854E0,3.193295717E0
2.766831932E1,9.755510688E-1,-1.589393854E0,3.193295717E0
2.768498598E1,1.985310555E0,2.571129799E0,2.877478600E0
2.770165265E1,1.985310555E0,2.571129799E0,2.877478600E0
2.771831931E1,7.812960744E-1,-5.826886296E-1,2.921460867E0
2.773498598E1,7.812960744E-1,-5.826886296E-1,2.921460867E0
2.775165265E1,2.724457026E0,-1.762879372E0,1.788306594E0
2.776831931E1,2.724457026E0,-1.762879372E0,1.788306594E0
2.778498598E1,1.588248461E-1,6.583900452E0,-2.501491308E-1
2.780165264E1,-2.014631987E0,4.792234421E0,-7.107411623E-1
2.781831931E1,-2.014631987E0,4.792234421E0,-7.107411623E-1
2.783498598E1,-3.417788506E0,-2.531958103E0,-3.251938581E0
2.785165264E1,-3.894873857E0,-3.895408392E0,-3.850586176E0
2.785165264E1,-3.894873857E0,-3.895408392E0,-3.850586176E0
2.788498597E1,-3.894873857E0,-3.895408392E0,-3.850586176E0
2.790165264E1,-1.806938052E0,9.806212425E0,-7.016087532E0
2.791831931E1,-1.588248461E-1,8.111673355E0,-4.842630386E0
2.793498597E1,-2.565632164E-1,1.511890292E0,-1.754709125E0
2.795165264E1,-4.709767401E-1,-1.532506943E-1,-7.980948091E-1
2.796831930E1,-4.709767401E-1,-1.532506943E-1,-7.980948091E-1
2.798498597E1,5.937605500E-1,-6.840922236E-1,-1.860083193E-1
2.800165264E1,7.739656568E-1,-7.292962074E-1,9.987638891E-2
2.801831930E1,1.020144224E0,5.137372613E-1,3.686569035E-1
2.803498597E1,1.020144224E0,5.137372613E-1,3.686569035E-1
2.805165263E1,1.415984511E0,7.312051654E-1,3.857611120E-1
2.806831930E1,1.415984511E0,7.312051654E-1,3.857611120E-1
2.808498597E1,-7.886264324E-1,-2.845866382E-1,1.033277750E0
2.810165263E1,-7.886264324E-1,-2.845866382E-1,1.033277750E0
2.811831930E1,-1.174692988E0,-1.688964725E0,1.828623772E0
2.813498596E1,-2.590066791E-1,-3.309588909E0,1.667966247E0
2.815165263E1,-2.590066791E-1,-3.309588909E0,1.667966247E0
2.816831930E1,-2.590066791E-1,-3.309588909E0,1.667966247E0
2.818498596E1,-2.590066791E-1,-3.309588909E0,1.667966247E0
2.820165263E1,3.437947035E0,3.101360559E0,-3.759872615E-1
2.821831929E1,3.437947035E0,3.101360559E0,-3.759872615E-1
2.823498596E1,1.062904745E-1,2.674365997E0,2.489273995E-1
2.825165263E1,-2.505156517E0,3.009119987E0,-2.901607752E-2
2.826831929E1,6.053670049E-1,2.373209715E0,-6.288852692E-1
2.828498596E1,6.053670049E-1,2.373209715E0,-6.288852692E-1
2.830165262E1,-7.043271065E-1,-3.388390541E0,2.671617031E0
2.831831929E1,-7.043271065E-1,-3.388390541E0,2.671617031E0
2.833498596E1,-1.007926911E-1,-2.869766474E0,3.958709240E0
2.835165262E1,-1.007926911E-1,-2.869766474E0,3.958709240E0
2.836831929E1,2.628551245E0,-1.551520228E0,3.105942011E0
2.838498595E1,3.583943605E0,-4.633944035E0,2.107789040E0
2.840165262E1,2.112981319E0,3.153894901E0,3.239721298E0
2.841831929E1,2.112981319E0,3.153894901E0,3.239721298E0
2.843498595E1,2.112981319E0,3.153894901E0,3.239721298E0
2.845165262E1,1.917504549E0,-3.566763163E0,1.819460750E0
2.846831928E1,1.917504549E0,-3.566763163E0,1.819460750E0
2.848498595E1,-5.717694163E-1,7.407957077E0,-1.628260016E0
2.850165262E1,-1.948047757E0,6.467225552E0,-2.094349861E0
2.851831928E1,-3.077536821E0,1.844811678E0,-3.279427528E0
2.853498595E1,-3.077536821E0,1.844811678E0,-3.279427528E0
2.855165261E1,-3.077536821E0,1.844811678E0,-3.279427528E0
2.856831928E1,-5.569865227E0,-4.804986000E0,-4.487107277E0
2.858498595E1,-5.569865227E0,-4.804986000E0,-4.487107277E0
2.860165261E1,-1.227227330E0,7.315105915E0,-6.324588299E0
2.861831928E1,-1.227227330E0,7.315105915E0,-6.324588299E0
2.863498594E1,-9.321796298E-1,3.280954838E0,-2.402225733E0
2.865165261E1,-9.321796298E-1,3.280954838E0,-2.402225733E0
2.866831928E1,-9.321796298E-1,3.280954838E0,-2.402225733E0
2.868498594E1,-9.321796298E-1,3.280954838E0,-2.402225733E0
2.870165261E1,1.169195175E0,-1.789757490E0,-3.185659945E-1
2.871831927E1,1.247996688E0,-3.444513679E-1,-7.788526267E-2
2.873498594E1,1.247996688E0,-3.444513679E-1,-7.788526267E-2
2.875165261E1,1.247996688E0,-3.444513679E-1,-7.788526267E-2
2.876831927E1,1.663995624E0,8.588758707E-1,1.261435747E-1
2.878498594E1,4.263836145E-1,-6.871465445E-1,4.224129915E-1
2.880165260E1,-1.518609881E0,-1.990121126E0,1.186604857E0
2.881831927E1,-1.518609881E0,-1.990121126E0,1.186604857E0
2.883498594E1,-1.288924664E-1,-2.365192175E0,1.101694584E0
2.885165260E1,6.603448391E-1,-3.285154343E0,4.309650958E-1
2.886831927E1,8.662062287E-1,-4.337674618E0,1.188132018E-1
2.888498593E1,8.936951756E-1,-4.294913769E0,4.001164436E-2
2.890165260E1,3.243081093E0,6.486162186E0,-8.903354406E-1
2.891831927E1,2.964526892E0,6.002357483E0,-3.753764033E-1
2.893498593E1,3.292561173E-1,3.867995739E0,1.682932526E-1
2.895165260E1,-2.239430189E0,2.760498047E0,6.374374032E-1
2.896831926E1,-3.479485750E0,-5.001455545E-2,1.416290045E0
2.898498593E1,2.621220827E0,-3.959549189E0,9.428697824E-1
2.900165260E1,1.245553255E0,-3.538663387E0,2.132223606E0
2.901831926E1,6.273581386E-1,-3.582645655E0,2.633743525E0
2.903498593E1,-2.015853822E-1,-2.825784206E0,3.231780052E0
2.905165259E1,2.315177470E-1,-1.827631116E0,2.934899807E0
2.906831926E1,2.416581154E0,-9.638682604E-1,2.071748018E0
2.908498593E1,2.985296249E0,-8.300888538E-1,1.871995091E0
2.910165259E1,2.985296249E0,-8.300888538E-1,1.871995091E0
2.911831926E1,2.985296249E0,-8.300888538E-1,1.871995091E0
2.913498592E1,2.985296249E0,-8.300888538E-1,1.871995091E0
2.915165259E1,2.111148596E0,-5.411498547E-1,2.353356600E0
2.916831926E1,1.992030025E0,2.944368124E-1,1.724165797E0
2.918498592E1,1.334739566E0,4.468475819E0,4.963276386E-1
2.920165259E1,1.334739566E0,4.468475819E0,4.963276386E-1
2.921831925E1,-9.462295175E-1,3.904647589E0,-4.184423760E-2
2.923498592E1,-9.462295175E-1,3.904647589E0,-4.184423760E-2
2.925165259E1,-3.191768408E0,-3.742081165E0,-3.555538416E0
2.926831925E1,-3.191768408E0,-3.742081165E0,-3.555538416E0
2.928498592E1,-3.191768408E0,-3.742081165E0,-3.555538416E0
2.930165258E1,-4.709156513E0,5.205178738E0,-1.042349148E1
2.931831925E1,-4.709156513E0,5.205178738E0,-1.042349148E1
2.933498592E1,9.608902931E-1,6.540529251E0,-2.955058336E0
2.935165258E1,3.988946974E-1,3.096473455E0,-1.723554969E0
2.936831925E1,3.988946974E-1,3.096473455E0,-1.723554969E0
2.938498591E1,3.988946974E-1,3.096473455E0,-1.723554969E0
2.940165258E1,9.914335608E-1,-1.244866014E0,-1.750127524E-1
2.941831925E1,1.222340465E0,-1.703549176E-1,-9.926552325E-2
2.943498591E1,1.222340465E0,-1.703549176E-1,-9.926552325E-2
2.945165258E1,1.363450170E0,6.133082509E-1,1.041218996E0
2.945165258E1,1.363450170E0,6.133082509E-1,1.041218996E0
2.948498591E1,4.190532267E-1,-8.337540627E-1,1.244026065E0
2.950165258E1,4.190532267E-1,-8.337540627E-1,1.244026065E0
2.951831924E1,-1.814268351E0,-3.267439365E0,2.584874392E0
2.953498591E1,-1.441640854E0,-3.349295139E0,2.245233536E0
2.955165257E1,-8.588758707E-1,-3.159927130E0,1.713170290E0
2.956831924E1,1.948658675E-1,-3.330969334E0,1.159726739E0
2.958498591E1,9.798271060E-1,-3.521559000E0,5.934551358E-1
2.960165257E1,1.874744058E0,-2.162384987E0,2.116646469E-1
2.961831924E1,1.874744058E0,-2.162384987E0,2.116646469E-1
2.963498590E1,2.632216454E0,2.030514479E0,-5.855138898E-1
2.965165257E1,2.632216454E0,2.030514479E0,-5.855138898E-1
2.966831924E1,-1.188132048E0,4.411054611E0,1.548542231E-1
2.968498590E1,-8.173370957E-1,2.361603260E0,-2.684750557E-1
2.970165257E1,2.405585527E0,-1.768988013E0,3.203985691E-1
2.971831923E1,2.405585527E0,-1.768988013E0,3.203985691E-1
2.973498590E1,7.696896195E-1,-1.850843906E0,2.649626017E0
2.975165257E1,1.857028902E-1,-1.916817307E0,3.570810080E0
2.976831923E1,7.483093739E-1,-2.808679819E0,3.597077370E0
2.978498590E1,1.089782715E0,-2.776304007E0,3.272707939E0
2.980165256E1,8.515455127E-1,-1.428736329E0,3.165806770E0
2.981831923E1,8.686497211E-1,1.135597587E0,3.160919905E0
2.983498590E1,8.686497211E-1,1.135597587E0,3.160919905E0
2.985165256E1,2.045786142E0,-9.968549609E-1,3.019809961E0
2.986831923E1,2.593731880E0,-1.404912591E0,2.707658052E0
2.988498589E1,2.990793943E0,2.776991367E0,1.639255643E0
2.990165256E1,2.990793943E0,2.776991367E0,1.639255643E0
2.991831923E1,-1.486844897E0,4.001775265E0,-1.817322671E-1
2.993498589E1,-2.038455725E0,3.160614252E0,-7.993165851E-1
2.995165256E1,-2.786154270E0,-7.036398649E-1,-2.749807835E0
2.996831922E1,-2.786154270E0,-7.036398649E-1,-2.749807835E0
2.998498589E1,-5.353008270E0,-6.017552376E0,-5.495034218E0
3.000165256E1,-5.919890404E0,-6.041986942E0,-6.678279400E0
3.001831922E1,-3.522857189E0,7.533184528E0,-1.088408279E1
3.003498589E1,-3.522857189E0,7.533184528E0,-1.088408279E1
3.005165255E1,-3.522857189E0,7.533184528E0,-1.088408279E1
3.006831922E1,1.221729536E-2,1.749516726E0,-2.184147120E0
3.008498589E1,-4.471530318E-1,-2.748127878E-1,-8.268054724E-1
3.010165255E1,-4.471530318E-1,-2.748127878E-1,-8.268054724E-1
3.011831922E1,6.432406306E-1,-2.001116753E0,1.792888194E-1
3.013498588E1,7.739656568E-1,-9.827287495E-2,6.453786492E-1
3.015165255E1,7.739656568E-1,-9.827287495E-2,6.453786492E-1
3.016831922E1,7.739656568E-1,-9.827287495E-2,6.453786492E-1
3.018498588E1,3.842339516E-1,-3.077994883E-1,8.164207935E-1
3.020165255E1,-1.221729559E-3,6.902772188E-2,8.585704565E-1
3.021831921E1,-3.029889166E-1,3.518581092E-1,1.038775563E0
3.023498588E1,-3.029889166E-1,3.518581092E-1,1.038775563E0
3.025165255E1,-9.841031432E-1,-6.773726940E-1,1.407127023E0
3.026831921E1,-5.027416945E-1,-1.646204233E0,1.223867536E0
3.028498588E1,-5.027416945E-1,-1.646204233E0,1.223867536E0
3.030165254E1,3.316995800E-1,-4.041405201E0,5.763509274E-1
3.031831921E1,1.094669700E0,-3.515450478E0,3.863719702E-1
3.033498588E1,2.608392715E0,-1.195996881E0,-2.941313982E-1
3.035165254E1,2.608392715E0,-1.195996881E0,-2.941313982E-1
3.036831921E1,2.608392715E0,-1.195996881E0,-2.941313982E-1
3.038498587E1,6.890554428E-1,4.653567791E0,-1.426369250E-1
3.040165254E1,6.890554428E-1,4.653567791E0,-1.426369250E-1
3.041831921E1,1.442251801E0,-2.944291830E0,6.899717450E-1
3.043498587E1,1.442251801E0,-2.944291830E0,6.899717450E-1
3.045165254E1,1.820377111E-1,-2.335870504E0,3.439474106E0
3.046831920E1,1.820377111E-1,-2.335870504E0,3.439474106E0
3.048498587E1,1.665217400E0,-2.287001371E0,3.721693754E0
3.050165254E1,1.665217400E0,-2.287001371E0,3.721693754E0
3.051831920E1,9.541707635E-1,2.003025532E0,3.284314394E0
3.053498587E1,5.937605500E-1,6.469057798E-1,3.077842236E0
3.055165253E1,1.455690742E0,-1.894826174E0,2.923293352E0
3.056831920E1,1.455690742E0,-1.894826174E0,2.923293352E0
3.058498587E1,2.886336088E0,-2.152611017E0,1.836565018E0
3.060165253E1,1.639561057E0,5.368279457E0,5.342012644E-1
3.061831920E1,1.639561057E0,5.368279457E0,5.342012644E-1
3.063498586E1,-2.342055559E0,1.717751741E0,-1.681405306E0
3.065165253E1,-2.927874804E0,3.005454838E-1,-2.314872026E0
3.066831920E1,-3.742768526E0,-2.592433691E0,-3.159087181E0
3.068498586E1,-3.742768526E0,-2.592433691E0,-3.159087181E0
3.070165253E1,-5.295586586E0,-2.604040146E0,-5.355145931E0
3.071831919E1,-4.593092442E0,4.180758476E0,-7.854804993E0
3.073498586E1,-4.102567673E0,1.038592339E1,-7.444914341E0
3.075165253E1,-4.102567673E0,1.038592339E1,-7.444914341E0
3.076831919E1,3.756818473E-1,2.294408083E0,-2.212857723E0
3.078498586E1,-8.509346247E-1,6.053670049E-1,-1.071762204E0
3.080165252E1,-8.509346247E-1,6.053670049E-1,-1.071762204E0
3.081831919E1,1.084285021E0,-1.624136716E-1,-3.692677617E-1
3.083498586E1,1.235168576E0,-5.503128171E-1,-3.112356067E-1
3.085165252E1,1.149036646E0,-4.489092529E-1,-1.127045527E-1
3.086831919E1,1.019533277E0,3.677406013E-1,2.696968019E-1
3.088498585E1,1.439197421E0,6.841685772E-1,3.961458206E-1
3.090165252E1,1.392160773E0,3.982838392E-1,3.833176494E-1
3.091831919E1,1.392160773E0,3.982838392E-1,3.833176494E-1
3.093498585E1,-1.946826100E0,-1.674304008E0,1.313664675E0
3.095165252E1,-1.946826100E0,-1.674304008E0,1.313664675E0
3.096831918E1,-9.731075764E-1,-4.329122543E0,1.474322200E0
3.098498585E1,-3.506363928E-1,-3.484296322E0,1.048549414E0
3.100165252E1,-2.773326039E-1,-3.301647663E0,8.371901512E-1
3.101831918E1,-2.773326039E-1,-3.301647663E0,8.371901512E-1
3.103498585E1,2.142302752E0,8.906408548E-1,-8.246674202E-3
3.105165251E1,2.150854826E0,2.431852579E0,-2.018908113E-1
3.106831918E1,6.786707640E-1,4.258338451E0,3.118464649E-1
3.108498585E1,6.786707640E-1,4.258338451E0,3.118464649E-1
3.110165251E1,-3.860665262E-1,2.931540012E0,1.696066022E0
3.111831918E1,4.191754341E0,-4.833696842E0,6.484329700E-1
3.113498584E1,3.374417067E0,-4.329733372E0,1.412013888E0
3.115165251E1,3.374417067E0,-4.329733372E0,1.412013888E0
3.116831918E1,7.024945319E-2,-4.423806190E0,3.718028545E0
3.118498584E1,1.162475705E0,-2.081750870E0,4.283078194E0
3.120165251E1,1.102610946E0,1.609017849E0,3.306305647E0
3.121831917E1,4.392117858E-1,2.059225082E0,2.173151493E0
3.123498584E1,7.055488229E-1,2.139248371E0,2.003942013E0
3.125165251E1,7.055488229E-1,2.139248371E0,2.003942013E0
3.126831917E1,1.692706347E0,-7.347939610E-1,2.185368776E0
3.128498584E1,1.692706347E0,-7.347939610E-1,2.185368776E0
3.130165250E1,5.186241865E-1,6.835576892E-1,9.825760126E-1
3.131831917E1,8.002328873E-2,1.172249556E0,2.428187430E-1
3.133498584E1,8.002328873E-2,1.172249556E0,2.428187430E-1
3.135165250E1,-2.229045630E0,3.115410507E-1,-7.559451461E-1
3.136831917E1,-2.913825035E0,-1.282739639E0,-1.210428596E0
3.138498583E1,-4.090350628E0,-3.897851706E0,-2.267835379E0
3.140165250E1,-4.680446148E0,-3.635790825E0,-4.768715858E0
3.141831917E1,-3.720166445E0,2.441015720E0,-8.240260124E0
3.143498583E1,-4.832551479E0,1.045006371E1,-9.905477524E0
3.145165250E1,-4.832551479E0,1.045006371E1,-9.905477524E0
3.146831916E1,1.227838174E-1,2.737895966E0,-1.141400814E0
3.148498583E1,-3.543015718E-1,1.610850453E0,-9.434806705E-1
3.150165250E1,-3.433060050E-1,-2.259436101E-1,-9.221003652E-1
3.151831916E1,5.717694163E-1,-1.029230833E0,-6.753110290E-1
3.153498583E1,5.717694163E-1,-1.029230833E0,-6.753110290E-1
3.155165249E1,1.130099893E0,3.127627671E-1,-2.788597643E-1
3.156831916E1,9.779945016E-1,9.706641436E-1,2.758054435E-1
3.158498583E1,9.779945016E-1,9.706641436E-1,2.758054435E-1
3.160165249E1,9.853248596E-1,-7.720566988E-1,3.197877109E-1
3.161831916E1,3.054323839E-3,-1.285183191E0,5.506945848E-1
3.163498582E1,-2.557690859E0,-2.400622129E0,1.606879830E0
3.165165249E1,-1.612683058E0,-2.707887173E0,1.608101487E0
3.166831916E1,-4.856374860E-1,-2.152611017E0,8.347467184E-1
3.168498582E1,1.386663020E-1,-2.299218655E0,4.230238497E-1
3.170165249E1,9.602794051E-1,-2.500193119E0,-4.089739621E-1
3.171831915E1,1.613293886E0,-1.484325051E0,-6.227766275E-1
3.173498582E1,3.307832718E0,2.904662132E0,-1.021060467E0
3.175165249E1,3.249800682E0,3.111745119E0,-9.556979537E-1
3.176831915E1,1.433699608E0,5.009702206E0,-6.575959325E-1
3.178498582E1,-1.639561057E0,3.544848204E0,1.003345370E0
3.180165248E1,-6.414080262E-1,-3.889299631E0,2.313650370E0
3.181831915E1,-9.682206511E-1,-4.666930676E0,3.488954306E0
3.183498582E1,-1.899789423E-1,-3.552713156E0,4.199389935E0
3.185165248E1,7.929024696E-1,-1.944917083E0,4.275136948E0
3.186831915E1,7.929024696E-1,-1.944917083E0,4.275136948E0
3.188498581E1,2.124587774E0,-3.007210970E0,2.630078316E0
3.190165248E1,2.124587774E0,-3.007210970E0,2.630078316E0
3.191831915E1,7.721330523E-1,2.903440237E0,3.498728037E0
3.193498581E1,9.279035926E-1,-1.320002437E0,3.001484156E0
3.195165248E1,1.590080976E0,-2.298607826E0,2.707047224E0
3.196831914E1,2.139859438E0,-2.797073364E0,2.200640440E0
3.198498581E1,2.139859438E0,-2.797073364E0,2.200640440E0
3.200165248E1,1.073289394E0,4.372570038E0,6.844739914E-1
3.201831914E1,7.086031437E-1,3.728107691E0,6.117810607E-1
3.203498581E1,-1.155756116E0,7.825177908E-1,2.718348242E-2
3.205165247E1,-1.155756116E0,7.825177908E-1,2.718348242E-2
3.206831914E1,-3.715279579E0,-2.275394917E0,-1.580612659E0
3.208498581E1,-5.033525944E0,-4.580264091E0,-2.821279049E0
3.210165247E1,-5.919279575E0,-4.962589264E0,-5.705782413E0
3.211831914E1,-6.860011578E0,5.893012524E0,-1.256884861E1
3.213498580E1,-8.222850800E0,1.104687881E1,-1.235993290E1
3.215165247E1,-2.944368124E0,1.421909904E1,-6.971494198E0
3.216831914E1,1.831372619E0,5.360338211E0,-2.220188141E0
3.218498580E1,-2.645044625E-1,1.158199668E0,-1.140789986E0
3.220165247E1,-2.687804997E-1,-8.478039503E-1,-1.087033868E0
3.221831913E1,3.408625424E-1,-2.932074547E0,-4.101957083E-1
3.223498580E1,3.408625424E-1,-2.932074547E0,-4.101957083E-1
3.225165247E1,9.425643682E-1,1.558926940E0,4.944950342E-1
3.226831913E1,1.024420261E0,1.830761790E0,6.392700076E-1
3.228498580E1,1.442862630E0,1.289535522E0,7.980948091E-1
3.230165246E1,8.796452880E-1,-2.687041461E-1,9.868520498E-1
3.231831913E1,-1.733023405E0,-1.930256367E0,1.729052782E0
3.233498580E1,-2.508821726E0,-2.738430500E0,2.155436277E0
3.235165246E1,-1.195462346E0,-3.249113321E0,2.108399868E0
3.236831913E1,-8.918625861E-2,-3.112890482E0,1.391855359E0
3.238498579E1,6.713404059E-1,-4.921661377E0,9.379828572E-1
3.240165246E1,9.492838383E-1,-5.056662083E0,8.994984031E-1
3.241831913E1,4.305985928E0,2.735452414E0,1.044884205E0
3.243498579E1,5.230834961E0,5.119657516E0,1.513417482E0
3.245165246E1,5.230834961E0,5.119657516E0,1.513417482E0
3.246831912E1,1.012202978E0,1.402545571E0,1.135292172E0
3.248498579E1,-1.736077666E0,-9.204968810E-1,-2.336557806E-1
3.250165246E1,9.792162180E-1,-2.315101147E0,-1.187215686E0
3.251831912E1,9.792162180E-1,-2.315101147E0,-1.187215686E0
3.253498579E1,-9.749401808E-1,-3.441535711E0,3.118770123E0
3.255165245E1,-4.673115611E-1,-4.770090282E-1,3.359450817E0
3.256831912E1,-1.276707351E-1,1.867413640E0,3.077842236E0
3.258498579E1,2.816086709E-1,1.307250559E-1,2.419940710E0
3.260165245E1,1.285870314E0,-8.288671374E-1,2.127336502E0
3.261831912E1,2.873507977E0,-2.751258612E0,2.052811146E0
3.263498578E1,2.873507977E0,-2.751258612E0,2.052811146E0
3.265165245E1,8.503237963E-1,1.037859201E0,3.065014124E0
3.266831912E1,1.323133111E0,-4.110356271E-1,2.814559460E0
3.268498578E1,1.861304998E0,-2.297386169E0,2.564715862E0
3.270165245E1,2.249204159E0,-2.299218655E0,2.024100542E0
3.271831911E1,2.300516844E0,-3.962985426E-2,1.716224551E0
3.273498578E1,1.276096582E0,6.254033566E0,1.057712317E0
3.275165245E1,-6.707295179E-1,3.742157698E0,8.219185472E-1
3.276831911E1,-6.707295179E-1,3.742157698E0,8.219185472E-1
3.278498578E1,-3.257741928E0,4.068359435E-1,-1.063820958E0
3.280165244E1,-4.512458324E0,-2.675511360E0,-2.701549530E0
3.281831911E1,-5.049408436E0,-4.081722260E0,-6.205470085E0
3.283498578E1,-4.538725376E0,6.068941593E0,-1.414549065E1
3.285165244E1,-5.504502296E0,9.102496147E0,-1.297934914E1
3.286831911E1,-4.636463821E-1,9.450689316E0,-6.251284599E0
3.288498577E1,7.947350740E-1,2.279136419E0,-1.929416418E0
3.290165244E1,-3.170388341E-1,-8.862884641E-1,-8.506292105E-1
3.291831911E1,-2.901607752E-1,-1.587561250E0,-8.481857181E-1
3.293498577E1,-1.166751757E-1,-2.182543516E0,-6.246092319E-1
3.295165244E1,4.196641147E-1,-5.338194370E-1,-3.515526950E-1
3.296831910E1,4.196641147E-1,-5.338194370E-1,-3.515526950E-1
3.298498577E1,9.224058390E-1,1.844200730E0,-2.138026757E-3
3.300165244E1,9.224058390E-1,1.844200730E0,-2.138026757E-3
3.301831910E1,-4.276053607E-2,1.191186309E-1,2.183841616E-1
3.303498577E1,-4.276053607E-2,1.191186309E-1,2.183841616E-1
3.305165243E1,-1.607796073E0,-2.196593285E0,1.005788803E0
3.306831910E1,-1.127656341E0,-3.042030334E0,1.171944022E0
3.308498577E1,-3.659079969E-1,-3.201465845E0,7.015781999E-1
3.310165243E1,3.304778337E-1,-4.179536819E0,4.951058924E-1
3.311831910E1,7.000510097E-1,-4.296135426E0,4.883863926E-1
3.313498576E1,7.000510097E-1,-4.296135426E0,4.883863926E-1
3.315165243E1,4.202749729E0,6.670643687E-1,8.768963814E-1
3.316831910E1,2.625496864E0,8.497129083E-1,1.082757831E0
3.318498576E1,9.352339506E-1,7.525854111E-1,1.477987289E0
3.320165243E1,-2.156352758E0,6.658425927E-1,1.029612541E0
3.321831909E1,-2.156352758E0,6.658425927E-1,1.029612541E0
3.323498576E1,2.223547846E-1,-2.911916018E0,2.766911983E0
3.325165243E1,2.474002391E-1,-2.546008110E0,3.505447626E0
3.326831909E1,9.584468603E-1,-3.499491513E-1,3.978256941E0
3.328498576E1,1.475238442E0,-1.404912591E0,3.422369957E0
3.330165242E1,1.918726325E0,-1.963243008E0,2.998429775E0
3.331831909E1,1.918726325E0,-1.963243008E0,2.998429775E0
3.333498576E1,4.544833899E-1,7.770199776E-1,2.933067322E0
3.335165242E1,4.544833899E-1,7.770199776E-1,2.933067322E0
3.336831909E1,1.182023406E0,3.280344009E-1,2.578154802E0
3.338498575E1,1.645058870E0,-1.007163301E-1,2.396117210E0
3.340165242E1,1.430034399E0,-5.001455545E-2,1.867719054E0
3.341831909E1,1.430034399E0,-5.001455545E-2,1.867719054E0
3.343498575E1,1.247996688E0,2.104429245E0,3.216203153E-1
3.345165242E1,-1.832594350E-2,3.391521215E0,-3.381136656E-1
3.346831908E1,-2.112981319E0,2.018908024E0,-6.856957078E-1
3.348498575E1,-2.112981319E0,2.018908024E0,-6.856957078E-1
3.350165242E1,-3.660301685E0,-2.482478142E0,-2.447429657E0
3.351831908E1,-4.127613544E0,-4.126315117E0,-4.622719288E0
3.353498575E1,-3.988336086E0,5.776948452E0,-1.033063984E1
3.355165241E1,-3.988336086E0,5.776948452E0,-1.033063984E1
3.356831908E1,-8.038980365E-1,9.240551949E0,-5.786416531E0
3.358498575E1,2.742782831E-1,1.913839340E0,-1.402240157E0
3.360165241E1,-6.786707640E-1,-4.451677203E-2,-7.993165851E-1
3.361831908E1,-5.864302069E-2,-3.157407343E-1,-4.535670877E-1
3.363498574E1,2.748891413E-1,-6.413316727E-1,-3.484983444E-1
3.365165241E1,7.061597109E-1,-5.949059129E-1,-2.959639728E-1
3.366831908E1,8.491020203E-1,6.927206516E-1,-1.212566569E-1
3.368498574E1,1.027474523E0,1.893069983E0,8.521563560E-2
3.370165241E1,1.280372620E0,1.879020095E0,-1.496618707E-2
3.371831907E1,1.222340465E0,1.255937934E0,-3.106247485E-1
3.373498574E1,1.222340465E0,1.255937934E0,-3.106247485E-1
3.375165241E1,1.222340465E0,1.255937934E0,-3.106247485E-1
3.376831907E1,-2.321286201E0,-4.047513485E0,1.448665857E0
3.378498574E1,-1.545487881E0,-3.443979263E0,1.039386392E0
3.380165240E1,-8.686497211E-1,-3.193524599E0,6.869174242E-1
3.381831907E1,-8.686497211E-1,-3.193524599E0,6.869174242E-1
3.383498574E1,1.411097646E-1,-3.319973707E0,1.298087686E-1
3.385165240E1,2.708574533E0,5.082395077E-1,-2.715294063E-1
3.386831907E1,3.332878351E0,1.907119870E0,-3.833176494E-1
3.388498573E1,1.759901404E0,3.351204157E0,5.329795480E-1
3.390165240E1,1.252272725E-1,3.179551125E0,1.487761140E0
3.391831907E1,-3.805687428E-1,8.460476995E-1,1.602603793E0
3.393498573E1,-3.805687428E-1,8.460476995E-1,1.602603793E0
3.395165240E1,2.266308308E0,-3.750633478E0,1.085812092E0
3.396831906E1,1.838703007E-1,-4.660821915E0,3.760788918E0
3.398498573E1,4.691441655E-1,-2.001116753E0,4.430296898E0
3.400165240E1,4.691441655E-1,-2.001116753E0,4.430296898E0
3.401831906E1,2.579071045E0,9.370665550E-1,3.918392181E0
3.403498573E1,2.695746183E0,8.454368711E-1,3.837146997E0
3.405165239E1,1.267544389E0,1.025031090E0,3.336848974E0
3.406831906E1,9.926552773E-1,-7.946587205E-1,2.729649305E0
3.408498573E1,1.269376993E0,-1.557017922E0,2.459036112E0
3.410165239E1,1.670715213E0,-2.401233196E0,1.799913049E0
3.411831906E1,1.670715213E0,-2.401233196E0,1.799913049E0
