"Time (s)","Acceleration x (m/s^2)","Acceleration y (m/s^2)","Acceleration z (m/s^2)"
6.569484000E-3,1.320838094E0,5.140979290E0,7.566105366E0
1.613104600E-2,1.152144074E0,5.113461971E0,8.894122124E0
3.279771200E-2,0.000000000E0,0.000000000E0,0.000000000E0
4.946437800E-2,0.000000000E0,0.000000000E0,0.000000000E0
6.613104400E-2,0.000000000E0,0.000000000E0,0.000000000E0
8.279771000E-2,1.399801224E-1,5.621936798E0,7.288537979E0
9.946437600E-2,9.212366939E-1,5.910272121E0,8.200202942E0
1.161310420E-1,1.022931695E0,5.669793129E0,8.861818314E0
1.327977080E-1,1.022931695E0,5.669793129E0,8.861818314E0
1.494643740E-1,8.410771489E-1,5.142175674E0,9.772287369E0
1.661310400E-1,2.596212626E-1,4.932804108E0,9.436096191E0
1.827977060E-1,3.649054468E-1,5.162514687E0,8.906085968E0
1.994643720E-1,3.864408433E-1,5.375475883E0,9.132207870E0
2.161310380E-1,3.254238665E-1,5.298905849E0,9.552147865E0
2.327977040E-1,1.591227055E-1,5.332405090E0,9.428917885E0
2.494643700E-1,8.662018180E-1,5.649454117E0,1.031186962E1
2.661310360E-1,1.482353687E0,5.961717606E0,1.006899738E1
2.827977020E-1,1.826920033E0,6.019145489E0,9.975677490E0
2.994643680E-1,1.910668850E0,5.008177757E0,1.148315620E1
3.161310340E-1,4.654040039E-1,3.309273720E0,1.102134132E1
3.327977000E-1,4.654040039E-1,3.309273720E0,1.102134132E1
3.494643660E-1,-8.338986635E-1,2.593819857E0,9.873982430E0
3.661310320E-1,-8.733802438E-1,2.202593327E0,9.212367058E0
3.827976980E-1,-1.728814363E0,1.824527264E0,8.638090134E0
3.994643640E-1,-1.728814363E0,1.824527264E0,8.638090134E0
4.161310300E-1,-5.802595019E-1,1.679761529E0,9.570094109E0
4.327976960E-1,-1.008574724E0,1.622333765E0,7.872386456E0
4.494643620E-1,-1.110269666E0,1.670190215E0,7.692924976E0
4.661310280E-1,-1.110269666E0,1.670190215E0,7.692924976E0
4.827976940E-1,1.471585929E-1,3.064009428E0,8.839086533E0
4.994643600E-1,6.723831892E-1,3.369094372E0,8.818747520E0
5.161310260E-1,1.417747378E0,3.766302824E0,8.403593063E0
5.327976920E-1,1.417747378E0,3.766302824E0,8.403593063E0
5.494643580E-1,2.099701881E0,4.448257446E0,8.379665375E0
5.661310240E-1,2.059023857E0,4.496113777E0,8.606983185E0
5.827976900E-1,1.769492388E0,3.793820381E0,8.908478737E0
5.994643560E-1,1.769492388E0,3.793820381E0,8.908478737E0
6.161310220E-1,2.193022013E0,3.013760090E0,9.780662537E0
6.327976880E-1,4.168296814E0,3.719642878E0,8.982656479E0
6.494643540E-1,4.168296814E0,3.719642878E0,8.982656479E0
6.661310200E-1,6.111268997E0,4.198207378E0,8.061419487E0
6.827976860E-1,3.684946775E0,-1.071984529E0,8.566305041E-1
6.994643520E-1,6.808776855E0,6.585047722E0,1.111585712E1
7.161310180E-1,3.438486099E0,2.976671457E0,1.291167068E1
7.327976840E-1,1.124626637E0,1.596012712E0,1.113141060E1
7.494643500E-1,2.464607239E0,1.265803218E0,8.994620323E0
7.661310160E-1,3.397808075E0,3.582055569E0,4.630111694E0
7.827976820E-1,6.506084919E0,3.809373617E0,6.683153629E0
7.994643480E-1,7.594819069E0,3.893122435E0,8.666803360E0
8.161310140E-1,7.733603001E0,4.268795490E0,9.564111710E0
8.327976800E-1,6.884150982E0,4.764110088E0,6.558726788E0
8.494643460E-1,5.443671703E0,3.227917671E0,8.367700577E0
8.661310120E-1,5.443671703E0,3.227917671E0,8.367700577E0
8.827976780E-1,4.922036171E0,-5.024927258E-1,5.781059742E0
8.994643440E-1,6.264409542E0,-7.322037220E-1,7.310073376E0
9.161310100E-1,7.144968510E0,-3.397808075E-1,8.185846329E0
9.327976760E-1,7.336394310E0,-1.423729420E0,6.041877270E0
9.494643420E-1,7.228717327E0,-2.065006018E0,7.020541668E0
9.661310080E-1,6.142375946E0,-3.110669374E0,5.599205017E0
9.827976740E-1,6.628118515E0,-4.168296814E0,4.094119549E0
9.994643400E-1,7.755138397E0,-3.924229145E0,5.032105923E0
1.016131006E0,7.764709473E0,-4.283152580E0,6.233303070E0
1.032797672E0,7.824530125E0,-4.981856823E0,7.219145775E0
1.049464338E0,8.458627701E0,-3.701696634E0,9.265008926E0
1.066131004E0,6.288337708E0,-5.481956482E0,7.401000500E0
1.082797670E0,3.165704250E0,-7.759923935E0,6.699903488E0
1.099464336E0,4.146761417E0,-6.594619274E0,6.809973240E0
1.116131002E0,4.342973232E0,-6.704689026E0,5.084748268E0
1.132797668E0,4.350151539E0,-6.506084919E0,4.173082829E0
1.149464334E0,5.084748268E0,-5.668596745E0,6.740581512E0
1.166131000E0,4.843072891E0,-5.752345562E0,7.520641804E0
1.182797666E0,4.843072891E0,-5.752345562E0,7.520641804E0
1.199464332E0,3.194418192E0,-7.518248558E0,6.910471916E0
1.216130998E0,2.981456995E0,-6.250052929E0,5.541777134E0
1.232797664E0,3.278167009E0,-6.149554253E0,4.426722050E0
1.249464330E0,3.278167009E0,-6.149554253E0,4.426722050E0
1.266130996E0,4.620540619E0,-4.761716843E0,8.934800148E0
1.282797662E0,4.620540619E0,-4.761716843E0,8.934800148E0
1.299464328E0,9.786644578E-1,-9.085547447E0,5.273781300E0
1.316130994E0,2.400001049E0,-7.233502865E0,4.189832687E0
1.332797660E0,2.660818815E0,-6.226124287E0,4.883750916E0
1.349464326E0,1.584048629E0,-6.314659119E0,4.869394302E0
1.366130992E0,-3.158525825E-1,-6.963113785E0,7.604390144E0
1.382797658E0,-1.840080619E0,-8.578269005E0,9.451649666E0
1.399464324E0,-1.701296926E0,-9.174081802E0,9.669396400E0
1.416130990E0,-7.872386575E-1,-8.819944382E0,9.303294182E0
1.432797656E0,-1.931007862E0,-7.989634991E0,8.358129501E0
1.449464322E0,-3.048455954E0,-6.264409542E0,7.697710514E0
1.466130988E0,-3.223132133E0,-4.713860512E0,8.195417404E0
1.482797654E0,-2.938386202E0,-3.347558975E0,7.925028801E0
1.499464320E0,-5.211567879E0,-5.740381718E0,4.290330887E0
1.516130986E0,-6.592226505E0,-6.608976364E0,1.646261930E0
1.532797652E0,-7.733603001E0,-7.384250641E0,-2.361716032E0
1.549464318E0,-8.511270523E0,-8.085348129E0,-2.545963287E0
1.566130984E0,-1.064566803E1,-9.030512810E0,-4.187439680E-1
1.582797650E0,-9.410971642E0,-8.047062874E0,1.435693540E-2
1.599464316E0,-7.228717327E0,-5.257031441E0,-1.402194023E0
1.616130982E0,-7.156932354E0,-6.343372822E0,-1.332802176E0
1.632797648E0,-5.692524910E0,-6.769295216E0,7.417750359E-2
1.649464314E0,-5.170889854E0,-6.814758778E0,9.092726111E-1
1.666130980E0,-9.286544800E0,-9.643074989E0,1.545524120E1
1.682797646E0,-7.197610378E0,-8.602197647E0,1.297149181E1
1.699464312E0,2.847459018E-1,-1.686939955E0,1.536670685E1
1.716130978E0,8.973084688E-1,9.571290575E-3,1.740299988E1
1.732797644E0,8.183453679E-1,2.055434704E0,1.417268848E1
1.749464310E0,-5.814558864E-1,1.399801254E0,5.761917114E0
1.766130976E0,-5.814558864E-1,1.399801254E0,5.761917114E0
1.782797642E0,-5.814558864E-1,1.399801254E0,5.761917114E0
1.799464308E0,-5.814558864E-1,1.399801254E0,5.761917114E0
1.816130974E0,-5.814558864E-1,1.399801254E0,5.761917114E0
1.832797640E0,-3.981656790E0,-6.434299946E0,5.558526993E0
1.849464306E0,-3.981656790E0,-6.434299946E0,5.558526993E0
1.866130972E0,-3.981656790E0,-6.434299946E0,5.558526993E0
1.882797638E0,-3.981656790E0,-6.434299946E0,5.558526993E0
1.899464304E0,-3.981656790E0,-6.434299946E0,5.558526993E0
1.916130970E0,-3.981656790E0,-6.434299946E0,5.558526993E0
1.932797636E0,-3.023331404E0,-4.419543266E0,8.209774017E0
1.949464302E0,-3.023331404E0,-4.419543266E0,8.209774017E0
1.966130968E0,-2.484946251E0,-2.513660192E0,5.973681927E0
1.982797634E0,-2.378465652E0,-3.499503136E0,1.020419216E1
1.999464300E0,-3.887140274E0,-5.444868088E0,6.288337708E0
2.016130966E0,-1.757528186E0,-4.524827480E0,3.451646566E0
2.032797632E0,1.196411345E-2,-5.070391178E0,6.838686943E0
2.049464298E0,-4.474578202E-1,-5.496313572E0,8.569893837E0
2.066130964E0,-1.649851203E0,-7.923832417E0,6.385247231E0
2.082797630E0,-1.649851203E0,-7.923832417E0,6.385247231E0
2.099464296E0,8.877372146E-1,-5.773880959E0,4.987838745E0
2.116130962E0,8.877372146E-1,-5.773880959E0,4.987838745E0
2.132797628E0,8.877372146E-1,-5.773880959E0,4.987838745E0
2.149464294E0,3.631108284E0,-9.005388260E0,1.957328916E0
2.166130960E0,4.498506546E0,-9.973284721E0,2.437089920E0
2.182797626E0,6.751348972E0,-6.425925255E0,5.123033047E0
2.199464292E0,6.751348972E0,-6.425925255E0,5.123033047E0
2.216130958E0,6.751348972E0,-6.425925255E0,5.123033047E0
2.232797624E0,8.335397720E0,-6.713063717E0,4.533202648E0
2.249464290E0,7.405786037E0,-1.069830990E1,5.675775528E0
2.266130956E0,7.520641804E0,-1.098544884E1,1.395015597E0
2.282797622E0,7.520641804E0,-1.098544884E1,1.395015597E0
2.299464288E0,7.518248558E0,-6.934400082E0,3.897907972E0
2.316130954E0,7.518248558E0,-6.934400082E0,3.897907972E0
2.332797620E0,8.837890625E0,-7.831708431E0,2.219342947E0
2.349464286E0,8.837890625E0,-7.831708431E0,2.219342947E0
2.366130952E0,8.359326363E0,-9.978070259E0,-9.846464992E-1
2.382797618E0,9.065208435E0,-8.364111900E0,5.611169338E-1
2.399464284E0,9.065208435E0,-8.364111900E0,5.611169338E-1
2.416130950E0,7.104290485E0,-7.807780266E0,8.135596663E-2
2.432797616E0,6.398407936E0,-7.629515171E0,-4.857429862E-1
2.449464282E0,6.246463299E0,-6.226124287E0,2.126022816E0
2.466130948E0,6.246463299E0,-6.226124287E0,2.126022816E0
2.482797614E0,6.813562393E0,-7.931010723E0,4.632504463E0
2.499464280E0,8.701499939E0,-5.632704735E0,-2.027917147E0
2.516130946E0,8.701499939E0,-5.632704735E0,-2.027917147E0
2.532797612E0,2.854637384E0,-8.139185905E0,7.848458290E-1
2.549464278E0,2.854637384E0,-8.139185905E0,7.848458290E-1
2.566130944E0,6.407979012E0,-6.443871498E0,1.168893814E0
2.582797610E0,6.407979012E0,-6.443871498E0,1.168893814E0
2.599464276E0,5.386243820E0,-7.117451191E0,2.775674164E-1
2.616130942E0,4.752145767E0,-7.714460373E0,9.583254457E-1
2.632797608E0,5.471189022E0,-7.792226791E0,2.496910334E0
2.649464274E0,7.489534855E0,-7.349554539E0,3.926621914E0
2.666130940E0,7.489534855E0,-7.349554539E0,3.926621914E0
2.682797606E0,8.702695847E0,-6.384050846E0,3.546163082E0
2.699464272E0,8.702695847E0,-6.384050846E0,3.546163082E0
2.716130938E0,6.317051888E0,-7.740781307E0,7.884350419E-1
2.732797604E0,6.317051888E0,-7.740781307E0,7.884350419E-1
2.749464270E0,7.524230957E0,-6.260820389E0,2.286342144E0
2.766130936E0,7.524230957E0,-6.260820389E0,2.286342144E0
2.782797602E0,7.524230957E0,-6.260820389E0,2.286342144E0
2.799464268E0,7.524230957E0,-6.260820389E0,2.286342144E0
2.816130934E0,7.375875950E0,-6.911668301E0,3.059223652E0
2.832797600E0,6.863811970E0,-6.471388817E0,4.266402721E0
2.849464266E0,4.141975880E0,-7.329215527E0,4.372883320E0
2.866130932E0,2.146361828E0,-8.063812256E0,1.411765337E0
2.882797598E0,1.118644595E0,-9.152546883E0,-3.469592929E-1
2.899464264E0,1.172483116E-1,-1.172243786E1,-1.435693651E-1
2.916130930E0,1.172483116E-1,-1.172243786E1,-1.435693651E-1
2.932797596E0,5.735595703E0,-7.217949390E0,4.363312244E0
2.949464262E0,6.492924213E0,-7.174878597E0,3.840480328E0
2.966130928E0,5.438885689E0,-7.755138397E0,3.236292601E0
2.982797594E0,5.438885689E0,-7.755138397E0,3.236292601E0
2.999464260E0,3.830909014E0,-8.885746956E0,3.315255880E0
3.016130926E0,4.114458561E0,-8.635697365E0,2.799602509E0
3.032797592E0,5.446064472E0,-7.584051132E0,2.645265341E0
3.049464258E0,5.446064472E0,-7.584051132E0,2.645265341E0
3.066130924E0,7.893921852E0,-4.849055290E0,3.839283943E0
3.082797590E0,6.282355785E0,-7.606783390E0,1.849651933E0
3.099464256E0,3.944568157E0,-8.490931511E0,3.686143398E0
3.116130922E0,3.944568157E0,-8.490931511E0,3.686143398E0
3.132797588E0,4.889732838E0,-8.947959900E0,3.040081263E0
3.149464254E0,4.657629490E0,-7.299305439E0,4.034298897E0
3.166130920E0,4.657629490E0,-7.299305439E0,4.034298897E0
3.182797586E0,5.643472195E0,-5.103890896E0,4.173082829E0
3.199464252E0,5.168497086E0,-5.477170944E0,2.926422119E0
3.216130918E0,5.453242779E0,-5.692524910E0,4.442275047E0
3.232797584E0,7.773084164E0,-4.098905087E0,7.216753006E0
3.249464250E0,7.773084164E0,-4.098905087E0,7.216753006E0
3.266130916E0,7.000202656E0,-5.367101192E0,6.492924213E0
3.282797582E0,7.000202656E0,-5.367101192E0,6.492924213E0
3.299464248E0,5.544169903E0,-9.279366493E0,4.630111694E0
3.316130914E0,5.544169903E0,-9.279366493E0,4.630111694E0
3.332797580E0,3.938585997E0,-7.268198967E0,5.097908497E0
3.349464246E0,4.600201607E0,-5.609972477E0,3.276970625E0
3.366130912E0,4.600201607E0,-5.609972477E0,3.276970625E0
3.382797578E0,4.631308079E0,-5.551348686E0,3.425325632E0
3.399464244E0,5.130211830E0,-5.230710506E0,3.290131092E0
3.416130910E0,1.670190215E0,-4.956732273E0,6.618547440E0
3.432797576E0,1.670190215E0,-4.956732273E0,6.618547440E0
3.449464242E0,1.670190215E0,-4.956732273E0,6.618547440E0
3.466130908E0,4.106083870E0,-4.749752998E0,6.674778938E0
3.482797574E0,6.628118515E0,-3.335594654E0,8.243273735E0
3.499464240E0,7.494320393E0,-1.290927768E0,8.061419487E0
3.516130906E0,7.494320393E0,-1.290927768E0,8.061419487E0
3.532797572E0,2.172683001E0,-2.106880426E0,6.227321148E0
3.549464238E0,2.654836655E0,-2.541177750E0,4.874179840E0
3.566130904E0,3.890729666E0,-3.598805189E0,4.707878590E0
3.582797570E0,3.890729666E0,-3.598805189E0,4.707878590E0
3.599464236E0,3.890729666E0,-3.598805189E0,4.707878590E0
3.616130902E0,2.073380709E0,-3.086741209E0,5.917450428E0
3.632797568E0,3.154936552E0,-2.271985054E0,5.691328526E0
3.649464234E0,4.405186653E0,-2.331805706E0,6.866204739E0
3.666130900E0,5.387440205E0,-2.005185366E0,9.005388260E0
3.682797566E0,5.387440205E0,-2.005185366E0,9.005388260E0
3.699464232E0,5.032105923E0,-3.227917671E0,7.399804115E0
3.716130898E0,4.938786030E0,-3.327219963E0,9.172885895E0
3.732797564E0,5.185246468E0,-3.297309637E0,8.992227554E0
3.749464230E0,5.893522263E0,-4.238885403E0,1.137189007E1
3.766130896E0,5.893522263E0,-4.238885403E0,1.137189007E1
3.782797562E0,4.616951466E0,-4.650450706E0,1.021974564E1
3.799464228E0,3.652643681E0,-5.370690346E0,7.913064480E0
3.816130894E0,3.619144201E0,-5.338387489E0,8.191828728E0
3.832797560E0,3.619144201E0,-5.338387489E0,8.191828728E0
3.849464226E0,4.254438877E0,-6.010770321E0,1.113500023E1
3.866130892E0,6.537191391E0,-3.236292601E0,1.138146114E1
3.882797558E0,7.458428383E0,-1.272981644E0,8.612964630E0
3.899464224E0,7.458428383E0,-1.272981644E0,8.612964630E0
3.916130890E0,6.037091732E0,-2.280359983E0,6.770491600E0
3.932797556E0,5.763113499E0,-2.566302299E0,8.189435959E0
3.949464222E0,6.392425537E0,-9.559326172E-1,9.784252167E0
3.966130888E0,6.392425537E0,-9.559326172E-1,9.784252167E0
3.982797554E0,7.429714203E0,2.486142635E0,9.797411919E0
3.999464220E0,7.429714203E0,2.486142635E0,9.797411919E0
4.016130886E0,5.103890896E0,2.082952023E0,6.167500496E0
4.032797552E0,5.103890896E0,2.082952023E0,6.167500496E0
4.049464218E0,7.710870743E0,3.044866800E0,4.916054249E0
4.066130884E0,1.159442234E1,3.948157310E0,6.093322754E0
4.082797550E0,1.587398529E1,2.451446772E0,6.588637352E0
4.099464216E0,1.587398529E1,2.451446772E0,6.588637352E0
4.116130882E0,1.509272861E1,-5.611169338E-1,7.518248558E0
4.132797548E0,1.509272861E1,-5.611169338E-1,7.518248558E0
4.149464214E0,1.605224991E1,-1.916650891E0,8.173882484E0
4.166130880E0,1.605224991E1,-1.916650891E0,8.173882484E0
4.182797546E0,1.605224991E1,-1.916650891E0,8.173882484E0
4.199464212E0,1.605224991E1,-1.916650891E0,8.173882484E0
4.216130878E0,1.605224991E1,-1.916650891E0,8.173882484E0
4.232797544E0,1.605224991E1,-1.916650891E0,8.173882484E0
4.249464210E0,1.605224991E1,-1.916650891E0,8.173882484E0
4.266130876E0,5.995217323E0,3.213560820E0,2.979064226E0
4.282797542E0,6.728617191E0,4.582255483E-1,7.142575383E-1
4.299464208E0,9.614361763E0,-1.607976794E0,3.424129248E0
4.316130874E0,1.058345413E1,-3.278166950E-1,6.683153629E0
4.332797540E0,8.494520187E0,3.055634499E0,9.119047165E0
4.349464206E0,8.233702660E0,2.548356056E0,8.087740898E0
4.366130872E0,8.336593628E0,1.136590719E0,6.771687865E-1
4.382797538E0,8.336593628E0,2.720639229E0,3.091526747E0
4.399464204E0,1.137547874E1,4.311866283E0,1.041835022E1
4.416130870E0,1.294517040E0,1.292124271E0,5.824130535E0
4.432797536E0,2.273181438E0,2.313859463E0,4.893322468E0
4.449464202E0,1.091127157E0,8.925228715E-1,5.879165173E0
4.466130868E0,1.524227977E0,-2.727817893E-1,5.950950146E0
4.482797534E0,3.723232031E0,-9.379864931E-1,6.257231236E0
4.499464200E0,5.154139996E0,-3.182454109E0,4.639683247E0
4.516130866E0,5.381458282E0,-4.362115860E0,5.000999451E0
4.532797532E0,6.891329288E0,-3.263810158E0,5.065605640E0
4.549464198E0,6.891329288E0,-3.263810158E0,5.065605640E0
4.566130864E0,1.204786205E1,1.861616015E0,3.816552162E0
4.582797530E0,8.767302513E0,2.426322222E0,5.477170944E0
4.599464196E0,6.477370739E0,2.306680918E0,5.173282623E0
4.616130862E0,6.362515450E0,2.682354212E0,1.562513232E0
4.632797528E0,7.446464062E0,3.763910055E0,8.327022791E-1
4.649464194E0,1.054038334E1,5.077569485E0,5.359922886E0
4.666130860E0,8.781659126E0,3.517449379E0,6.527620316E0
4.682797526E0,8.207381248E0,3.285345554E0,3.388236761E0
4.699464192E0,8.513663292E0,2.998206854E0,3.558127165E0
4.716130858E0,1.050449181E1,3.586841106E0,3.840480328E0
4.732797524E0,9.580862045E0,2.679961443E0,1.904686809E0
4.749464190E0,1.056191921E1,4.003192425E0,1.749153376E0
4.766130856E0,1.061216831E1,4.292723656E0,1.787438512E0
4.782797522E0,9.209974289E0,3.328416348E0,2.251646042E0
4.799464188E0,8.398807526E0,2.586641312E0,7.968099117E-1
4.816130854E0,7.611568928E0,1.423729420E0,5.000999570E-1
4.832797520E0,7.671389580E0,9.212366939E-1,9.427721500E-1
4.849464186E0,8.312665939E0,1.122233868E0,7.992027402E-1
4.866130852E0,7.121040344E0,1.902294040E0,4.929214716E-1
4.882797518E0,7.121040344E0,1.902294040E0,4.929214716E-1
4.899464184E0,1.344527054E1,2.579462767E0,-1.270588875E0
4.916130850E0,1.189950657E1,4.969892502E0,2.450250387E0
4.932797516E0,1.147358418E1,5.917450428E0,-2.153540403E-1
4.949464182E0,1.147358418E1,5.917450428E0,-2.153540403E-1
4.966130848E0,8.977870941E0,1.629512191E0,-1.852044702E0
4.982797514E0,8.623732567E0,-4.043870270E-1,-1.710868239E0
4.999464180E0,9.370293617E0,1.363908887E0,5.742774159E-2
5.016130846E0,9.370293617E0,1.363908887E0,5.742774159E-2
5.032797512E0,9.504291534E0,1.076770186E0,-1.083948612E0
5.049464178E0,7.429714203E0,-3.278166950E-1,-2.940778971E0
5.066130844E0,9.817750931E0,1.392622828E0,-3.378665686E0
5.082797510E0,9.817750931E0,1.392622828E0,-3.378665686E0
5.099464176E0,1.275135231E1,3.436093330E0,3.263810158E0
5.116130842E0,1.336391449E1,2.349751949E0,1.852044702E0
5.132797508E0,1.280399418E1,2.136790514E0,5.120640397E-1
5.149464174E0,1.107159042E1,1.383051515E0,-4.498506486E-1
5.166130840E0,8.733802795E0,-4.331009090E-1,-2.933600664E0
5.182797506E0,9.597611427E0,1.741974831E0,-1.978864312E0
5.199464172E0,8.693124771E0,4.357329845E0,-1.009771109E0
5.216130838E0,8.738588333E0,5.333601475E0,-1.524227977E0
5.232797504E0,8.982656479E0,6.740581512E0,-1.485942841E0
5.249464170E0,9.731609344E0,3.797409534E0,-1.074377418E0
5.266130836E0,9.731609344E0,3.797409534E0,-1.074377418E0
5.282797502E0,1.044945621E1,2.845066071E0,6.604190469E-1
5.299464168E0,1.133719349E1,3.993621111E0,1.354337573E0
5.316130834E0,1.132283688E1,2.581855536E0,2.129612118E-1
5.332797500E0,1.132283688E1,2.581855536E0,2.129612118E-1
5.349464166E0,1.897508383E0,7.989634991E0,-4.163511395E-1
5.366130832E0,-1.591227055E0,1.071027374E1,-6.125625968E-1
5.382797498E0,9.128618240E0,6.049055576E0,2.392822644E-3
5.399464164E0,7.750352383E0,2.143969059E0,-2.364108801E0
5.416130830E0,6.128018856E0,3.046063185E0,-2.866601467E0
5.432797496E0,8.384450912E0,6.044270039E0,-1.715653777E0
5.449464162E0,8.384450912E0,6.044270039E0,-1.715653777E0
5.466130828E0,1.152383423E1,6.329015732E0,-1.074377418E0
5.482797494E0,1.142812061E1,7.377072334E0,-1.538584948E0
5.499464160E0,8.161917686E0,5.876772404E0,-2.206182480E0
5.516130826E0,5.589633465E0,2.297109842E0,-2.495713949E0
5.532797492E0,4.383651257E0,2.629712105E0,-4.283152580E0
5.549464158E0,2.718246460E0,3.428914785E0,-3.318845034E0
5.566130824E0,-3.048455954E0,2.380858421E0,-9.403793216E-1
5.582797490E0,-1.844866276E0,4.965106964E0,6.020341873E0
5.599464156E0,-1.844866276E0,4.965106964E0,6.020341873E0
5.616130822E0,2.907279491E0,9.722038269E0,1.095912743E1
5.632797488E0,2.907279491E0,9.722038269E0,1.095912743E1
5.649464154E0,1.343569946E1,5.496313572E0,2.629712105E0
5.666130820E0,1.343569946E1,5.496313572E0,2.629712105E0
5.682797486E0,4.031906128E0,5.960521221E0,5.089533806E0
5.699464152E0,4.543970108E0,7.728816986E0,8.042277336E0
5.716130818E0,7.381857872E0,1.073898792E1,4.137190342E0
5.732797484E0,7.826922894E0,1.177508068E1,2.476571321E0
5.749464150E0,7.953742504E0,1.263410378E1,2.423929453E0
5.766130816E0,6.982256413E0,9.817750931E0,9.619147182E-1
5.782797482E0,5.056034088E0,6.460621357E0,-2.770888567E0
5.799464148E0,4.311866283E0,3.438486099E0,-3.141776085E0
5.816130814E0,3.132204771E0,1.476371527E0,-5.130211830E0
5.832797480E0,1.131805062E0,2.483749866E0,-3.098705292E0
5.849464146E0,5.493920803E0,1.235414314E1,-3.158525944E0
5.866130812E0,9.949356079E0,1.492403507E1,2.524427891E0
5.882797478E0,5.996413708E0,1.041356373E1,1.054516983E1
5.899464144E0,8.300702095E0,1.029870892E1,6.845865726E0
5.916130810E0,1.204786205E1,1.040159988E1,3.416950703E0
5.932797476E0,1.269153118E1,1.072463131E1,-1.509871125E0
5.949464142E0,-2.648854733E0,5.139782906E0,-9.865608215E0
5.966130808E0,-7.936992645E0,7.960920811E0,2.577069998E0
5.982797474E0,6.388836503E-1,1.553899002E1,-9.858429432E-1
5.999464140E0,3.560520172E0,1.566341686E1,-5.548955917E0
6.016130806E0,6.982256413E0,1.196650600E1,6.556333899E-1
6.032797472E0,3.873979807E0,9.377471924E0,2.699103832E0
6.049464138E0,1.966900229E0,8.949156761E0,2.572284460E0
6.066130804E0,-1.004985452E0,6.051448345E0,-1.249053478E0
6.082797470E0,-1.168654537E1,-5.718846321E-1,1.689332843E0
6.099464136E0,-1.157886887E1,2.852244616E0,3.756731510E0
6.116130802E0,-9.475577354E0,4.606183529E0,-1.466800332E0
6.132797468E0,-6.453442574E0,6.154339790E0,-6.855436802E0
6.149464134E0,-2.158325911E0,7.341179848E0,-3.469592929E-1
6.166130800E0,-1.741974831E0,6.474977970E0,3.639483213E0
6.182797466E0,-2.045863390E0,5.924628735E0,4.620540619E0
6.199464132E0,-1.445264935E0,6.415157318E0,5.139782906E0
6.216130798E0,-2.464607358E-1,9.628718376E0,4.744967461E0
6.232797464E0,2.009970993E-1,1.818784523E1,-1.385444283E0
6.249464130E0,-1.564906001E0,2.340180588E1,-8.853443712E-2
6.266130796E0,-3.103491068E0,2.069791603E1,-3.326023519E-1
6.282797462E0,-1.942971945E0,1.083709335E1,-3.661018610E-1
6.299464128E0,-1.576870084E0,6.482156754E0,1.643869162E0
6.316130794E0,-1.576870084E0,6.482156754E0,1.643869162E0
6.332797460E0,-2.416750908E0,7.075576782E0,2.230110645E0
6.349464126E0,-2.892922640E0,1.016471100E1,4.498506486E-1
6.366130792E0,-2.543570518E0,1.093519974E1,4.067798555E-1
6.382797458E0,-2.249253273E0,1.013121128E1,9.451649189E-1
6.399464124E0,-1.564906001E0,9.193224907E0,1.392622828E0
6.416130790E0,-1.450050473E0,9.291330338E0,1.124626637E0
6.432797456E0,-1.225125194E0,9.690931320E0,9.547362328E-1
6.449464122E0,-1.043270707E0,9.745966911E0,9.212366939E-1
6.466130788E0,-1.507478207E-1,1.099741268E1,2.758924484E0
6.482797454E0,-2.222932339E0,9.559326172E0,1.435693622E0
6.499464120E0,-2.222932339E0,9.559326172E0,1.435693622E0
6.516130786E0,-1.682154298E0,8.839086533E0,5.216353536E-1
6.532797452E0,-2.672782898E0,7.396214962E0,-3.589234129E-2
6.549464118E0,-1.660618901E0,8.532805443E0,1.435693540E-2
6.566130784E0,-1.660618901E0,8.532805443E0,1.435693540E-2
6.582797450E0,-2.115255117E0,1.047099209E1,8.303094506E-1
6.599464116E0,-2.641676188E0,1.041595650E1,-1.938186288E-1
6.616130782E0,-2.395215511E0,9.769894600E0,1.272981644E0
6.632797448E0,-2.297109842E0,9.355937004E0,2.282752752E0
6.649464114E0,-2.275574446E0,9.363115311E0,1.993221283E0
6.666130780E0,-1.971685886E0,9.600004196E0,7.609176040E-1
6.682797446E0,-1.971685886E0,9.600004196E0,7.609176040E-1
6.699464112E0,-1.624726534E0,9.494720459E0,1.196411371E0
6.716130778E0,-1.306481123E0,9.343972206E0,1.179661512E0
6.732797444E0,-1.349551916E0,9.209974289E0,1.344766378E0
6.749464110E0,-1.631905079E0,9.576076508E0,1.646261930E0
6.766130776E0,-1.610369682E0,1.063370419E1,1.507478237E0
6.782797442E0,-1.837687731E0,1.107876873E1,1.107876897E0
6.799464108E0,-2.502892494E0,1.086341476E1,3.230310678E-1
6.816130774E0,-2.878565550E0,9.769894600E0,6.819544435E-1
6.832797440E0,-3.010170937E0,8.831908226E0,1.002592683E0
6.849464106E0,-3.285345554E0,8.563912392E0,1.019342422E0
6.866130772E0,-3.684946775E0,9.403793335E0,2.392822644E-3
6.882797438E0,-3.684946775E0,9.403793335E0,2.392822644E-3
6.882797438E0,-3.266202927E0,1.066241741E1,-9.332008362E-1
6.916130770E0,-2.974278450E0,1.014796066E1,-5.670989752E-1
6.932797436E0,-3.089133978E0,9.293723106E0,-6.963114142E-1
6.949464102E0,-3.089133978E0,9.293723106E0,-6.963114142E-1
6.966130768E0,-2.935993433E0,7.872386456E0,2.895315289E-1
6.982797434E0,-2.725425005E0,7.814958572E0,-2.895315289E-1
6.999464100E0,-2.689532757E0,7.886743546E0,-2.488535494E-1
7.016130766E0,-2.840280533E0,7.695317745E0,1.124626622E-1
7.032797432E0,-2.940778971E0,7.690532207E0,1.220339537E-1
7.049464098E0,-3.342773199E0,8.365307808E0,-3.086741269E-1
7.066130764E0,-3.342773199E0,8.365307808E0,-3.086741269E-1
7.082797430E0,-3.335594654E0,1.159561825E1,-2.880958557E0
7.099464096E0,-3.311666489E0,1.165543938E1,-2.823530674E0
7.116130762E0,-3.122633457E0,1.086341476E1,-1.789831281E0
7.132797428E0,-2.660818815E0,9.954142570E0,-1.194018483E0
7.149464094E0,-2.419143677E0,9.324830055E0,-1.945364833E0
7.166130760E0,-2.414358139E0,8.963513374E0,-2.550748825E0
7.182797426E0,-2.790031195E0,8.571090698E0,-3.292523861E0
7.199464092E0,-3.117847919E0,8.949156761E0,-3.091526747E0
7.216130758E0,-3.739981890E0,8.867800713E0,-2.361716032E0
7.232797424E0,-3.440878868E0,9.008976936E0,-2.433500528E0
7.249464090E0,-2.706282377E0,9.037691116E0,-3.280559778E0
7.266130756E0,-2.227717876E0,8.709874153E0,-2.498106956E0
7.282797422E0,-2.108076811E0,8.851051331E0,-2.069791555E0
7.299464088E0,-2.194218397E0,9.090332985E0,-2.321038008E0
7.316130754E0,-2.758924484E0,9.437292099E0,-3.077169895E0
7.332797420E0,-2.904886723E0,9.114261627E0,-3.400201082E0
7.349464086E0,-2.718246460E0,8.537590981E0,-3.316452265E0
7.366130752E0,-2.550748825E0,8.413164139E0,-3.251846075E0
7.382797418E0,-1.945364833E0,8.159524918E0,-3.144168854E0
7.399464084E0,-1.483550072E0,7.731209755E0,-3.014956474E0
7.416130750E0,-1.483550072E0,7.731209755E0,-3.014956474E0
7.432797416E0,-1.162911773E0,7.238288403E0,-2.945564747E0
7.449464082E0,-1.277767301E0,7.089933395E0,-3.168097258E0
7.466130748E0,-1.313659668E0,6.738188744E0,-3.436093330E0
7.482797414E0,-1.313659668E0,6.738188744E0,-3.436093330E0
7.499464080E0,-1.239482164E0,6.570691109E0,-3.711267948E0
7.516130746E0,-1.009771109E0,6.561119556E0,-3.756731510E0
7.532797412E0,-3.661018610E-1,7.326822758E0,-3.309273720E0
7.549464078E0,-3.469592929E-1,7.925028801E0,-3.122633457E0
7.566130744E0,-1.263410330E0,9.700503349E0,-3.658625841E0
7.582797410E0,-2.146361828E0,1.334955788E1,-4.089334011E0
7.599464076E0,-1.737189293E0,1.564906025E1,-4.610969067E0
7.616130742E0,-9.068797827E-1,1.606301880E1,-4.689932346E0
7.632797408E0,-7.250252366E-1,1.482592869E1,-1.665404558E0
7.649464074E0,-2.045863390E0,9.090332985E0,-4.211367965E-1
7.666130740E0,-2.045863390E0,9.090332985E0,-4.211367965E-1
7.682797406E0,-2.007578135E0,5.261816978E0,-5.326423168E0
7.699464072E0,-1.316052437E0,6.037091732E0,-2.464607239E0
7.716130738E0,-2.299502611E0,7.733603001E0,3.254238665E-1
7.732797404E0,-2.644068956E0,9.923035622E0,1.143769264E0
7.749464070E0,-3.036491871E0,1.066002464E1,7.274180651E-1
7.766130736E0,-3.811766386E0,1.014796066E1,-5.551348329E-1
7.782797402E0,-3.156133175E0,9.389435768E0,-9.810572863E-2
7.799464068E0,-2.471785784E0,8.683553696E0,3.900300860E-1
7.816130734E0,-2.349751949E0,8.551948547E0,1.651047617E-1
7.832797400E0,-1.055234790E0,9.231510162E0,-2.356930256E0
7.849464066E0,-4.474578202E-1,9.442078590E0,-1.627119422E0
7.866130732E0,-7.704889178E-1,9.296115875E0,-1.028913707E-1
7.882797398E0,-2.632105052E-1,9.683753014E0,-1.914258152E-1
7.899464064E0,2.871387079E-2,1.052363396E1,-9.643075466E-1
7.916130730E0,-1.974078655E0,1.028195858E1,5.144568682E-1
7.932797396E0,-2.904886723E0,9.332008362E0,1.086341500E0
7.949464062E0,-2.536391973E0,9.384650230E0,8.733802438E-1
7.966130728E0,-3.400201082E0,8.508877754E0,7.680960894E-1
7.982797394E0,-3.038884640E0,8.669196129E0,1.098305583E0
7.999464060E0,-3.065205812E0,9.145368576E0,1.055234790E0
8.016130726E0,-3.227917671E0,9.377471924E0,1.055234790E0
8.032797392E0,-3.316452265E0,9.879964828E0,1.232303619E0
8.049464058E0,-3.316452265E0,9.879964828E0,1.232303619E0
8.066130724E0,-3.156133175E0,9.250652313E0,9.164510965E-1
8.082797390E0,-3.079562664E0,9.061619759E0,8.925228715E-1
8.099464056E0,-3.187239647E0,9.183652878E0,1.004985452E0
8.116130722E0,-3.148954630E0,9.437292099E0,9.499505758E-1
8.132797388E0,-3.036491871E0,9.312865257E0,9.858429432E-1
8.149464054E0,-3.077169895E0,9.198010445E0,9.954141974E-1
8.166130720E0,-3.108276606E0,9.123832703E0,9.762716293E-1
8.182797386E0,-2.859423161E0,9.097511292E0,8.374879360E-1
8.199464052E0,-2.586641312E0,9.186046600E0,6.125625968E-1
8.216130718E0,-2.457428932E0,9.513862610E0,-7.178468257E-2
8.232797384E0,-2.560320139E0,9.767501831E0,1.746760458E-1
8.249464050E0,-2.545963287E0,9.695717812E0,8.422735929E-1
8.266130716E0,-2.443071842E0,9.628718376E0,8.135597110E-1
8.282797382E0,-2.239681959E0,9.549755096E0,2.201396823E-1
8.299464048E0,-2.304288149E0,9.707681656E0,3.230310678E-1
8.316130714E0,-1.761117458E0,1.001156998E1,1.024128079E0
8.332797380E0,-1.713261008E0,9.887143135E0,9.164510965E-1
8.349464046E0,-1.816152334E0,9.631111145E0,3.278166950E-1
8.366130712E0,-1.634297848E0,9.726823807E0,2.081755698E-1
8.382797378E0,-2.009970903E0,9.427721024E0,4.283152521E-1
8.399464044E0,-2.277967215E0,9.296115875E0,5.910272002E-1
8.416130710E0,-2.924029350E0,9.286544800E0,6.005984545E-1
8.432797376E0,-3.316452265E0,9.518648148E0,5.192425251E-1
8.449464042E0,-3.522234917E0,9.389435768E0,3.373879790E-1
8.466130708E0,-3.608376503E0,9.286544800E0,1.866401732E-1
8.482797374E0,-3.471985579E0,9.154939651E0,3.110669553E-1
8.499464040E0,-3.393022537E0,8.946763992E0,5.862415433E-1
8.516130706E0,-3.393022537E0,8.946763992E0,5.862415433E-1
8.532797372E0,-2.871387243E0,8.858229637E0,5.431707501E-1
8.549464038E0,-2.957528830E0,8.807980537E0,6.029912829E-1
8.566130704E0,-3.153740168E0,9.109476089E0,2.177468538E-1
8.582797370E0,-3.153740168E0,9.109476089E0,2.177468538E-1
8.599464036E0,-3.237488985E0,9.406186104E0,5.742774159E-2
8.616130702E0,-3.170490026E0,9.406186104E0,2.273181528E-1
8.632797368E0,-2.868994236E0,9.348757744E0,1.651047617E-1
8.649464034E0,-2.500499725E0,9.451649666E0,-2.967100143E-1
8.666130700E0,-2.519642353E0,9.494720459E0,-7.657032460E-2
8.682797366E0,-2.074577332E0,9.334401131E0,3.780659735E-1
8.699464032E0,-2.033899307E0,9.107083321E0,-5.096712112E-1
8.716130698E0,-2.400001049E0,9.052047729E0,-1.555334777E-1
8.732797364E0,-2.624926329E0,8.965906143E0,-1.196411345E-2
8.749464030E0,-3.046063185E0,9.016156197E0,1.148554832E-1
8.766130696E0,-3.046063185E0,9.016156197E0,1.148554832E-1
8.782797362E0,-3.058027267E0,9.389435768E0,2.727817893E-1
8.799464028E0,-3.058027267E0,9.410971642E0,3.421736360E-1
8.816130694E0,-2.991028309E0,9.317651749E0,4.402793646E-1
8.832797360E0,-3.134597778E0,9.229117393E0,3.732803464E-1
8.849464026E0,-3.079562664E0,9.152546883E0,2.727817893E-1
8.866130692E0,-3.156133175E0,8.915657043E0,2.847459018E-1
8.882797358E0,-3.153740168E0,8.970691681E0,2.775674164E-1
8.899464024E0,-3.187239647E0,9.109476089E0,2.871387303E-1
8.916130690E0,-3.122633457E0,9.087940216E0,3.517449200E-1
8.932797356E0,-3.141776085E0,8.839086533E0,3.708875179E-1
8.949464022E0,-3.141776085E0,8.839086533E0,3.708875179E-1
8.966130688E0,-3.184846878E0,9.353543282E0,2.871387303E-1
8.982797354E0,-3.192025423E0,9.427721024E0,3.254238665E-1
8.999464020E0,-3.189632654E0,9.265008926E0,4.307080805E-1
9.016130686E0,-3.180061340E0,9.102297783E0,4.618147612E-1
9.032797352E0,-3.203989506E0,9.073583603E0,4.785645306E-1
9.049464018E0,-3.247060299E0,9.104690552E0,5.359922647E-1
9.066130684E0,-3.383451223E0,9.111868858E0,5.527420044E-1
9.082797350E0,-3.297309637E0,9.097511292E0,5.288137794E-1
9.099464016E0,-3.412165165E0,9.131011009E0,5.934200287E-1
9.116130682E0,-3.428914785E0,9.171689034E0,5.814558864E-1
9.132797348E0,-3.125026464E0,9.186046600E0,4.953143001E-1
9.149464014E0,-3.141776085E0,9.207581520E0,5.072783828E-1
9.166130680E0,-2.861815929E0,9.341579437E0,5.455635786E-1
9.182797346E0,-2.718246460E0,9.305686951E0,5.383850932E-1
9.199464012E0,-2.555534601E0,9.186046600E0,5.670989752E-1
9.216130678E0,-2.500499725E0,9.217152596E0,6.987041831E-1
9.232797344E0,-2.500499725E0,9.217152596E0,6.987041831E-1
9.249464010E0,-2.450250387E0,9.348757744E0,5.575276613E-1
9.266130676E0,-2.596212626E0,9.300901413E0,5.694918036E-1
9.282797342E0,-2.720639229E0,9.322437286E0,5.431707501E-1
9.299464008E0,-2.720639229E0,9.322437286E0,5.431707501E-1
9.316130674E0,-2.835494757E0,9.202795982E0,5.503492355E-1
9.332797340E0,-2.897708178E0,9.221938133E0,4.785645306E-1
9.349464006E0,-2.754138947E0,9.320044518E0,4.091726840E-1
9.366130672E0,-2.734996319E0,9.288937569E0,4.259224236E-1
9.382797338E0,-2.632104874E0,9.229117393E0,5.551348329E-1
9.399464004E0,-2.641676188E0,9.312865257E0,5.958128572E-1
9.416130670E0,-2.663211584E0,9.396614075E0,4.977070987E-1
9.432797336E0,-2.691925526E0,9.346364975E0,5.264210105E-1
9.449464002E0,-2.811566591E0,9.200403214E0,7.393822074E-1
9.466130668E0,-2.749353170E0,9.353543282E0,7.393822074E-1
9.482797334E0,-2.900100946E0,9.336793900E0,7.322037220E-1
9.499464000E0,-2.892922640E0,9.300901413E0,7.992027402E-1
9.516130666E0,-2.995813847E0,9.085547447E0,9.427721500E-1
9.532797332E0,-3.072384357E0,9.066405296E0,9.834501147E-1
9.549463998E0,-3.072384357E0,9.066405296E0,9.834501147E-1
9.566130664E0,-3.220739365E0,9.439684868E0,9.906286001E-1
9.582797330E0,-3.201596737E0,9.334401131E0,7.848458290E-1
9.599463996E0,-3.187239647E0,9.075976372E0,6.843472719E-1
9.616130662E0,-3.160918713E0,9.114261627E0,6.340979934E-1
9.632797328E0,-3.184846878E0,9.401400566E0,6.340979934E-1
9.649463994E0,-3.278167009E0,9.894321442E0,7.322037220E-1
9.666130660E0,-3.115455151E0,9.408578873E0,7.082754970E-1
9.682797326E0,-3.158525944E0,8.664410591E0,7.082754970E-1
9.699463992E0,-3.060420275E0,8.511270523E0,7.034898400E-1
9.716130658E0,-3.002992392E0,8.941978455E0,6.987041831E-1
9.732797324E0,-3.002992392E0,8.941978455E0,6.987041831E-1
9.749463990E0,-2.763710260E0,9.686145782E0,5.479564071E-1
9.766130656E0,-2.574677229E0,9.561718941E0,4.642075896E-1
9.782797322E0,-2.215753794E0,9.360722542E0,2.321037948E-1
9.799463988E0,-2.215753794E0,9.360722542E0,2.321037948E-1
9.816130654E0,-1.844866276E0,9.456435204E0,7.609176040E-1
9.832797320E0,-1.689332843E0,9.463613510E0,8.279166222E-1
9.849463986E0,-1.531406522E0,9.439684868E0,6.699903607E-1
9.866130652E0,-1.476371527E0,9.425328255E0,3.972085714E-1
9.882797318E0,-1.512263894E0,9.401400566E0,3.708875179E-1
9.899463984E0,-1.584048629E0,9.346364975E0,4.905286431E-1
9.916130650E0,-2.024327993E0,9.028120041E0,8.518448472E-1
9.932797316E0,-2.342573404E0,9.363115311E0,9.451649189E-1
9.949463982E0,-2.603390932E0,9.738788605E0,6.221339107E-1
9.966130648E0,-2.725425005E0,9.755537987E0,4.905286431E-1
9.982797314E0,-2.718246460E0,9.365508080E0,3.254238665E-1
9.999463980E0,-2.718246460E0,9.365508080E0,3.254238665E-1
1.001613065E1,-2.694318295E0,9.073583603E0,7.010970116E-1
1.003279731E1,-2.806781054E0,9.525827408E0,9.403793216E-1
1.004946398E1,-2.986242771E0,9.695717812E0,9.260223508E-1
1.006613064E1,-2.986242771E0,9.513862610E0,7.920243144E-1
1.008279731E1,-2.914458036E0,9.413364410E0,8.111668825E-1
1.009946398E1,-3.017349243E0,9.095118523E0,8.925228715E-1
1.011613064E1,-3.089133978E0,9.042476654E0,9.355936646E-1
1.013279731E1,-3.024527788E0,9.207581520E0,8.446664214E-1
1.014946397E1,-2.947957516E0,9.334401131E0,7.465606928E-1
1.016613064E1,-2.675175667E0,9.487542152E0,5.431707501E-1
1.018279731E1,-2.457428932E0,9.451649666E0,6.699903607E-1
1.019946397E1,-2.189432621E0,9.370293617E0,6.795616150E-1
1.021613064E1,-2.110469580E0,9.415757179E0,5.838487148E-1
1.023279730E1,-1.952543259E0,9.609575272E0,4.618147612E-1
1.024946397E1,-1.797009826E0,9.631111145E0,5.192425251E-1
1.026613064E1,-1.926222205E0,9.477970123E0,4.833501875E-1
1.028279730E1,-1.942971945E0,9.353543282E0,5.359922647E-1
1.029946397E1,-2.309073925E0,9.257830620E0,6.675975323E-1
1.031613063E1,-2.478964329E0,9.317651749E0,4.402793646E-1
1.033279730E1,-2.742174864E0,9.343972206E0,3.876372576E-1
1.034946397E1,-2.828316450E0,9.365508080E0,4.713860750E-1
1.036613063E1,-2.914458036E0,9.243474007E0,5.407779217E-1
1.038279730E1,-2.749353170E0,8.965906143E0,6.149554253E-1
1.039946396E1,-2.684746981E0,9.324830055E0,6.125625968E-1
1.041613063E1,-2.706282377E0,9.635896683E0,5.216353536E-1
1.043279730E1,-2.304288149E0,9.985248566E0,6.149554253E-1
1.044946396E1,-2.206182480E0,9.647860527E0,5.814558864E-1
1.046613063E1,-2.060220242E0,9.276973724E0,6.652047038E-1
1.048279729E1,-2.132004976E0,9.078369141E0,8.925228715E-1
1.049946396E1,-2.517249346E0,9.013762474E0,1.165304661E0
1.051613063E1,-2.615355253E0,9.284152031E0,1.048056364E0
1.053279729E1,-2.615355253E0,9.284152031E0,1.048056364E0
1.054946396E1,-3.062813044E0,9.540184021E0,7.345965505E-1
1.056613062E1,-3.062813044E0,9.540184021E0,7.345965505E-1
1.058279729E1,-3.034099102E0,9.087940216E0,8.015955687E-1
1.059946396E1,-2.969492912E0,9.075976372E0,8.446664214E-1
1.061613062E1,-2.787638426E0,9.336793900E0,9.044869542E-1
1.063279729E1,-2.727817774E0,9.667003632E0,6.556333899E-1
1.064946395E1,-2.533999205E0,9.597611427E0,5.359922647E-1
1.066613062E1,-2.467000246E0,9.348757744E0,6.604190469E-1
1.068279729E1,-2.443071842E0,9.047262192E0,7.441678643E-1
1.069946395E1,-2.340180635E0,9.260223389E0,6.293123364E-1
1.071613062E1,-2.246860504E0,9.650253296E0,4.594219327E-1
1.073279728E1,-2.175075769E0,9.789037704E0,3.852444589E-1
1.074946395E1,-1.940579176E0,9.516255379E0,1.962114573E-1
1.076613062E1,-2.069791555E0,9.013762474E0,4.378865361E-1
1.078279728E1,-2.069791555E0,9.013762474E0,4.378865361E-1
1.079946395E1,-2.371287346E0,9.348757744E0,5.934200287E-1
1.081613061E1,-2.660818815E0,9.631111145E0,3.062812984E-1
1.083279728E1,-2.639283419E0,9.779465675E0,3.493520916E-1
1.084946395E1,-2.651247501E0,9.566504478E0,4.977070987E-1
1.086613061E1,-2.569891453E0,9.408578873E0,5.096712112E-1
1.088279728E1,-2.632104874E0,9.181260109E0,5.312066078E-1
1.089946394E1,-2.632104874E0,9.181260109E0,5.312066078E-1
1.091613061E1,-2.541177750E0,9.399007797E0,5.216353536E-1
1.093279728E1,-2.687139750E0,9.446864128E0,5.216353536E-1
1.094946394E1,-2.696711063E0,9.458827972E0,5.766702294E-1
1.096613061E1,-2.696711063E0,9.458827972E0,5.766702294E-1
1.098279727E1,-3.024527788E0,9.236295700E0,5.934200287E-1
1.099946394E1,-3.012563705E0,9.183652878E0,6.915257573E-1
1.101613061E1,-3.194418192E0,9.212367058E0,5.407779217E-1
1.103279727E1,-3.192025423E0,9.336793900E0,3.613162339E-1
1.104946394E1,-3.314059258E0,9.250652313E0,4.163511395E-1
1.106613060E1,-3.218346357E0,9.102297783E0,4.737788737E-1
1.108279727E1,-3.079562664E0,8.977870941E0,4.402793646E-1
1.109946394E1,-2.926422119E0,9.303294182E0,3.302095234E-1
1.111613060E1,-2.926422119E0,9.303294182E0,3.302095234E-1
1.111613060E1,-2.670390129E0,9.623932838E0,2.225325108E-1
1.114946393E1,-2.268395901E0,9.542576790E0,3.445664644E-1
1.116613060E1,-2.268395901E0,9.542576790E0,3.445664644E-1
1.118279727E1,-2.069791555E0,9.408578873E0,3.230310678E-1
1.119946393E1,-2.120040894E0,9.355937004E0,3.326023519E-1
1.121613060E1,-2.189432621E0,9.576076508E0,3.445664644E-1
1.123279726E1,-2.299502611E0,9.674181938E0,3.589234054E-1
1.124946393E1,-2.321038008E0,9.578469276E0,4.737788737E-1
1.126613060E1,-2.189432621E0,9.195617676E0,5.312066078E-1
1.128279726E1,-2.148754835E0,9.358329773E0,1.818545163E-1
1.129946393E1,-2.048256159E0,9.724431038E0,3.397808075E-1
1.131613059E1,-2.184647083E0,9.815358162E0,5.335994363E-1
1.133279726E1,-2.328216314E0,9.690931320E0,5.479564071E-1
1.134946393E1,-2.414358139E0,9.267401695E0,2.799602449E-1
1.136613059E1,-2.414358139E0,9.267401695E0,2.799602449E-1
1.138279726E1,-2.694318295E0,9.047262192E0,1.435693651E-1
1.139946392E1,-3.268595695E0,8.870193481E0,1.627119333E-1
1.141613059E1,-3.744767427E0,9.119047165E0,1.100698411E-1
1.143279726E1,-4.113262177E0,9.310472488E0,1.531406492E-1
1.144946392E1,-4.223331928E0,9.298508644E0,2.584248483E-1
1.146613059E1,-4.378865242E0,8.853444099E0,1.483550072E-1
1.148279725E1,-4.357329845E0,8.415556908E0,-1.411765367E-1
1.149946392E1,-3.859622955E0,8.927620888E0,-1.316052526E-1
1.149946392E1,-3.859622955E0,8.927620888E0,-1.316052526E-1
1.153279725E1,-3.175275564E0,9.243474007E0,-9.810572863E-1
1.154946392E1,-2.593819857E0,9.284152031E0,-9.451649189E-1
1.156613058E1,-2.206182480E0,9.308079720E0,-6.460621357E-1
1.158279725E1,-1.990828395E0,9.336793900E0,-5.192425251E-1
1.159946392E1,-1.897508383E0,9.250652313E0,-1.392622828E0
1.161613058E1,-1.861616015E0,9.300901413E0,-1.148554921E0
1.163279725E1,-2.007578135E0,9.351150513E0,-1.428515077E0
1.164946391E1,-2.112862349E0,9.339186668E0,-1.698904037E0
1.166613058E1,-2.122433662E0,9.229117393E0,-1.641476393E0
1.168279725E1,-2.222932339E0,9.695717812E0,-1.624726534E0
1.169946391E1,-2.603390932E0,9.877572060E0,-2.143969059E0
1.171613058E1,-2.467000246E0,9.860821724E0,-2.251646042E0
1.173279724E1,-2.443071842E0,9.360722542E0,-2.651247501E0
1.174946391E1,-2.443071842E0,9.360722542E0,-2.651247501E0
1.176613058E1,-2.443071842E0,9.360722542E0,-2.651247501E0
1.178279724E1,-2.842673302E0,9.729216576E0,-3.232703447E0
1.179946391E1,-2.737389088E0,9.442078590E0,-3.046063185E0
1.181613057E1,-2.737389088E0,9.442078590E0,-3.046063185E0
1.183279724E1,-2.129612207E0,8.961120605E0,-1.607976794E0
1.184946391E1,-1.897508383E0,8.815158844E0,-1.134197950E0
1.186613057E1,-2.158325911E0,8.810373306E0,-1.730010748E0
1.188279724E1,-2.598605394E0,9.176474571E0,-2.280359983E0
1.189946390E1,-2.749353170E0,9.159725189E0,-2.167897224E0
1.191613057E1,-2.457428932E0,8.843872070E0,-1.660618901E0
1.193279724E1,-2.170290232E0,8.511270523E0,-1.660618901E0
1.194946390E1,-2.189432621E0,8.417949677E0,-1.873580098E0
1.196613057E1,-2.225325108E0,8.405985832E0,-1.914258122E0
1.198279723E1,-2.407179594E0,8.269595146E0,-1.751546144E0
1.199946390E1,-2.407179594E0,8.269595146E0,-1.751546144E0
1.201613057E1,-2.376072884E0,9.339186668E0,-1.950150490E0
1.203279723E1,-2.423929453E0,9.499505997E0,-2.021935225E0
1.204946390E1,-2.639283419E0,9.298508644E0,-2.021935225E0
1.206613056E1,-2.632104874E0,9.090332985E0,-1.696511269E0
1.208279723E1,-2.720639229E0,9.257830620E0,-1.670190215E0
1.209946390E1,-2.861815929E0,9.281759262E0,-1.670190215E0
1.211613056E1,-2.790031195E0,9.138189316E0,-2.029113531E0
1.213279723E1,-2.419143677E0,8.853444099E0,-1.897508383E0
1.214946389E1,-1.450050473E0,8.496912956E0,-1.174875975E0
1.216613056E1,-8.733802438E-1,8.906085968E0,-9.954141974E-1
1.218279723E1,5.431707501E-1,9.963713646E0,-1.136590719E0
1.219946389E1,-1.380658627E0,1.053559780E1,-5.742774606E-1
1.221613056E1,-1.261017561E0,9.262616158E0,1.507478237E0
1.223279722E1,-1.131805062E0,9.166903496E0,-1.564906001E0
1.224946389E1,-1.172483087E0,9.363115311E0,3.541377485E-1
1.226613056E1,-1.476371527E0,8.999405861E0,1.339980721E0
1.228279722E1,-1.476371527E0,8.999405861E0,1.339980721E0
1.229946389E1,-1.332802176E0,1.065523911E1,-5.264209956E-2
1.231613055E1,-2.476571321E0,1.173200989E1,-1.639083505E0
1.233279722E1,-2.141576290E0,8.640482903E0,5.288137794E-1
1.234946389E1,-2.141576290E0,8.640482903E0,5.288137794E-1
1.236613055E1,-2.550748825E0,8.154739380E0,5.742774606E-1
1.238279722E1,-4.462614059E0,8.226524353E0,1.962114573E-1
1.239946388E1,-5.436492920E0,7.546962738E0,-1.698904037E0
1.241613055E1,-5.553741455E0,7.702496052E0,-1.619940877E0
1.243279722E1,-5.903093338E0,8.559126854E0,-2.330609322E0
1.244946388E1,-3.759124279E0,1.072223854E1,-1.672582984E0
1.246613055E1,-2.857030153E0,1.063848972E1,-2.177468538E-1
1.248279721E1,-3.237488985E0,9.987641335E0,-1.674975902E-1
1.249946388E1,-3.048455954E0,9.556933403E0,-6.939185858E-1
1.251613055E1,-2.232503414E0,9.882357597E0,-1.048056364E0
1.253279721E1,-2.560320139E0,9.439684868E0,-1.462014675E0
1.253279721E1,-2.560320139E0,9.439684868E0,-1.462014675E0
1.256613054E1,-2.500499725E0,9.212367058E0,-1.306481123E0
1.258279721E1,-3.132204771E0,9.013762474E0,-5.383850932E-1
1.259946388E1,-3.132204771E0,9.013762474E0,-5.383850932E-1
1.261613054E1,-3.416950703E0,8.985049248E0,-1.409372568E0
1.263279721E1,-3.349951744E0,9.142974854E0,-1.459621787E0
1.264946387E1,-4.390829563E0,8.578269005E0,-7.058826685E-1
1.266613054E1,-4.957928658E0,8.427521706E0,-9.068797827E-1
1.268279721E1,-3.976871252E0,9.016156197E0,-9.020941257E-1
1.269946387E1,-3.538984776E0,9.597611427E0,-1.476371527E0
1.271613054E1,-2.811566591E0,9.245866776E0,-6.652047038E-1
1.273279720E1,-2.514856577E0,8.774480820E0,6.221338734E-2
1.274946387E1,-2.550748825E0,8.738588333E0,-3.589234129E-2
1.276613054E1,-2.562713146E0,8.748159409E0,-5.120640397E-1
1.278279720E1,-2.983849764E0,8.556734085E0,-5.120640397E-1
1.279946387E1,-2.983849764E0,8.556734085E0,-5.120640397E-1
1.281613053E1,-3.670589924E0,8.544769287E0,-6.532405615E-1
1.283279720E1,-4.005585194E0,8.709874153E0,-8.685946465E-1
1.284946387E1,-4.783252239E0,8.707481384E0,-3.517449200E-1
1.286613053E1,-5.446064472E0,8.248059273E0,-1.076770186E0
1.288279720E1,-5.130211830E0,7.944170952E0,-1.457229018E0
1.289946386E1,-3.984049797E0,7.707281590E0,-1.395015597E0
1.291613053E1,-2.414358139E0,8.317451477E0,-1.007378340E0
1.293279720E1,-9.403793216E-1,9.257830620E0,8.518448472E-1
1.294946386E1,-3.972085714E-1,1.002592659E1,1.940579176E0
1.296613053E1,4.977070987E-1,1.172961617E1,1.368694544E0
1.298279719E1,-6.795616150E-1,1.348594856E1,-3.996013701E-1
1.299946386E1,-1.182054400E0,1.319880962E1,1.100698411E-1
1.301613053E1,-8.422735929E-1,1.177268696E1,2.005185366E0
1.303279719E1,-1.531406492E-1,9.963713646E0,1.435693622E0
1.304946386E1,-2.632104978E-2,9.238688469E0,7.226324677E-1
1.306613052E1,-3.302095234E-1,8.547162056E0,4.785645306E-1
1.308279719E1,-2.072184324E0,6.989434719E0,2.823530734E-1
1.309946386E1,-2.857030153E0,7.668996811E0,8.374879360E-1
1.311613052E1,-3.768695593E0,8.377271652E0,6.197410822E-1
1.313279719E1,-4.527220249E0,8.721838951E0,5.264209956E-2
1.314946385E1,-4.962714195E0,1.059063339E1,-5.790630579E-1
1.316613052E1,-4.945964336E0,1.231825066E1,2.871387079E-2
1.318279719E1,-4.926821709E0,1.088495064E1,-6.987041831E-1
1.319946385E1,-4.670789719E0,9.863214493E0,-1.186840057E0
1.321613052E1,-3.864408493E0,9.205188751E0,-2.124826431E0
1.323279718E1,-3.661018610E0,9.008976936E0,-2.031506538E0
1.324946385E1,-3.565305710E0,8.750552177E0,-2.129612207E0
1.326613052E1,-3.469592810E0,8.834300995E0,-2.266003132E0
1.328279718E1,-3.694518089E0,9.147761345E0,-2.297109842E0
1.329946385E1,-3.637090445E0,9.375079155E0,-2.660818815E0
1.331613051E1,-3.235096216E0,9.827322960E0,-2.955136061E0
1.333279718E1,-2.785245657E0,1.014317513E1,-3.113062143E0
1.334946385E1,-1.636690736E0,9.710074425E0,-2.562713146E0
1.336613051E1,-1.182054400E0,8.913264275E0,-5.982056856E-1
1.338279718E1,-2.038684845E0,8.958727837E0,-2.129612207E0
1.339946384E1,-3.048455954E0,8.793622971E0,-4.024727821E0
1.341613051E1,-4.199403763E0,7.838887215E0,-4.438685894E0
1.343279718E1,-4.192225456E0,7.381857872E0,-3.680161238E0
1.344946384E1,-3.984049797E0,6.963113785E0,-2.935993433E0
1.346613051E1,-3.237488985E0,7.166503906E0,-2.287538528E0
1.348279717E1,-1.584048629E0,7.668996811E0,-1.347159147E0
1.349946384E1,-1.584048629E0,7.668996811E0,-1.347159147E0
1.351613051E1,-6.388836503E-1,8.374878883E0,-2.455035925E0
1.353279717E1,-8.949156404E-1,8.621339798E0,-3.036491871E0
1.354946384E1,-1.887937069E0,8.717052460E0,-4.094119549E0
1.356613050E1,-1.887937069E0,8.717052460E0,-4.094119549E0
1.358279717E1,-2.947957516E0,8.044670105E0,-4.108476639E0
1.359946384E1,-2.967100143E0,8.070990562E0,-3.888336897E0
1.361613050E1,-2.703889608E0,8.779266357E0,-3.352344513E0
1.363279717E1,-2.703889608E0,8.779266357E0,-3.352344513E0
1.364946383E1,-2.196611166E0,9.257830620E0,-2.636890650E0
1.366613050E1,-2.404786825E0,9.154939651E0,-1.715653777E0
1.368279717E1,-2.950350285E0,9.609575272E0,-1.816152334E0
1.369946383E1,-4.390829563E0,1.045424175E1,-2.122433662E0
1.371613050E1,-4.845465660E0,1.020299530E1,-2.000399828E0
1.373279716E1,-4.634897232E0,9.035298347E0,-1.524227977E0
1.374946383E1,-4.520041943E0,9.291330338E0,-1.698904037E0
1.376613050E1,-4.520041943E0,9.291330338E0,-1.698904037E0
1.378279716E1,-2.407179594E0,1.324188042E1,-3.110669367E-2
1.379946383E1,-1.373480201E0,1.201196957E1,-1.182054400E0
1.381613049E1,-1.261017561E0,9.619147301E0,-1.162911773E0
1.383279716E1,-1.261017561E0,9.619147301E0,-1.162911773E0
1.384946383E1,-4.857429862E-1,7.606783390E0,3.206382394E-1
1.386613049E1,-2.648854733E0,6.936792850E0,-5.144568682E-1
1.388279716E1,-2.912065268E0,8.250452042E0,-1.004985496E-1
1.389946382E1,-2.912065268E0,8.250452042E0,-1.004985496E-1
1.391613049E1,-3.251846075E0,8.793622971E0,-4.354937077E-1
1.393279716E1,-3.055634499E0,8.597412109E0,6.939185858E-1
1.394946382E1,-2.524427891E0,8.874979019E0,9.044869542E-1
1.396613049E1,-2.524427891E0,8.874979019E0,9.044869542E-1
1.398279715E1,-2.258824587E0,9.669396400E0,-5.503492057E-2
1.399946382E1,-2.392822742E0,9.741181374E0,9.810572863E-1
1.401613049E1,-1.744367719E0,9.875179291E0,6.675975323E-1
1.403279715E1,-1.744367719E0,9.875179291E0,6.675975323E-1
1.404946382E1,-2.222932339E0,9.245866776E0,4.713860750E-1
1.406613048E1,-2.112862349E0,9.370293617E0,7.944171429E-1
1.408279715E1,-2.383251429E0,9.303294182E0,1.414158225E0
1.409946382E1,-2.512463808E0,9.391828537E0,1.074377418E0
1.411613048E1,-2.600998163E0,9.432506561E0,6.963114142E-1
1.413279715E1,-2.737389088E0,9.418149948E0,4.905286431E-1
1.414946381E1,-2.299502611E0,9.506684303E0,1.093519926E0
1.416613048E1,-2.299502611E0,9.506684303E0,1.093519926E0
1.418279715E1,-2.524427891E0,9.681360245E0,1.170090318E0
1.419946381E1,-2.076970100E0,9.547362328E0,8.303094506E-1
1.421613048E1,-2.251646042E0,9.008976936E0,6.412764788E-1
1.423279714E1,-2.301895380E0,9.068798065E0,7.010970116E-1
1.424946381E1,-2.488535643E0,9.580862045E0,7.513462901E-1
1.426613048E1,-2.476571321E0,9.817750931E0,8.015955687E-1
1.428279714E1,-2.476571321E0,9.817750931E0,8.015955687E-1
1.429946381E1,-2.414358139E0,9.102297783E0,8.231309652E-1
1.431613047E1,-2.426322222E0,9.114261627E0,2.943171859E-1
1.433279714E1,-2.254039049E0,9.499505997E0,1.507478207E-1
1.434946381E1,-2.254039049E0,9.499505997E0,1.507478207E-1
1.436613047E1,-1.986042738E0,9.738788605E0,7.202396393E-1
1.438279714E1,-1.789831281E0,9.743574142E0,3.972085714E-1
1.439946380E1,-1.658226132E0,9.719645500E0,2.464607358E-1
1.441613047E1,-1.744367719E0,9.659825325E0,3.254238665E-1
1.443279714E1,-1.785045743E0,9.537791252E0,3.996013701E-1
1.444946380E1,-1.840080619E0,9.482755661E0,6.197410822E-1
1.446613047E1,-1.797009826E0,9.772287369E0,7.896314859E-1
1.448279713E1,-1.797009826E0,9.772287369E0,7.896314859E-1
1.449946380E1,-1.643869162E0,1.018385315E1,6.604190469E-1
1.451613047E1,-1.966900229E0,9.853643417E0,3.062812984E-1
1.453279713E1,-2.287538528E0,9.406186104E0,7.680960894E-1
1.454946380E1,-2.639283419E0,9.107083321E0,8.685946465E-1
1.456613046E1,-2.780459881E0,9.140582085E0,9.236295223E-1
1.458279713E1,-3.022135019E0,9.083154678E0,8.279166222E-1
1.459946380E1,-3.065205812E0,8.997013092E0,7.657032609E-1
1.461613046E1,-2.998206854E0,8.951549530E0,9.978070259E-1
1.463279713E1,-3.278167009E0,8.973084450E0,8.973084688E-1
1.464946379E1,-3.419343472E0,9.186046600E0,6.245267391E-1
1.466613046E1,-3.419343472E0,9.186046600E0,6.245267391E-1
1.468279713E1,-3.436093330E0,9.439684868E0,5.359922647E-1
1.469946379E1,-3.586841106E0,9.410971642E0,5.096712112E-1
1.471613046E1,-3.481556892E0,9.317651749E0,3.780659735E-1
1.473279712E1,-3.141776085E0,9.418149948E0,4.785645306E-1
1.474946379E1,-2.955136061E0,9.396614075E0,4.809573591E-1
1.476613046E1,-2.900100946E0,9.327222824E0,3.517449200E-1
1.478279712E1,-3.122633457E0,9.202795982E0,2.991028428E-1
1.479946379E1,-3.251846075E0,9.131011009E0,7.345965505E-1
1.481613045E1,-3.302095175E0,9.097511292E0,8.877372146E-1
1.483279712E1,-3.407379389E0,9.061619759E0,7.441678643E-1
1.484946379E1,-3.527020693E0,8.982656479E0,6.628118753E-1
1.486613045E1,-3.586841106E0,8.937192917E0,5.670989752E-1
1.488279712E1,-3.562912941E0,9.073583603E0,5.479564071E-1
1.489946378E1,-3.546163082E0,9.590433121E0,5.670989752E-1
1.491613045E1,-3.357130051E0,9.614361763E0,7.609176040E-1
1.493279712E1,-3.146561861E0,9.451649666E0,9.547362328E-1
1.494946378E1,-3.081955671E0,9.377471924E0,8.757730722E-1
1.496613045E1,-2.959921598E0,9.408578873E0,7.082754970E-1
1.498279711E1,-2.945564747E0,9.564111710E0,7.226324677E-1
1.499946378E1,-2.852244616E0,9.561718941E0,8.614161611E-1
1.501613045E1,-2.811566591E0,9.485149384E0,9.044869542E-1
1.503279711E1,-2.598605394E0,9.238688469E0,1.033699393E0
1.504946378E1,-2.421536446E0,8.882157326E0,7.154539824E-1
1.506613044E1,-2.129612207E0,8.949156761E0,4.666004181E-1
1.508279711E1,-2.005185366E0,9.114261627E0,7.896314859E-1
1.509946378E1,-1.569691658E0,9.145368576E0,1.021735311E0
1.511613044E1,-1.318445325E0,9.188439369E0,4.570291340E-1
1.513279711E1,-1.268195987E0,9.540184021E0,6.053841114E-1
1.514946377E1,-1.210768223E0,9.767501831E0,5.766702294E-1
1.516613044E1,-1.019342422E0,9.822537422E0,4.235295951E-1
1.518279711E1,-1.227517962E0,9.559326172E0,3.828516304E-1
1.519946377E1,-2.088934183E0,9.176474571E0,-1.722832322E-1
1.521613044E1,-2.629712105E0,8.951549530E0,-3.230310678E-1
1.523279710E1,-3.390629768E0,8.805587769E0,-9.020941257E-1
1.524946377E1,-3.979264021E0,9.099904060E0,-6.987041831E-1
1.526613044E1,-3.979264021E0,9.099904060E0,-6.987041831E-1
1.528279710E1,-4.867001057E0,9.674181938E0,-4.163511395E-1
1.529946377E1,-2.811566591E0,9.868000984E0,-4.785645381E-2
1.531613043E1,-1.643869162E0,9.937392235E0,-6.245267391E-1
1.533279710E1,-1.643869162E0,9.937392235E0,-6.245267391E-1
1.534946377E1,-7.058826685E-1,9.994820595E0,-6.963114142E-1
1.536613043E1,-7.154539824E-1,9.722038269E0,-2.775674164E-1
1.538279710E1,-1.019342422E0,9.343972206E0,-1.483550072E-1
1.539946376E1,-1.019342422E0,9.343972206E0,-1.483550072E-1
1.541613043E1,-8.159525394E-1,9.781859398E0,2.105683982E-1
1.543279710E1,-4.666004181E-1,1.037288570E1,1.196411345E-2
1.544946376E1,-2.751746178E-1,1.023410225E1,-3.349951655E-2
1.546613043E1,-5.623133183E-1,9.901499748E0,2.751746178E-1
1.548279709E1,-1.292124271E0,9.377471924E0,6.939185858E-1
1.549946376E1,-2.081755638E0,8.750552177E0,7.680960894E-1
1.551613043E1,-2.538784742E0,9.052047729E0,7.680960894E-1
1.553279709E1,-2.691925526E0,9.456435204E0,6.843472719E-1
1.554946376E1,-3.022135019E0,9.647860527E0,8.614161611E-1
1.556613042E1,-3.266202927E0,9.343972206E0,1.103091240E0
1.558279709E1,-3.266202927E0,9.343972206E0,1.103091240E0
1.559946376E1,-4.333401680E0,8.468199730E0,4.618147612E-1
1.561613042E1,-5.292923450E0,8.003992081E0,-1.019342422E0
1.563279709E1,-6.321837425E0,8.245666504E0,-2.524427891E0
1.564946375E1,-6.238088608E0,8.992227554E0,-2.859423161E0
1.566613042E1,-5.166104317E0,9.336793900E0,-2.266003132E0
1.568279709E1,-3.933800459E0,9.643074989E0,-2.096112728E0
1.569946375E1,-3.732803345E0,9.958928108E0,-3.168097258E0
1.571613042E1,-3.732803345E0,9.958928108E0,-3.168097258E0
1.573279708E1,-3.637090445E0,9.454042435E0,-2.780459881E0
1.574946375E1,-4.153940201E0,9.092725754E0,-2.727817774E0
1.576613042E1,-3.893122435E0,9.789037704E0,-3.180061340E0
1.578279708E1,-3.972085476E0,9.894321442E0,-3.586841106E0
1.579946375E1,-3.955335855E0,9.798608780E0,-3.847658873E0
1.581613041E1,-2.266003132E0,9.346364975E0,-3.244667530E0
1.583279708E1,-1.761117458E0,8.257631302E0,-3.282952785E0
1.584946375E1,-5.790630579E-1,8.683553696E0,-1.737189293E0
1.586613041E1,-1.320838094E0,8.300702095E0,6.245267391E-1
1.588279708E1,-2.287538528E0,6.975078106E0,2.273181438E0
1.589946374E1,-2.730210543E0,6.321837425E0,9.236295223E-1
1.591613041E1,-2.730210543E0,6.321837425E0,9.236295223E-1
1.593279708E1,-1.239482164E0,7.417750359E0,-6.087340832E0
1.594946374E1,-3.268595695E0,7.841279984E0,-2.845066071E0
1.596613041E1,-1.021735311E0,9.542576790E0,-9.571290761E-2
1.598279707E1,-1.021735311E0,9.542576790E0,-9.571290761E-2
1.599946374E1,-3.148954630E0,9.166903496E0,-4.436293125E0
1.601613041E1,-4.106083870E0,9.008976936E0,-1.160519004E0
1.603279707E1,-4.108476639E0,9.626325607E0,-8.087740541E-1
1.604946374E1,-3.170490026E0,1.058106136E1,-6.317051649E-1
1.606613040E1,-2.589034081E0,1.154297638E1,-3.349951655E-2
1.608279707E1,-1.471585870E0,1.130130100E1,-3.034099102E0
1.609946374E1,-2.701496840E0,1.037049294E1,-1.954936147E0
1.611613040E1,-3.864408493E0,9.296115875E0,-2.050648928E0
1.613279707E1,-4.374079704E0,8.001599312E0,-1.806581140E0
1.614946373E1,-4.819144726E0,7.917850018E0,-6.340979934E-1
1.616613040E1,-4.197010994E0,8.537590981E0,7.513462901E-1
1.618279707E1,-3.440878868E0,8.678768158E0,1.215553880E0
1.619946373E1,-2.201396942E0,8.726624489E0,1.517049551E0
1.621613040E1,-2.567498684E0,8.841479301E0,2.727817893E-1
1.623279706E1,-2.567498684E0,8.841479301E0,2.727817893E-1
1.624946373E1,-1.921436548E0,9.757930756E0,-1.653440475E0
1.626613040E1,-2.043470621E0,9.559326172E0,-1.591227055E0
1.628279706E1,-2.045863390E0,9.016156197E0,-1.112662554E0
1.629946373E1,-2.045863390E0,9.016156197E0,-1.112662554E0
1.631613039E1,-2.323430777E0,8.817551613E0,4.311866283E0
1.633279706E1,-9.499505758E-1,9.375079155E0,1.864008784E0
1.634946373E1,-4.235295951E-1,1.001635551E1,-1.421336651E0
1.636613039E1,-4.235295951E-1,1.001635551E1,-1.421336651E0
1.638279706E1,-1.378265858E0,9.207581520E0,3.661018610E-1
1.639946372E1,-2.012363911E0,9.463613510E0,1.012163997E0
1.641613039E1,-2.677568436E0,9.657432556E0,9.308080077E-1
1.643279706E1,-2.572284460E0,9.801001549E0,1.636690736E0
1.644946372E1,-2.440679073E0,1.004506969E1,1.694118381E0
1.646613039E1,-2.589034081E0,1.034177971E1,5.551348329E-1
1.648279705E1,-2.593819857E0,1.000199890E1,-4.259224236E-1
1.649946372E1,-2.416750908E0,9.209974289E0,-3.732803464E-1
1.651613039E1,-2.397608280E0,8.941978455E0,-4.067798331E-2
1.653279705E1,-2.797209740E0,8.867800713E0,-4.354937077E-1
1.654946372E1,-1.895115495E0,9.736394882E0,-6.723831892E-1
1.656613038E1,-1.895115495E0,9.736394882E0,-6.723831892E-1
1.658279705E1,-1.500299811E0,1.010488987E1,6.843472719E-1
1.659946372E1,-1.438086390E0,1.011685371E1,-5.096712112E-1
1.661613038E1,-7.298108935E-1,9.956535339E0,-1.213161111E0
1.663279705E1,-3.445664644E-1,1.013599682E1,-8.997012973E-1
1.664946371E1,-5.814558864E-1,1.009771156E1,8.614161611E-2
1.666613038E1,-7.274180651E-1,9.968499184E0,5.455635786E-1
1.668279705E1,-8.805587292E-1,9.765109062E0,8.590233326E-1
1.669946371E1,-9.619147182E-1,9.659825325E0,1.062413216E0
1.671613038E1,-1.026520967E0,9.602396965E0,1.581655741E0
1.673279704E1,-1.557727575E0,9.652647018E0,1.643869162E0
1.674946371E1,-1.864008784E0,9.786644936E0,1.873580098E0
1.676613038E1,-1.612762451E0,9.734002113E0,1.847259045E0
1.678279704E1,-2.220539331E0,9.296115875E0,1.363908887E0
1.679946371E1,-2.816352367E0,8.994620323E0,1.225125194E0
1.681613037E1,-2.816352367E0,8.994620323E0,1.225125194E0
1.683279704E1,-2.742174864E0,9.355937004E0,1.158126116E0
1.684946371E1,-2.371287346E0,9.647860527E0,1.253839016E0
1.686613037E1,-1.170090318E0,9.796216011E0,1.416550994E0
1.688279704E1,-2.385644197E0,9.583254814E0,1.191625714E0
1.689946370E1,-1.363908887E0,9.753145218E0,1.225125194E0
1.691613037E1,-1.402194023E0,9.946963310E0,8.350951076E-1
1.693279704E1,-9.092726111E-1,9.918250084E0,1.012163997E0
1.694946370E1,-9.092726111E-1,9.918250084E0,1.012163997E0
1.696613037E1,3.086741269E-1,1.034656525E1,9.978070259E-1
1.698279703E1,5.216353536E-1,1.007856941E1,5.312066078E-1
1.699946370E1,2.943171859E-1,9.600004196E0,1.548156261E0
1.701613037E1,3.780659735E-1,1.010488987E1,1.138983607E0
1.703279703E1,2.919243574E-1,1.059781170E1,5.958128572E-1
1.704946370E1,3.278166950E-1,1.165065384E1,4.402793646E-1
1.706613036E1,7.369893789E-1,1.231825066E1,-1.086341500E0
1.708279703E1,2.799602449E-1,1.154297638E1,-1.605584025E0
1.709946370E1,-4.115654826E-1,1.038006496E1,-9.714859724E-1
1.711613036E1,-1.239482164E0,8.003992081E0,8.566305041E-1
1.713279703E1,-1.239482164E0,8.003992081E0,8.566305041E-1
1.714946369E1,-4.579862595E0,1.038006496E1,-1.904686809E0
1.716613036E1,-4.881358147E0,1.226321602E1,-2.806781054E0
1.718279703E1,-3.850051641E0,1.549831200E1,-2.981456995E0
1.719946369E1,-2.770888567E0,1.378026581E1,-7.489534616E-1
1.721613036E1,-2.770888567E0,1.378026581E1,-7.489534616E-1
1.723279702E1,-1.823330879E0,1.005942631E1,1.148554921E0
1.724946369E1,-1.438086390E0,1.002114105E1,4.378865361E-1
1.726613036E1,-1.428515077E0,9.884750366E0,6.532405615E-1
1.728279702E1,-3.996013701E-1,9.875179291E0,2.297109663E-1
1.729946369E1,1.284945726E0,9.044869423E0,3.613162339E-1
1.731613035E1,-6.939185411E-2,9.968499184E0,-3.661018610E0
1.733279702E1,-2.261217356E0,9.667003632E0,-1.765903115E0
1.734946369E1,-1.801795483E0,1.017667484E1,-4.785645306E-1
1.736613035E1,-1.531406522E0,8.829515457E0,-7.202396393E-1
1.738279702E1,-2.572284460E0,8.018348694E0,-5.742774606E-1
1.739946368E1,-2.763710260E0,7.317251682E0,-6.723831892E-1
1.741613035E1,-2.251646042E0,6.735795975E0,-1.244267821E0
1.743279702E1,-2.091326952E0,5.479563713E0,-1.615155339E0
1.744946368E1,-2.091326952E0,5.479563713E0,-1.615155339E0
1.746613035E1,-1.875972986E0,5.017749310E0,-3.194418192E0
1.748279701E1,-1.335195065E0,5.134997368E0,-3.340380430E0
1.749946368E1,-2.392822653E-1,5.111069202E0,-3.170490026E0
1.751613035E1,6.149554253E-1,5.517848969E0,-3.388236761E0
1.753279701E1,6.149554253E-1,5.517848969E0,-3.388236761E0
1.754946368E1,2.682354212E0,7.200003147E0,-6.532405853E0
1.756613034E1,6.786045074E0,1.092562866E1,-6.049055576E0
1.758279701E1,1.054277611E1,1.559641838E1,-2.182254314E0
1.759946368E1,1.054277611E1,1.559641838E1,-2.182254314E0
1.761613034E1,5.393422127E0,1.645544052E1,-2.416750908E0
1.763279701E1,2.857030153E0,1.033699417E1,-3.534198999E0
1.764946367E1,2.660818815E0,5.120640278E0,-3.337987661E0
1.766613034E1,2.660818815E0,5.120640278E0,-3.337987661E0
1.768279701E1,1.124626622E-1,9.427721024E0,3.062812984E-1
1.769946367E1,-6.369693756E0,1.672583008E1,-3.132204771E0
1.771613034E1,-1.035852909E1,1.919043732E1,3.005385160E0
1.773279700E1,-1.035852909E1,1.919043732E1,3.005385160E0
1.774946367E1,-4.163511395E-1,7.458428383E0,-5.438885689E0
1.776613034E1,-3.692125320E0,4.785645485E0,1.892722726E0
1.778279700E1,-2.000399828E0,6.759724140E0,1.727617979E0
1.779946367E1,-2.000399828E0,6.759724140E0,1.727617979E0
1.781613033E1,-3.754338741E0,8.616554260E0,1.758724689E0
1.783279700E1,-4.019941807E0,9.085547447E0,1.567298889E0
1.784946367E1,-2.806781054E0,9.217152596E0,5.192425251E-1
1.786613033E1,-2.182254314E0,9.145368576E0,-1.021735311E0
1.788279700E1,-1.557727575E0,8.212167740E0,-3.036491871E0
1.789946366E1,-1.902294040E0,8.164310455E0,9.451649189E-1
1.791613033E1,1.411765367E-1,9.451649666E0,-9.379864931E-1
1.793279700E1,9.547362328E-1,9.863214493E0,-1.349551916E0
1.794946366E1,-8.374879360E-1,9.348757744E0,2.270788670E0
1.796613033E1,-2.498106956E0,7.843672752E0,2.837887764E0
1.798279699E1,-9.451649189E-1,7.034898758E0,1.119840980E0
1.799946366E1,-9.284151793E-1,7.223931789E0,1.115055323E0
1.801613033E1,-1.567298889E0,8.463413239E0,1.009771109E0
1.803279699E1,-1.909472466E0,9.872786522E0,-1.127019525E0
1.804946366E1,-1.909472466E0,9.872786522E0,-1.127019525E0
1.806613032E1,-1.933400750E0,1.228475189E1,-4.019941986E-1
1.808279699E1,-1.328016520E0,1.112423229E1,-3.302095234E-1
1.809946366E1,-3.445664644E-1,1.053081226E1,-1.074377418E0
1.811613032E1,3.230310678E-1,1.227039433E1,8.327022791E-1
1.813279699E1,2.392822644E-3,1.243310642E1,2.182254314E0
1.814946365E1,6.460621357E-1,1.245703506E1,2.368894339E0
1.816613032E1,1.866401732E-1,1.248814106E1,-2.117648125E0
1.818279699E1,2.330609322E0,1.284945774E1,3.613162339E-1
1.818279699E1,2.330609322E0,1.284945774E1,3.613162339E-1
1.821613032E1,1.777867198E0,8.245666504E0,-4.563112736E0
1.823279698E1,-4.340580463E0,7.819744587E0,-4.694717884E0
1.824946365E1,-3.290131092E0,1.261974621E1,9.571290575E-3
1.826613032E1,-2.237289190E0,1.517767429E1,7.417750359E-1
1.828279698E1,-2.340180635E0,2.027677917E1,-2.500499725E0
1.829946365E1,-8.104490280E0,2.606501770E1,-4.098905087E0
1.831613031E1,-8.104490280E0,2.606501770E1,-4.098905087E0
1.833279698E1,-1.043749237E1,1.819023705E1,6.199803352E0
1.834946365E1,-1.060020447E1,5.359922886E0,-6.410371780E0
1.836613031E1,-4.831109047E0,2.931207657E0,-2.830709219E0
1.838279698E1,-2.065006018E0,5.029713154E0,6.556333899E-1
1.839946364E1,-1.543370605E0,5.333601475E0,-6.795616150E-1
1.841613031E1,-9.786644578E-1,4.450650215E0,2.009970993E-1
1.843279698E1,1.275374413E0,3.857230186E0,1.471585870E0
1.844946364E1,1.256231904E0,3.354737282E0,4.450650215E-1
1.846613031E1,7.154539824E-1,2.361716032E0,5.120640397E-1
1.848279697E1,-2.380858421E0,4.785645306E-1,7.369893789E-1
1.849946364E1,-5.139782906E0,-6.819544435E-1,-3.589234054E-1
1.851613031E1,-5.134997368E0,-7.250252366E-1,-8.494520187E-1
1.853279697E1,-3.323630571E0,1.698904037E-1,-2.443071842E0
1.854946364E1,5.934200287E-1,3.072384357E0,-2.289931297E0
1.856613030E1,5.934200287E-1,3.072384357E0,-2.289931297E0
1.858279697E1,6.757331371E0,1.696032715E1,-1.197129154E1
1.859946364E1,1.333759308E1,2.673500824E1,1.694118381E0
1.861613030E1,1.122233772E1,2.200679016E1,-1.986042857E-1
1.863279697E1,1.122233772E1,2.200679016E1,-1.986042857E-1
1.864946363E1,5.814558983E0,1.693400574E1,-6.757331371E0
1.866613030E1,-1.450050473E0,1.658704567E1,2.876172781E0
1.868279697E1,-4.670789719E0,1.567298794E1,-2.349751949E0
1.869946363E1,-4.721039295E0,9.494720459E0,3.251846075E0
1.871613030E1,-3.450450182E0,7.267002583E0,3.926621914E0
1.873279696E1,-2.938386202E0,4.687539577E0,3.048455954E0
1.874946363E1,-2.938386202E0,4.687539577E0,3.048455954E0
1.876613030E1,-4.996213913E0,1.058584690E1,1.981257200E0
1.878279696E1,-6.587440968E0,1.134437180E1,1.564906001E0
1.879946363E1,-8.097311974E0,8.604590416E0,-3.110669553E-1
1.881613029E1,-8.097311974E0,8.604590416E0,-3.110669553E-1
1.883279696E1,-8.097311974E0,8.604590416E0,-3.110669553E-1
1.884946363E1,-1.402194023E0,6.687939167E0,-7.680960894E-1
1.886613029E1,-2.048256159E0,7.592426300E0,3.326023519E-1
1.888279696E1,-2.787638426E0,8.209774017E0,1.026520967E0
1.889946362E1,-2.787638426E0,8.209774017E0,1.026520967E0
1.891613029E1,-2.132004976E0,9.535398483E0,-1.763510346E0
1.893279696E1,0.000000000E0,1.044467068E1,-6.611369133E0
1.894946362E1,4.067798331E-2,1.012642574E1,2.727817893E-1
1.896613029E1,4.067798331E-2,1.012642574E1,2.727817893E-1
1.898279695E1,-4.139583111E-1,8.566305161E0,3.565305710E0
1.899946362E1,-5.910272002E-1,7.417750359E0,2.500499725E0
1.901613029E1,-5.910272002E-1,7.417750359E0,2.500499725E0
1.903279695E1,-1.079162955E0,1.021496010E1,-3.637090325E-1
1.904946362E1,-1.172483116E-1,1.175833035E1,7.274180651E-1
1.906613028E1,2.581855536E0,1.366301727E1,1.229910851E0
1.908279695E1,2.581855536E0,1.366301727E1,1.229910851E0
1.909946362E1,3.055634499E0,1.262453270E1,-5.218746185E0
1.911613028E1,2.749353170E0,9.946963310E0,9.810572863E-2
1.913279695E1,1.079162955E0,9.585647583E0,-1.060020447E0
1.914946361E1,-1.775474429E0,1.365105343E1,-9.403793216E-1
1.916613028E1,2.488535494E-1,1.474457359E1,1.036092162E0
1.918279695E1,1.057627559E0,1.261974621E1,8.446664214E-1
1.919946361E1,1.057627559E0,1.261974621E1,8.446664214E-1
1.921613028E1,1.057627559E0,1.261974621E1,8.446664214E-1
1.923279694E1,-3.326023579E0,1.226800156E1,-2.067398787E0
1.924946361E1,-2.433500528E0,1.836012840E1,9.044869542E-1
1.926613028E1,-6.180660725E0,2.355494690E1,-2.701496840E0
1.928279694E1,-6.180660725E0,2.355494690E1,-2.701496840E0
1.929946361E1,-1.062173939E1,1.914258194E1,-1.911865234E0
1.931613027E1,-8.523234367E0,1.117208862E1,5.168496966E-1
1.933279694E1,-5.278566837E0,6.831508636E0,-1.471585870E0
1.934946361E1,-5.278566837E0,6.831508636E0,-1.471585870E0
1.936613027E1,-1.368694544E0,6.731009960E0,8.757730722E-1
1.938279694E1,7.010970116E-1,6.501298904E0,1.148554832E-1
1.939946360E1,9.355936646E-1,5.120640278E0,-1.045663476E0
1.941613027E1,9.355936646E-1,5.120640278E0,-1.045663476E0
1.943279694E1,-8.446664214E-1,2.600998163E0,-2.464607358E-1
1.944946360E1,-1.045663476E0,2.124826431E0,-1.196411327E-1
1.946613027E1,-1.837687731E0,2.165504456E0,5.383850932E-1
1.948279693E1,-1.837687731E0,2.165504456E0,5.383850932E-1
1.949946360E1,-3.462414265E0,1.124626637E0,-3.445664644E-1
1.951613027E1,-3.462414265E0,1.124626637E0,-3.445664644E-1
1.953279693E1,-1.828116536E0,2.086541414E0,-2.730210543E0
1.954946360E1,-1.828116536E0,2.086541414E0,-2.730210543E0
1.956613026E1,5.297709465E0,1.459621811E1,-1.704886055E1
1.958279693E1,1.180618668E1,2.723032188E1,-3.014956474E0
1.959946360E1,1.180618668E1,2.723032188E1,-3.014956474E0
1.961613026E1,5.479563713E0,1.442632771E1,-9.540184021E0
1.963279693E1,2.959921598E0,1.225843048E1,-6.312266350E0
1.964946359E1,5.958128572E-1,1.273699474E1,1.706082582E0
1.966613026E1,5.958128572E-1,1.273699474E1,1.706082582E0
1.968279693E1,-6.496513367E0,1.236610699E1,-2.467000246E0
1.969946359E1,-5.039284706E0,8.788837433E0,6.340980053E0
1.971613026E1,-2.938386202E0,6.728617191E0,3.617947817E0
1.973279692E1,-3.290131092E0,6.128018856E0,1.454836130E0
1.974946359E1,-3.256631613E0,7.073183537E0,2.919243574E-1
1.976613026E1,-3.259024382E0,9.839286804E0,-5.383850932E-1
1.978279692E1,-4.235296249E0,9.059226990E0,-4.785645381E-2
1.979946359E1,-3.373879910E0,8.518448830E0,8.398807645E-1
1.981613025E1,-2.603390932E0,8.422736168E0,1.155733347E0
1.983279692E1,-1.777867198E0,8.630910873E0,9.547362328E-1
1.984946359E1,-1.777867198E0,8.630910873E0,9.547362328E-1
1.986613025E1,-1.962114573E0,8.037490845E0,-5.144568682E-1
1.988279692E1,-2.344966173E0,7.676175117E0,-3.134597540E-1
1.989946358E1,-1.660618901E0,7.666603565E0,2.943171859E-1
1.991613025E1,-3.349951655E-2,8.877371788E0,-1.478764415E0
1.993279692E1,1.292124242E-1,9.420542717E0,1.363908947E-1
1.994946358E1,-4.259224236E-1,9.236295700E0,1.076770186E0
1.996613025E1,-1.328016520E0,9.071190834E0,1.639083505E0
1.998279691E1,-6.293123364E-1,9.169296265E0,7.680960894E-1
1.999946358E1,-4.881358147E-1,9.308079720E0,-7.944171429E-1
2.001613025E1,-7.130611539E-1,9.702896118E0,-5.288137794E-1
2.003279691E1,-7.130611539E-1,9.702896118E0,-5.288137794E-1
2.004946358E1,-1.435693651E-1,1.179900837E1,1.339980662E-1
2.006613024E1,-1.435693651E-1,1.179900837E1,1.339980662E-1
2.008279691E1,4.283152521E-1,1.118644619E1,2.833101988E0
2.009946358E1,9.858429432E-1,1.093519974E1,-2.321037948E-1
2.011613024E1,2.979064226E0,1.173679543E1,-4.520041943E0
2.013279691E1,2.979064226E0,1.173679543E1,-4.520041943E0
2.014946357E1,-2.751746178E-1,1.000199890E1,1.914258115E-2
2.016613024E1,-2.411965132E0,1.197846985E1,1.639083505E0
2.018279691E1,1.890329868E-1,1.390947819E1,1.167697430E0
2.019946357E1,1.890329868E-1,1.390947819E1,1.167697430E0
2.021613024E1,-5.623133183E-1,1.082512951E1,7.752745152E-1
2.023279690E1,-2.857030153E0,6.807580471E0,2.153540403E-1
2.024946357E1,-2.857030153E0,6.807580471E0,2.153540403E-1
2.026613024E1,-2.857030153E0,6.807580471E0,2.153540403E-1
2.028279690E1,-3.548556089E0,1.778345871E1,-8.446664214E-1
2.029946357E1,-4.247260094E0,2.063331032E1,-1.007378340E0
2.031613023E1,-4.247260094E0,2.063331032E1,-1.007378340E0
2.033279690E1,-7.692924976E0,1.820220184E1,-3.093919754E0
2.034946357E1,-5.850451469E0,1.124626637E1,2.222932339E0
2.036613023E1,-4.192225456E0,6.104090691E0,-3.756731451E-1
2.038279690E1,-4.192225456E0,6.104090691E0,-3.756731451E-1
2.039946356E1,2.464607358E-1,8.003992081E0,-1.603191197E-1
2.041613023E1,7.178467698E-3,6.702296257E0,-1.222732425E0
2.043279690E1,-1.002592683E0,4.831109047E0,-4.139583111E-1
2.044946356E1,-1.002592683E0,4.831109047E0,-4.139583111E-1
2.046613023E1,-5.958128572E-1,3.873979807E0,-7.082754970E-1
2.048279689E1,-6.293123364E-1,3.878765583E0,2.751746178E-1
2.049946356E1,-2.318645239E0,3.617947817E0,6.747759581E-1
2.051613023E1,-2.318645239E0,3.617947817E0,6.747759581E-1
2.053279689E1,-4.953142643E0,2.041077614E0,-1.509871125E0
2.054946356E1,-3.337987661E0,2.026720762E0,-3.632304668E0
2.056613022E1,-8.973084688E-1,2.629712105E0,-3.299702406E0
2.058279689E1,-8.973084688E-1,2.629712105E0,-3.299702406E0
2.059946356E1,6.807580471E0,1.407458305E1,-6.250052929E0
2.061613022E1,1.200718403E1,2.327259254E1,-1.473978758E0
2.063279689E1,1.005224800E1,1.975992966E1,-7.393822074E-1
2.064946355E1,1.005224800E1,1.975992966E1,-7.393822074E-1
2.066613022E1,2.861815929E0,1.142572784E1,-7.460821152E0
2.068279689E1,3.201596737E0,1.094477081E1,1.842473388E0
2.069946355E1,3.680161238E0,1.407697582E1,4.354937077E-1
2.071613022E1,-2.627319336E0,2.001117516E1,-3.972085476E0
2.073279688E1,-7.896314621E0,1.657747459E1,-4.780859470E0
2.074946355E1,-6.503692150E0,1.068634605E1,4.211368084E0
2.076613022E1,-6.503692150E0,1.068634605E1,4.211368084E0
2.078279688E1,-6.503692150E0,1.068634605E1,4.211368084E0
2.079946355E1,-2.641676188E0,6.008377552E0,1.399801254E0
2.081613021E1,-3.536591768E0,6.939185619E0,2.895315289E-1
2.083279688E1,-3.536591768E0,6.939185619E0,2.895315289E-1
2.084946355E1,-3.536591768E0,6.939185619E0,2.895315289E-1
2.086613021E1,-4.208974838E0,1.017188931E1,1.179661512E0
2.088279688E1,-3.141776085E0,9.968499184E0,7.393822074E-1
2.089946354E1,-3.141776085E0,9.968499184E0,7.393822074E-1
2.091613021E1,-2.199003935E0,7.960920811E0,1.603191197E-1
2.093279688E1,-2.127219439E0,6.967899323E0,1.746760488E0
2.094946354E1,-1.887937069E0,7.300501823E0,2.201396942E0
2.096613021E1,-1.351944804E0,8.506484032E0,9.379864931E-1
2.098279687E1,-8.518448472E-1,9.162117958E0,-5.742774606E-1
2.099946354E1,-1.962114573E-1,1.009531879E1,-1.861616015E0
2.101613021E1,1.483550072E0,1.031545830E1,-5.412564754E0
2.103279687E1,1.483550072E0,1.031545830E1,-5.412564754E0
2.104946354E1,-1.074377418E0,9.260223389E0,2.696711063E0
2.106613020E1,-8.398807645E-1,1.031067276E1,3.242274761E0
2.108279687E1,1.100698471E0,1.238764286E1,9.260223508E-1
2.109946354E1,-8.973084688E-1,1.036570740E1,3.122633457E0
2.109946354E1,-8.973084688E-1,1.036570740E1,3.122633457E0
2.113279687E1,7.106683254E-1,1.027478027E1,-4.981856823E0
2.114946353E1,7.106683254E-1,1.027478027E1,-4.981856823E0
2.116613020E1,1.914258122E0,1.143529987E1,6.699903607E-1
2.118279687E1,1.004985452E0,1.074377346E1,-1.227517962E0
2.119946353E1,-1.296909928E0,1.022453117E1,-1.555334777E-1
2.121613020E1,-1.296909928E0,1.022453117E1,-1.555334777E-1
2.123279686E1,-1.665404558E0,1.176790142E1,1.641476393E0
2.124946353E1,-1.600798368E0,1.279920864E1,1.904686809E0
2.126613020E1,-3.565305769E-1,1.385683632E1,2.790031195E0
2.128279686E1,-9.978070259E-1,1.138983536E1,8.255237937E-1
2.129946353E1,-9.403793216E-1,9.107083321E0,8.063812256E-1
2.131613019E1,-1.655833244E0,7.925028801E0,8.255237937E-1
2.133279686E1,-3.730410576E0,7.104290485E0,1.007378340E0
2.134946353E1,-4.761716843E0,9.322437286E0,1.435693540E-2
2.136613019E1,-4.761716843E0,9.322437286E0,1.435693540E-2
2.138279686E1,-3.984049797E0,1.633819389E1,-6.431907177E0
2.139946352E1,-5.857629776E0,2.002553177E1,-6.821937561E0
2.141613019E1,-5.029713154E0,1.780020714E1,1.380658627E0
2.143279686E1,-5.324030399E0,1.128694439E1,4.692325115E0
2.144946352E1,-5.546562672E0,8.554341316E0,-3.120240688E0
2.146613019E1,-3.421736479E0,8.338987350E0,-4.905286431E-1
2.148279685E1,-3.421736479E0,8.338987350E0,-4.905286431E-1
2.149946352E1,-1.287338614E0,5.761917114E0,2.727817893E-1
2.151613019E1,1.275374413E0,5.501099110E0,-1.423729420E0
2.153279685E1,2.050648928E0,5.941378593E0,-1.119840980E0
2.154946352E1,2.050648928E0,5.941378593E0,-1.119840980E0
2.156613018E1,1.134197950E0,5.824130535E0,7.226324677E-1
2.158279685E1,-1.672582984E0,4.809573650E0,4.546362907E-2
2.159946352E1,-4.989035130E0,3.921836376E0,-1.050449133E0
2.161613018E1,-4.989035130E0,3.921836376E0,-1.050449133E0
2.163279685E1,-3.024527788E0,1.782652855E0,-1.844866276E0
2.164946351E1,-7.058826685E-1,2.567498684E0,-3.622733593E0
2.166613018E1,1.954936147E0,5.443671703E0,-2.371287346E0
2.168279685E1,8.295916557E0,1.533081436E1,-7.439285755E0
2.169946351E1,1.112423229E1,2.004228210E1,-3.878765583E0
2.171613018E1,1.153101254E1,2.171965027E1,-2.129612118E-1
2.173279684E1,1.153101254E1,2.171965027E1,-2.129612118E-1
2.174946351E1,3.349951744E0,1.156211948E1,-5.757131100E0
2.176613018E1,1.304088354E0,1.102612686E1,-3.914657831E0
2.178279684E1,8.853443712E-2,8.726624489E0,2.928814888E0
2.179946351E1,8.303094506E-1,1.076530933E1,-4.307080805E-1
2.181613017E1,-4.139583111E-1,1.559402561E1,-2.842673302E0
2.183279684E1,-3.134597778E0,1.621376610E1,9.738788009E-1
2.184946351E1,-9.332008362E0,1.359362507E1,1.272981644E0
2.186613017E1,-3.096312523E0,7.197610378E0,-1.328016520E0
2.188279684E1,-3.096312523E0,7.197610378E0,-1.328016520E0
2.189946350E1,-1.201196909E0,6.666403770E0,1.993221283E0
2.191613017E1,-9.906286001E-1,5.917450428E0,1.792224169E0
2.193279684E1,-3.105883837E0,5.879165173E0,1.404586911E0
2.194946350E1,-3.105883837E0,5.879165173E0,1.404586911E0
2.196613017E1,-4.072584152E0,9.006584167E0,1.170090318E0
2.198279683E1,-3.242274761E0,9.946963310E0,4.091726840E-1
2.199946350E1,-2.215753794E0,9.418149948E0,-5.024927258E-1
2.201613017E1,-2.215753794E0,9.418149948E0,-5.024927258E-1
2.203279683E1,-1.519442320E0,8.437092781E0,-3.780659735E-1
2.204946350E1,-1.138983607E0,7.982456207E0,4.761717021E-1
2.206613016E1,-5.742774159E-2,8.566305161E0,-6.245267391E-1
2.208279683E1,-5.742774159E-2,8.566305161E0,-6.245267391E-1
2.209946350E1,-4.354937077E-1,9.355937004E0,-3.948157430E-1
2.211613016E1,-4.737788737E-1,9.229117393E0,1.596012712E0
2.213279683E1,-3.708875179E-1,8.520841599E0,1.251446247E0
2.214946349E1,-2.991028428E-1,8.386843681E0,1.127019525E0
2.216613016E1,-6.987041831E-1,8.997013092E0,5.718846321E-1
2.218279683E1,-1.849651933E0,9.719645500E0,-4.713860750E-1
2.219946349E1,-1.849651933E0,9.719645500E0,-4.713860750E-1
2.221613016E1,-1.902294040E0,1.099023438E1,4.115654826E-1
2.223279682E1,-2.720639229E0,1.092802143E1,-7.178468257E-2
2.224946349E1,-2.672782898E0,1.063609695E1,7.609176040E-1
2.226613016E1,-2.672782898E0,1.063609695E1,7.609176040E-1
2.228279682E1,-1.313659668E0,1.116012478E1,1.993221283E0
2.229946349E1,1.110269666E0,1.138504982E1,4.115654826E-1
2.231613015E1,2.541177750E0,1.119362450E1,-3.316452265E0
2.233279682E1,2.541177750E0,1.119362450E1,-3.316452265E0
2.234946349E1,-5.958128572E-1,1.265085316E1,6.604190469E-1
2.236613015E1,8.135596663E-2,1.238525009E1,3.594019651E0
2.238279682E1,7.680960894E-1,1.027956581E1,1.215553880E0
2.239946348E1,-8.973084688E-1,7.314858913E0,-1.268195957E-1
2.241613015E1,-1.780260086E0,6.436692715E0,-6.867401004E-1
2.243279682E1,-4.527220249E0,8.408378601E0,-2.868994236E0
2.244946348E1,-4.527220249E0,8.408378601E0,-2.868994236E0
2.246613015E1,-1.732403636E0,1.877408600E1,2.009970993E-1
2.248279681E1,-3.309273720E0,2.094437599E1,-1.689332843E0
2.249946348E1,-9.535398483E0,2.308116722E1,-5.520241737E0
2.251613015E1,-7.987242222E0,1.571605873E1,2.612962246E0
2.253279681E1,-6.080162525E0,7.826922894E0,-8.973084688E-1
2.254946348E1,-4.749752998E0,6.118447304E0,-1.038485050E0
2.256613014E1,-1.313659668E0,5.783452511E0,6.675975323E-1
2.258279681E1,-1.313659668E0,5.783452511E0,6.675975323E-1
2.259946348E1,1.045663476E0,4.761716843E0,-2.019542217E0
2.261613014E1,1.584048629E0,4.594219685E0,-1.351944804E0
2.263279681E1,1.868794441E0,4.682754040E0,-1.316052437E0
2.264946347E1,1.868794441E0,4.682754040E0,-1.316052437E0
2.266613014E1,-1.067198873E0,4.680361271E0,4.666004181E-1
2.268279681E1,-2.849851847E0,4.242474556E0,-2.153540403E-1
2.269946347E1,-5.252245903E0,3.247060299E0,-3.541377485E-1
2.271613014E1,-4.232903481E0,2.060220242E0,-1.574477315E0
2.273279680E1,-2.873780012E0,1.957328916E0,-1.861616015E0
2.274946347E1,8.207381964E-1,2.656033039E0,-2.550748825E0
2.276613014E1,4.919643402E0,8.137989998E0,-2.316252232E0
2.278279680E1,1.229432297E1,1.883869362E1,-3.192025423E0
2.279946347E1,1.444786358E1,2.046820450E1,-2.115255117E0
2.281613013E1,1.222971630E1,1.609173203E1,-8.015955687E-1
2.283279680E1,7.226324558E0,1.174875927E1,-1.811366796E0
2.284946347E1,-1.148554832E-1,1.523988724E1,-8.094919205E0
2.286613013E1,-1.179661512E0,1.395733452E1,-6.967899323E0
2.288279680E1,7.298108935E-1,9.126225471E0,1.490728498E0
2.289946346E1,2.155933142E0,1.175593758E1,-7.657032460E-2
2.291613013E1,-2.309073925E0,1.402194023E1,-4.405186653E0
2.293279680E1,-5.017749310E0,1.356012630E1,-5.000999570E-1
2.294946346E1,-8.874979019E0,9.375079155E0,3.170490026E0
2.296613013E1,-5.534598827E0,8.583054543E0,9.858429432E-1
2.298279679E1,-2.076970100E0,9.408578873E0,1.366301775E0
2.299946346E1,-2.445464849E0,9.377471924E0,2.165504456E0
2.301613013E1,-2.790031195E0,8.470592499E0,1.392622828E0
2.303279679E1,-3.381058455E0,7.735995770E0,6.747759581E-1
2.304946346E1,-2.868994236E0,8.248059273E0,8.039883971E-1
2.306613012E1,-2.498106956E0,8.702695847E0,1.081555843E0
2.308279679E1,-2.222932339E0,9.183652878E0,1.354337573E0
2.309946346E1,-1.909472466E0,9.073583603E0,9.451649189E-1
2.311613012E1,-1.643869162E0,9.138189316E0,-3.373879790E-1
2.313279679E1,-1.787438512E0,8.901300430E0,-5.288137794E-1
2.314946345E1,-1.263410330E0,8.109275818E0,-4.474578202E-1
2.316613012E1,2.057827413E-1,7.982456207E0,-6.723831892E-1
2.318279679E1,6.675975323E-1,9.123832703E0,1.318445325E0
2.319946345E1,5.503492057E-2,9.159725189E0,2.062613010E0
2.321613012E1,-1.332802176E0,8.752944946E0,1.241874933E0
2.323279678E1,-1.332802176E0,8.752944946E0,1.241874933E0
2.324946345E1,-4.091726840E-1,8.647661209E0,1.076770201E-1
2.326613012E1,-7.465606928E-1,8.707481384E0,-7.178468257E-2
2.328279678E1,-7.465606928E-1,8.707481384E0,-7.178468257E-2
2.329946345E1,-1.282552958E0,1.088495064E1,2.632105052E-1
2.331613011E1,-1.282552958E0,1.088495064E1,2.632105052E-1
2.333279678E1,-1.945364833E0,1.121515942E1,-2.823530734E-1
2.334946345E1,-9.427721500E-1,1.121515942E1,1.502692580E0
2.336613011E1,-5.790630579E-1,1.084905815E1,2.723032236E0
2.338279678E1,-4.785645287E-3,1.077488041E1,2.947957516E0
2.339946344E1,-4.785645287E-3,1.077488041E1,2.947957516E0
2.341613011E1,-4.426721931E-1,1.007378292E1,-3.761517286E0
2.343279678E1,-4.426721931E-1,1.007378292E1,-3.761517286E0
2.344946344E1,2.464607358E-1,1.379701519E1,2.380858421E0
2.346613011E1,1.411765337E0,1.286859989E1,-2.270788670E0
2.348279677E1,-5.670989752E-1,9.090332985E0,-1.057627559E0
2.349946344E1,-5.670989752E-1,9.090332985E0,-1.057627559E0
2.351613011E1,-4.685146809E0,8.853444099E0,-2.986242771E0
2.353279677E1,-4.685146809E0,8.853444099E0,-2.986242771E0
2.354946344E1,-1.253839016E0,1.814955902E1,-1.316052526E-1
2.356613010E1,-6.149554253E0,2.041077805E1,-1.411765337E0
2.358279677E1,-1.014078236E1,2.128894234E1,-2.723032236E0
2.359946344E1,-1.113858986E1,1.724028778E1,9.786644578E-1
2.361613010E1,-7.317251682E0,9.616754532E0,1.119840980E0
2.363279677E1,-7.317251682E0,9.616754532E0,1.119840980E0
2.364946343E1,-2.421536446E0,4.225724697E0,-1.651047617E-1
2.366613010E1,-5.216353536E-1,5.426921844E0,-5.383850932E-1
2.368279677E1,6.771687865E-1,5.905486107E0,-1.418943882E0
2.369946343E1,6.771687865E-1,5.905486107E0,-1.418943882E0
2.371613010E1,1.057627559E0,5.903093338E0,-4.139583111E-1
2.373279676E1,1.387837082E-1,5.228317261E0,1.890329868E-1
2.374946343E1,-1.564906001E0,4.625326157E0,4.067798555E-1
2.376613010E1,-1.564906001E0,4.625326157E0,4.067798555E-1
2.378279676E1,-5.343173027E0,3.117847919E0,9.571290761E-2
2.379946343E1,-4.587040901E0,2.086541414E0,-1.607976794E0
2.381613009E1,-2.505285263E0,2.065006018E0,-2.187039852E0
2.383279676E1,-2.919243574E-1,2.629712105E0,-2.177468538E0
2.384946343E1,1.313659668E0,4.804787636E0,-5.144568682E-1
2.386613009E1,4.084548473E0,1.220100307E1,-2.041077614E0
2.388279676E1,4.084548473E0,1.220100307E1,-2.041077614E0
2.389946342E1,6.776473522E0,1.736710739E1,-9.260223508E-1
2.391613009E1,4.273581028E0,1.446939850E1,-3.206382394E-1
2.393279676E1,1.777867198E0,1.269153118E1,-2.641676188E0
2.394946342E1,1.777867198E0,1.269153118E1,-2.641676188E0
2.396613009E1,5.895915031E0,1.890329933E1,1.959721804E0
2.398279675E1,1.873580098E0,1.687897110E1,1.380658627E0
2.399946342E1,-1.222732425E0,1.625444412E1,-5.149354458E0
2.401613009E1,-1.222732425E0,1.625444412E1,-5.149354458E0
2.403279675E1,-6.171089649E0,6.077769279E0,2.519642353E0
2.404946342E1,-3.730410576E0,5.886343479E0,1.335195065E0
2.406613008E1,-2.105684042E0,8.329415321E0,3.170490026E0
2.408279675E1,-2.105684042E0,8.329415321E0,3.170490026E0
2.409946342E1,-3.854837179E0,9.298508644E0,9.188438654E-1
2.411613008E1,-5.115854740E0,7.051648140E0,1.962114573E-1
2.413279675E1,-5.115854740E0,7.051648140E0,1.962114573E-1
2.414946341E1,-3.017349243E0,8.202595711E0,3.469592929E-1
2.416613008E1,-2.720639229E0,7.688138962E0,3.996013701E-1
2.418279675E1,-2.304288149E0,7.154539585E0,8.853443712E-2
2.419946341E1,-2.304288149E0,7.154539585E0,8.853443712E-2
2.421613008E1,-2.273181438E0,8.736195564E0,2.526820660E0
2.423279674E1,-2.682354212E0,9.140582085E0,2.665604353E0
2.424946341E1,-2.440679073E0,1.032263660E1,1.210768223E0
2.426613008E1,-2.440679073E0,1.032263660E1,1.210768223E0
2.428279674E1,-2.440679073E0,1.032263660E1,1.210768223E0
2.429946341E1,1.447657704E0,8.530412674E0,-3.000599623E0
2.431613007E1,-1.847259045E0,8.216953278E0,2.926422119E0
2.433279674E1,-2.026720762E0,9.432506561E0,3.790230989E0
2.434946341E1,1.007378340E0,1.170808125E1,1.316052526E-1
2.436613007E1,1.387837172E0,1.238525009E1,5.383850932E-1
2.438279674E1,1.387837172E0,1.238525009E1,5.383850932E-1
2.439946340E1,-5.742774159E-2,9.987641335E0,2.273181528E-1
2.441613007E1,-5.742774159E-2,9.987641335E0,2.273181528E-1
2.443279674E1,3.637090325E-1,1.096869946E1,-2.971885681E0
2.444946340E1,1.091127157E0,1.046620655E1,-6.628118753E-1
2.446613007E1,7.920243144E-1,9.913464546E0,1.378265858E0
2.448279673E1,7.920243144E-1,9.913464546E0,1.378265858E0
2.449946340E1,4.426721931E-1,1.157647610E1,-6.484549642E-1
2.451613007E1,-3.421736360E-1,1.274417305E1,-4.833501875E-1
2.453279673E1,8.949156404E-1,1.116730309E1,1.988435626E0
2.454946340E1,4.498506486E-1,1.010249710E1,2.423929453E0
2.456613006E1,-2.823530734E-1,7.585247993E0,2.567498684E0
2.458279673E1,-3.847658873E0,6.482156754E0,-1.289731383E0
2.459946340E1,-5.687739372E0,1.319641685E1,-1.149512005E1
2.461613006E1,-6.405586243E0,1.717568016E1,-7.709674358E0
2.463279673E1,-8.726624489E0,2.305963135E1,-1.509871125E0
2.464946339E1,-1.025803089E1,2.246381950E1,-1.952543259E0
2.466613006E1,-9.245866776E0,1.469432354E1,-2.182254314E0
2.468279673E1,-7.171289444E0,1.151904774E1,-4.857429862E-1
2.469946339E1,-3.086741209E0,8.204988480E0,-1.172483116E-1
2.471613006E1,-3.086741209E0,8.204988480E0,-1.172483116E-1
2.473279672E1,2.371287346E0,6.451049805E0,-5.814558864E-1
2.474946339E1,3.754338741E0,6.936792850E0,-2.134397745E0
2.476613006E1,2.237289190E0,7.211967468E0,-1.969292998E0
2.478279672E1,2.237289190E0,7.211967468E0,-1.969292998E0
2.479946339E1,-5.527420044E-1,6.003592014E0,-7.298108935E-1
2.481613005E1,-8.662018180E-1,5.563312531E0,-8.614161611E-2
2.483279672E1,-2.313859463E0,3.931407690E0,2.727817893E-1
2.484946339E1,-2.313859463E0,3.931407690E0,2.727817893E-1
2.486613005E1,-5.012963295E0,2.677568436E0,-1.562513232E0
2.488279672E1,-3.091526747E0,2.864208698E0,-2.459821701E0
2.489946338E1,-3.828516304E-1,4.266402721E0,-2.981456995E0
2.491613005E1,1.607976794E0,5.079962254E0,-3.651447296E0
2.493279672E1,3.823730469E0,8.630910873E0,-3.357130051E0
2.494946338E1,6.128018856E0,1.172483063E1,-3.244667530E0
2.496613005E1,9.004191399E0,1.987478447E1,-5.072783947E0
2.498279671E1,6.716653347E0,2.097309113E1,-3.981656790E0
2.499946338E1,6.716653347E0,2.097309113E1,-3.981656790E0
2.501613005E1,2.464607239E0,1.049491978E1,-4.065405846E0
2.503279671E1,-6.652047038E-1,1.423968792E1,1.196411327E-1
2.504946338E1,-2.600998163E0,1.838644981E1,4.359723091E0
2.506613004E1,-2.600998163E0,1.838644981E1,4.359723091E0
2.508279671E1,-3.263810158E0,6.996613503E0,-3.436093330E0
2.509946338E1,-3.263810158E0,6.996613503E0,-3.436093330E0
2.511613004E1,-2.289931297E0,4.764110088E0,2.026720762E0
2.513279671E1,-2.289931297E0,4.764110088E0,2.026720762E0
2.514946337E1,-2.828316450E0,1.084905815E1,2.919243574E0
2.516613004E1,-2.828316450E0,1.084905815E1,2.919243574E0
2.518279671E1,-2.828316450E0,1.084905815E1,2.919243574E0
2.519946337E1,-3.661018610E0,9.628718376E0,-7.417750359E-2
2.521613004E1,-1.837687731E0,8.731410027E0,3.206382394E-1
2.523279670E1,-2.182254314E0,7.630711555E0,-1.459621787E-1
2.524946337E1,-2.182254314E0,7.630711555E0,-1.459621787E-1
2.526613004E1,-2.261217356E0,7.702496052E0,3.756731451E-1
2.528279670E1,-1.138983607E0,9.561718941E0,1.339980721E0
2.529946337E1,-1.148554921E0,9.939785004E0,2.732603550E0
2.531613003E1,-1.148554921E0,9.939785004E0,2.732603550E0
2.533279670E1,-4.594219327E-1,9.815358162E0,1.488335729E0
2.534946337E1,1.842473447E-1,9.181260109E0,-2.177468538E-1
2.536613003E1,4.019941986E-1,8.865407944E0,1.555334777E-1
2.538279670E1,4.019941986E-1,8.865407944E0,1.555334777E-1
2.539946336E1,-2.440679073E-1,9.004191399E0,5.934200287E-1
2.541613003E1,-5.958128572E-1,9.700503349E0,3.182454109E-1
2.543279670E1,-2.967100143E-1,1.021496010E1,-1.124626637E0
2.544946336E1,-1.567298889E0,9.750752449E0,-1.198804140E0
2.546613003E1,-1.282552958E0,1.031306553E1,9.092725813E-2
2.548279669E1,-9.308080077E-1,1.110748291E1,1.239482164E0
2.549946336E1,-1.708475351E0,1.028674412E1,3.038884699E-1
2.551613003E1,-1.500299811E0,1.010010433E1,8.135596663E-2
2.553279669E1,-1.512263894E0,1.030827999E1,6.221339107E-1
2.554946336E1,-8.949156404E-1,1.118166065E1,1.928615093E0
2.556613002E1,-8.949156404E-1,1.118166065E1,1.928615093E0
2.558279669E1,-1.148554832E-1,1.131565857E1,-1.160519004E0
2.559946336E1,-5.168496966E-1,1.127019501E1,-2.452643156E0
2.561613002E1,4.498506486E-1,1.213639641E1,-1.117448211E0
2.563279669E1,4.498506486E-1,1.213639641E1,-1.117448211E0
2.564946335E1,1.569691658E0,8.140382767E0,-2.799602509E0
2.566613002E1,1.067198873E0,6.551548481E0,-1.773081541E0
2.568279669E1,-2.481357098E0,6.463014126E0,-2.232503414E0
2.569946335E1,-4.369294167E0,1.283031464E1,-3.488735437E0
2.571613002E1,-1.411765367E-1,1.725464439E1,3.637090325E-1
2.573279668E1,-1.725225091E0,2.048495483E1,7.417750359E-2
2.574946335E1,-1.725225091E0,2.048495483E1,7.417750359E-2
2.576613002E1,-7.929814339E0,2.026242256E1,1.339980721E0
2.578279668E1,-6.441478729E0,1.454596901E1,4.804787636E0
2.579946335E1,-5.996413708E0,5.900700569E0,-3.180061340E0
2.581613001E1,-3.438486099E0,4.548755646E0,-2.007578135E0
2.583279668E1,-1.459621787E0,6.329015732E0,8.422735929E-1
2.584946335E1,-1.031306505E0,6.635297298E0,-1.794617027E-1
2.586613001E1,7.992027402E-1,6.549155712E0,-5.886343718E-1
2.588279668E1,2.167897224E0,6.151947021E0,-1.275374413E0
2.589946334E1,1.421336651E0,5.592026711E0,4.642075896E-1
2.591613001E1,7.345965505E-1,5.123033047E0,1.160519004E0
2.593279668E1,7.345965505E-1,5.123033047E0,1.160519004E0
2.594946334E1,7.345965505E-1,5.123033047E0,1.160519004E0
2.596613001E1,7.345965505E-1,5.123033047E0,1.160519004E0
2.598279667E1,-3.261417150E0,2.074577332E0,-2.294716835E0
2.599946334E1,-5.072783828E-1,2.797209740E0,-3.144168854E0
2.601613001E1,2.993421078E0,5.970092297E0,-3.086741269E-1
2.603279667E1,2.993421078E0,5.970092297E0,-3.086741269E-1
2.604946334E1,1.024128056E1,1.993460464E1,-7.944171429E-1
2.606613000E1,1.018385315E1,2.119801521E1,4.211367965E-1
2.606613000E1,1.018385315E1,2.119801521E1,4.211367965E-1
2.609946334E1,5.015356064E0,1.218903828E1,-6.654439926E0
2.611613000E1,2.684746981E0,1.014078236E1,-3.024527788E0
2.613279667E1,2.151147604E0,1.001635551E1,2.868994236E0
2.614946333E1,2.151147604E0,1.001635551E1,2.868994236E0
2.616613000E1,-6.132804394E0,1.610848236E1,6.125625968E-1
2.618279667E1,-9.142974854E0,1.396451283E1,-1.710868239E0
2.619946333E1,-9.142974854E0,1.396451283E1,-1.710868239E0
2.621613000E1,-3.622733593E0,6.331408501E0,1.028913736E0
2.623279666E1,-3.622733593E0,6.331408501E0,1.028913736E0
2.624946333E1,-1.495514154E0,6.800402164E0,1.909472466E0
2.626613000E1,-1.495514154E0,6.800402164E0,1.909472466E0
2.628279666E1,-3.833301783E0,8.073383331E0,8.925228715E-1
2.629946333E1,-3.833301783E0,8.073383331E0,8.925228715E-1
2.631612999E1,-3.883551121E0,1.045663452E1,8.398807645E-1
2.633279666E1,-2.931207657E0,1.007856941E1,8.135596663E-2
2.634946333E1,-2.931207657E0,1.007856941E1,8.135596663E-2
2.636612999E1,-2.931207657E0,1.007856941E1,8.135596663E-2
2.638279666E1,-1.227517962E0,7.578069210E0,8.135596663E-2
2.639946332E1,-7.800601721E-1,7.819744587E0,1.409372568E0
2.641612999E1,-7.800601721E-1,7.819744587E0,1.409372568E0
2.643279666E1,-1.651047617E-1,9.097511292E0,-1.378265858E0
2.644946332E1,-9.236295223E-1,9.135796547E0,4.307080805E-2
2.646612999E1,-1.045663476E0,9.363115311E0,1.050449133E0
2.648279665E1,1.076770201E-1,9.611968994E0,9.667003751E-1
2.649946332E1,1.770688742E-1,9.418149948E0,5.766702294E-1
2.651612999E1,-7.106683254E-1,9.286544800E0,-8.973084688E-1
2.653279665E1,-1.249053478E0,9.779465675E0,-1.189232826E0
2.654946332E1,-1.249053478E0,9.779465675E0,-1.189232826E0
2.656612998E1,-1.435693622E0,1.037288570E1,5.742774606E-1
2.658279665E1,-1.703689694E0,1.078445148E1,1.339980662E-1
2.659946332E1,-1.275374413E0,1.120319557E1,5.503492355E-1
2.661612998E1,-6.221339107E-1,1.139701462E1,2.347358942E0
2.663279665E1,-3.637090325E-1,1.142572784E1,2.012363911E0
2.664946331E1,1.012163997E0,1.136830044E1,-2.055434704E0
2.666612998E1,1.012163997E0,1.136830044E1,-2.055434704E0
2.668279665E1,-1.517049551E0,1.178943729E1,1.117448211E0
2.669946331E1,-8.566305041E-1,1.292363548E1,4.929214716E-1
2.671612998E1,1.167697430E0,1.260299683E1,3.445664644E-1
2.673279664E1,-1.722832322E-1,9.619147301E0,-3.373879790E-1
2.674946331E1,-1.978864312E0,6.403193474E0,-1.887937069E0
2.676612998E1,-3.311666489E0,6.850651264E0,-4.185046673E0
2.678279664E1,-3.998406649E0,1.241874981E1,-3.390629768E0
2.679946331E1,-2.610569477E0,1.654158211E1,-6.699903309E-2
2.681612997E1,-2.610569477E0,1.654158211E1,-6.699903309E-2
2.683279664E1,-8.898907661E0,2.240878487E1,-8.413164139E0
2.684946331E1,-8.977870941E0,2.000399780E1,1.328016520E0
2.686612997E1,-6.886543751E0,1.064088249E1,3.665804386E0
2.688279664E1,-6.886543751E0,1.064088249E1,3.665804386E0
2.689946330E1,-2.931207657E0,4.941178799E0,-7.226324677E-1
2.691612997E1,-7.609176040E-1,6.070590973E0,4.067798555E-1
2.693279664E1,3.110669553E-1,5.639883041E0,6.269195080E-1
2.694946330E1,3.110669553E-1,5.639883041E0,6.269195080E-1
2.696612997E1,2.474178553E0,5.931807518E0,-1.957328916E0
2.698279663E1,1.067198873E0,5.771488190E0,6.819544435E-1
2.699946330E1,-1.373480201E0,4.601397991E0,2.440679073E-1
2.701612997E1,-2.797209740E0,3.840480328E0,1.866401732E-1
2.703279663E1,-5.654240131E0,1.445264935E0,-1.246660590E0
2.704946330E1,-4.168296814E0,1.493121386E0,-1.840080619E0
2.706612996E1,-2.529213428E0,2.210968018E0,-2.388036966E0
2.708279663E1,-8.997012973E-1,3.017349243E0,-2.878565550E0
2.709946330E1,2.316252232E0,5.637490273E0,-2.979064226E0
2.711612996E1,7.377072334E0,1.399083424E1,-6.049055576E0
2.713279663E1,9.805787086E0,2.134876442E1,2.574677229E0
2.714946329E1,9.188439369E0,2.150668907E1,3.182454109E0
2.716612996E1,9.188439369E0,2.150668907E1,3.182454109E0
2.718279663E1,5.374279499E0,1.505085468E1,-5.242674351E0
2.719946329E1,5.374279499E0,1.505085468E1,-5.242674351E0
2.721612996E1,1.780260086E0,6.352943897E0,1.263410330E0
2.723279662E1,1.722832322E-1,1.168893814E1,-5.235496044E0
2.724946329E1,-8.750552177E0,1.584048557E1,-7.824530005E-1
2.726612996E1,-8.750552177E0,1.584048557E1,-7.824530005E-1
2.728279662E1,-5.824130535E0,1.226082325E1,1.792224169E0
2.729946329E1,-2.371287346E0,7.211967468E0,8.542376757E-1
2.731612995E1,-1.619940877E0,6.250052929E0,2.222932339E0
2.733279662E1,-1.619940877E0,6.250052929E0,2.222932339E0
2.734946329E1,-3.067598581E0,5.094319344E0,1.009771109E0
2.736612995E1,-4.005585194E0,6.745367050E0,9.930213690E-1
2.738279662E1,-4.484149456E0,9.939785004E0,1.811366796E0
2.739946328E1,-4.096512318E0,1.154297638E1,1.026520967E0
2.741612995E1,-3.785445452E0,1.071984577E1,1.674975902E-1
2.743279662E1,-2.541177750E0,8.537590981E0,-1.356730461E0
2.744946328E1,-2.541177750E0,8.537590981E0,-1.356730461E0
2.746612995E1,-8.231309652E-1,6.465406895E0,1.335195065E0
2.748279661E1,-9.308080077E-1,6.618547440E0,1.758724689E0
2.749946328E1,-1.261017561E0,8.501698494E0,1.031306505E0
2.751612995E1,-1.261017561E0,8.501698494E0,1.031306505E0
2.753279661E1,-6.005984545E-1,1.046859932E1,-1.014556766E0
2.754946328E1,-1.143769264E0,1.010249710E1,1.818545163E-1
2.756612994E1,-1.045663476E0,9.212367058E0,1.301695466E0
2.758279661E1,8.207381964E-1,9.269794464E0,-2.464607358E-1
2.759946328E1,8.207381964E-1,9.269794464E0,-2.464607358E-1
2.761612994E1,-1.229910851E0,9.690931320E0,-6.364908218E-1
2.763279661E1,-1.316052437E0,1.022692394E1,2.368894339E0
2.764946327E1,-1.316052437E0,1.022692394E1,2.368894339E0
2.766612994E1,-8.494520187E-1,1.084905815E1,4.228117466E0
2.768279661E1,2.187039852E0,1.240199947E1,-6.195017815E0
2.769946327E1,1.433300734E0,1.082034397E1,-1.265803218E0
2.771612994E1,1.433300734E0,1.082034397E1,-1.265803218E0
2.773279660E1,-8.853443861E-1,9.640682220E0,3.230310678E-1
2.774946327E1,-2.646461725E0,1.246660614E1,-1.107876897E0
2.776612994E1,-3.062812984E-1,1.464407444E1,1.143769264E0
2.778279660E1,-6.747759581E-1,1.247617722E1,1.670190215E0
2.779946327E1,-8.446664214E-1,1.069113159E1,1.459621787E0
2.781612993E1,3.110669367E-2,8.501698494E0,2.172683001E0
2.783279660E1,-1.682154298E0,6.719046116E0,-1.210768223E0
2.784946327E1,-3.357130051E0,1.079162979E1,-6.807580471E0
2.786612993E1,-2.450250387E0,1.334955788E1,-4.350151539E0
2.788279660E1,-2.282752752E0,1.620180130E1,3.828516304E-1
2.789946326E1,-5.577669621E0,2.013320923E1,-9.810572863E-2
2.791612993E1,-7.712067604E0,2.099701881E1,-4.101297855E0
2.793279660E1,-5.288137913E0,1.637169266E1,2.488535494E-1
2.794946326E1,-4.149154663E0,8.609375954E0,9.236295223E-1
2.796612993E1,-2.849851847E0,6.534798622E0,-1.438086390E0
2.798279659E1,-1.184447169E0,5.989234924E0,6.340979934E-1
2.799946326E1,-5.024927258E-1,5.649454117E0,7.704889178E-1
2.801612993E1,7.848458290E-1,5.917450428E0,-9.403793216E-1
2.803279659E1,1.485942841E0,6.130411625E0,-5.790630579E-1
2.804946326E1,1.167697430E0,5.687739372E0,5.838487148E-1
2.806612992E1,8.015955687E-1,5.587240696E0,9.236295223E-1
2.808279659E1,-2.041077614E0,4.398007870E0,-1.986042857E-1
2.809946326E1,-6.412764549E0,3.897907972E0,-7.896314561E-2
2.811612992E1,-6.412764549E0,3.897907972E0,-7.896314561E-2
2.813279659E1,-4.481756687E0,2.868994236E0,-1.983649969E0
2.814946325E1,-7.106683254E-1,4.474578381E0,-1.909472466E0
2.816612992E1,2.175075769E0,5.773880959E0,-2.289931297E0
2.818279659E1,4.438685894E0,9.018548965E0,-3.304488182E0
2.819946325E1,6.400800705E0,1.231107235E1,-5.123033047E0
2.821612992E1,9.372686386E0,1.718046570E1,-2.182254314E0
2.823279658E1,7.424928665E0,1.606062508E1,-1.339980662E-1
2.824946325E1,5.460421085E0,1.422772312E1,-9.714859724E-1
2.826612992E1,3.058027267E0,1.669711685E1,-6.594619274E0
2.828279658E1,3.012563705E0,1.674018669E1,-5.874379635E0
2.829946325E1,1.564906001E0,8.927620888E0,3.900300860E-1
2.831612991E1,4.115654826E-1,6.565905571E0,2.636890650E0
2.833279658E1,8.374879509E-2,9.035298347E0,4.259224236E-1
2.834946325E1,-4.539184570E0,1.291645622E1,-5.295316696E0
2.836612991E1,-7.314858913E0,1.336630726E1,2.141576290E0
2.838279658E1,-9.293723106E0,1.053799057E1,3.354737282E0
2.839946324E1,-3.127419233E0,8.551948547E0,7.369893789E-1
2.841612991E1,-3.397808075E-1,8.717052460E0,-2.225325108E-1
2.843279658E1,-2.091326952E0,7.389036179E0,1.739582062E0
2.844946324E1,-2.390429735E0,6.838686943E0,2.029113531E0
2.846612991E1,-3.163311481E0,6.929614544E0,1.337587833E0
2.848279657E1,-2.656033039E0,8.506484032E0,1.057627559E0
2.849946324E1,-2.656033039E0,8.506484032E0,1.057627559E0
2.851612991E1,-1.808973908E0,9.865608215E0,1.339980662E-1
2.853279657E1,-5.312066078E-1,9.123832703E0,-1.720439434E0
2.854946324E1,-2.330609322E0,7.587640762E0,9.092726111E-1
2.856612990E1,3.206382394E-1,7.877171993E0,2.275574446E0
2.858279657E1,9.140582681E-1,7.733603001E0,2.232503414E0
2.859946324E1,8.374879509E-2,8.494520187E0,-4.115654826E-1
2.861612990E1,-1.253839016E0,8.642875671E0,-9.690931439E-1
2.863279657E1,-3.302095234E-1,9.166903496E0,1.619940877E0
2.864946323E1,-8.829515576E-1,8.762516975E0,1.148554921E0
2.866612990E1,-1.332802176E0,8.475378036E0,1.674975902E-1
2.868279657E1,-1.332802176E0,8.475378036E0,1.674975902E-1
2.869946323E1,-1.490728498E0,9.075976372E0,-4.809573591E-1
2.871612990E1,-1.497906923E0,9.164510727E0,-5.838487148E-1
2.873279656E1,-1.959721804E0,9.477970123E0,-5.623133183E-1
2.874946323E1,-2.447857618E0,1.052841949E1,6.795616150E-1
2.876612990E1,-2.447857618E0,1.052841949E1,6.795616150E-1
2.878279656E1,-3.235096216E0,1.218185997E1,3.828516230E-2
2.879946323E1,4.067798331E-2,1.323948765E1,2.464607239E0
2.881612989E1,1.277767301E0,1.262692547E1,3.151347399E0
2.883279656E1,1.823330879E0,1.256949711E1,1.019342422E0
2.884946323E1,1.935793519E0,1.301934814E1,-2.713460922E0
2.886612989E1,2.225325108E-1,1.404108334E1,1.363908947E-1
2.888279656E1,2.225325108E-1,1.404108334E1,1.363908947E-1
2.889946322E1,1.399801254E0,9.394221306E0,1.954936147E0
2.891612989E1,5.407779217E-1,6.305087566E0,-1.440479279E0
2.893279656E1,-3.742374659E0,6.252445698E0,-3.929014683E0
2.894946322E1,-4.287938118E0,1.167697430E1,-1.146162033E0
2.896612989E1,-3.850051641E0,1.445743465E1,-6.029912829E-1
2.898279655E1,-2.292324066E0,1.979103661E1,-2.651247501E0
2.899946322E1,-8.410771370E0,2.563430977E1,-6.865008354E0
2.901612989E1,-8.303094864E0,2.327259254E1,3.960121393E0
2.903279655E1,-8.492127419E0,1.831466484E1,3.998406649E0
2.904946322E1,-8.001599312E0,8.233702660E0,-1.823330879E0
2.906612988E1,-4.534399033E0,3.842873096E0,-4.307080805E-1
2.908279655E1,-1.043270707E0,5.144568920E0,2.249253243E-1
2.909946322E1,-6.939185411E-2,6.029912949E0,5.647061467E-1
2.911612988E1,9.092726111E-1,5.065605640E0,-2.507678032E0
2.913279655E1,7.369893789E-1,3.555734396E0,-2.368894368E-1
2.914946321E1,1.071984529E0,2.459821701E0,1.588834286E0
2.916612988E1,1.842473388E0,3.412165165E0,8.901300430E-1
2.918279655E1,-2.062613010E0,2.321038008E0,-9.571290761E-2
2.919946321E1,-4.890929699E0,1.052842021E0,-6.221339107E-1
2.921612988E1,-5.568098068E0,6.364908218E-1,-5.623133183E-1
2.923279654E1,-4.771288395E0,1.057627559E0,-9.930213690E-1
2.924946321E1,-1.674975872E0,2.560320139E0,-1.170090318E0
2.926612988E1,1.514656782E0,4.165904045E0,-1.107876897E0
2.928279654E1,5.747560024E0,8.453842163E0,-4.847858906E0
2.929946321E1,8.681160927E0,1.265803146E1,-5.850451469E0
2.931612987E1,1.458425426E1,1.936511421E1,-5.228317261E0
2.933279654E1,1.646022606E1,1.551027679E1,-1.847259045E0
2.934946321E1,1.646022606E1,1.551027679E1,-1.847259045E0
2.936612987E1,4.838287354E0,1.940339851E1,-6.195017815E0
2.938279654E1,-3.256631613E0,1.131087303E1,-4.572684288E0
2.939946320E1,-5.111069202E0,7.460821152E0,-6.195017815E0
2.941612987E1,-2.179861546E0,1.936511421E1,4.283152580E0
2.943279654E1,-2.464607358E-1,2.518685150E1,-8.300702095E0
2.944946320E1,-8.578269005E0,1.780499268E1,7.915457249E0
2.946612987E1,-3.081955671E0,5.644668579E0,7.896314859E-1
2.948279653E1,-2.366501570E0,2.895315409E0,1.325623751E0
2.949946320E1,-2.072184324E0,3.055634499E0,1.753939033E0
2.951612987E1,-1.990828395E0,9.111868858E0,2.897708178E0
2.953279653E1,-2.943171740E0,1.242832088E1,2.572284460E0
2.954946320E1,-4.472185612E0,1.223928738E1,1.318445325E0
2.956612986E1,-6.477370739E0,1.127258778E1,-1.014556766E0
2.958279653E1,-2.734996319E0,9.879964828E0,-3.589234054E-1
2.959946320E1,-1.076770186E0,7.470392227E0,5.647061467E-1
2.961612986E1,-8.470591903E-1,7.099504948E0,1.131805062E0
2.963279653E1,-1.629512191E0,5.268995285E0,2.084148407E0
2.964946319E1,-9.451649189E-1,6.250052929E0,7.345965505E-1
2.966612986E1,-9.451649189E-1,6.250052929E0,7.345965505E-1
2.968279653E1,1.651047617E-1,7.664210796E0,-1.966900229E0
2.969946319E1,-1.004985452E0,8.394021988E0,7.752745152E-1
2.971612986E1,-1.361516118E0,8.891729355E0,1.320838094E0
2.973279652E1,-6.245267391E-1,8.377271652E0,5.335994363E-1
2.974946319E1,-6.795616150E-1,8.068597794E0,7.848458290E-1
2.976612986E1,-1.342373490E0,8.595019341E0,1.170090318E0
2.978279652E1,-3.072384357E0,1.022213840E1,-1.182054400E0
2.979946319E1,-2.775674164E-1,1.338544941E1,-5.718846321E-1
2.981612985E1,1.351944804E0,1.410329628E1,8.614161611E-1
2.983279652E1,3.115455151E0,1.490249920E1,2.895315289E-1
2.984946319E1,2.708675146E0,1.372523022E1,-7.585247755E-1
2.986612985E1,5.000999451E0,1.241157150E1,-4.718646049E0
2.988279652E1,5.077569485E0,1.087537861E1,3.565305769E-1
2.989946318E1,2.392822653E-1,1.181815147E1,1.325623751E0
2.991612985E1,4.785645287E-3,1.260060406E1,-7.202396393E-1
2.993279652E1,-1.897508383E0,1.055952644E1,-8.422735929E-1
2.994946318E1,-3.663411379E0,1.026999474E1,-9.260223508E-1
2.996612985E1,-3.393022537E0,1.204546928E1,-1.507478207E-1
2.998279651E1,-1.158126116E0,1.746521187E1,1.162911773E0
2.999946318E1,-9.772287369E0,2.383490562E1,-5.056034088E0
3.001612985E1,-1.122233772E1,2.726142883E1,-3.873979807E0
3.003279651E1,-7.106683254E0,2.688336182E1,6.458228111E0
3.004946318E1,-7.106683254E0,2.688336182E1,6.458228111E0
3.006612984E1,-1.205264759E1,8.319844246E0,-1.119601727E1
3.008279651E1,-5.625525951E0,2.991028309E0,2.347358942E0
3.009946318E1,-8.398807645E-1,6.142375946E0,1.009771109E0
3.011612984E1,-5.742774159E-2,4.768895626E0,-1.804188251E0
3.013279651E1,-9.571290575E-3,3.823730469E0,-1.450050473E0
3.014946317E1,-3.708875179E-1,2.258824587E0,5.982056633E-2
3.016612984E1,3.134597540E-1,2.093719721E0,1.531406522E0
3.018279651E1,1.201196909E0,1.462014675E0,1.703689694E0
3.019946317E1,9.355936646E-1,1.316052437E0,1.780260086E0
3.021612984E1,-3.649054527E0,1.411765367E-1,1.249053478E0
3.023279650E1,-6.766902447E0,-1.674975902E-1,9.379864931E-1
3.024946317E1,-5.185246468E0,-2.009970993E-1,-1.048056364E0
3.026612984E1,-4.012763500E0,-2.081755698E-1,-2.378465652E0
3.028279650E1,8.542376757E-1,2.859423161E0,-3.438486099E0
3.029946317E1,6.427121639E0,1.666600990E1,-2.140140533E1
3.031612983E1,1.725942993E1,2.698625374E1,-3.208775282E0
3.033279650E1,2.038684845E1,3.050370216E1,1.127019501E1
3.034946317E1,1.673540115E1,1.887458420E1,-1.253839111E1
3.036612983E1,5.410171986E0,9.525827408E0,-6.568298340E0
3.038279650E1,-2.835494757E0,1.174875927E1,-2.153540403E-1
3.039946316E1,-5.185246468E0,1.734078598E1,-1.234696484E1
3.041612983E1,-5.721239090E0,2.023849487E1,8.937192917E0
3.043279650E1,-7.008577347E0,9.597611427E0,2.715853691E0
3.044946316E1,-4.847858906E0,5.070391178E0,3.828516304E-1
3.046612983E1,-4.067798615E0,5.501099110E0,8.135597110E-1
3.048279649E1,-3.146561861E0,9.229117393E0,1.347159147E0
3.049946316E1,-3.146561861E0,9.229117393E0,1.347159147E0
3.051612983E1,-4.244867325E0,9.131011009E0,8.327022791E-1
3.053279649E1,-4.448257446E0,8.676374435E0,7.489534616E-1
3.054946316E1,-3.393022537E0,8.338987350E0,1.246660590E0
3.056612982E1,-3.393022537E0,8.338987350E0,1.246660590E0
3.058279649E1,-1.981257200E0,7.661818027E0,5.024927258E-1
3.059946316E1,-2.349751949E0,6.910471916E0,5.048855543E-1
3.061612982E1,-2.191825628E0,6.630511761E0,1.268195957E-1
3.063279649E1,-1.232303619E0,6.465406895E0,5.192425251E-1
3.064946315E1,-6.867401004E-1,6.824330330E0,2.007578135E0
3.066612982E1,-8.111668825E-1,7.142575741E0,2.069791555E0
3.068279649E1,-5.527420044E-1,8.468199730E0,1.191625714E0
3.069946315E1,-5.527420044E-1,8.468199730E0,1.191625714E0
3.071612982E1,-1.048056364E0,9.743574142E0,-4.266402721E0
3.073279648E1,-1.060020447E0,1.005464077E1,2.287538528E0
3.074946315E1,-9.284151793E-1,1.108116150E1,3.538984776E0
3.076612982E1,-9.284151793E-1,1.108116150E1,3.538984776E0
3.078279648E1,1.536192179E0,1.346919823E1,-3.168097258E0
3.079946315E1,1.751546144E0,1.373480225E1,2.402393818E0
3.081612981E1,2.304288149E0,1.279920864E1,-2.988635540E0
3.083279648E1,7.049255371E0,1.233500099E1,-4.723432064E0
3.084946315E1,6.783652306E0,1.049731255E1,1.887937069E0
3.086612981E1,1.887937069E0,1.022213840E1,2.510071039E0
3.088279648E1,-2.148754835E0,1.296431351E1,-5.312066078E-1
3.089946314E1,2.486142635E0,1.394537067E1,1.895115495E0
3.091612981E1,1.655833244E0,1.201914787E1,1.304088354E0
3.093279648E1,-4.252045631E0,8.709874153E0,-1.500299811E0
3.094946314E1,-4.709074974E0,9.801001549E0,-1.055234790E0
3.096612981E1,-4.709074974E0,9.801001549E0,-1.055234790E0
3.098279647E1,-3.658625841E0,1.855633926E1,-1.832902193E0
3.099946314E1,-8.791230202E0,2.761556625E1,-5.479563713E0
3.101612981E1,-8.047062874E0,2.860140991E1,3.589233875E0
3.103279647E1,-9.997213364E0,1.594337749E1,-2.033899277E-1
3.104946314E1,-1.014796066E1,1.006421185E1,-5.335994720E0
3.106612980E1,-6.187839508E0,5.661418438E0,-7.657032609E-1
3.108279647E1,-2.931207657E0,5.668596745E0,2.297109842E0
3.109946314E1,-1.143769264E0,3.775874138E0,1.624726534E0
3.111612980E1,-5.168496966E-1,3.081955671E0,1.962114573E-1
3.113279647E1,5.551348329E-1,2.739781857E0,-6.628118753E-1
3.114946313E1,7.657032609E-1,2.711068153E0,-2.392822644E-3
3.116612980E1,3.828516304E-1,1.380658627E0,8.183453679E-1
3.118279647E1,3.254238665E-1,1.313659668E0,1.349551916E0
3.119946313E1,-2.402393818E0,5.623133183E-1,1.409372568E0
3.121612980E1,-5.096712112E0,4.689932466E-1,1.914258152E-1
3.123279646E1,-3.981656790E0,7.250252366E-1,-1.596012712E0
3.124946313E1,-2.986242771E0,7.561319470E-1,-2.596212626E0
3.126612980E1,6.364908218E-1,2.423929453E0,-2.603390932E0
3.128279646E1,5.467599869E0,1.256710434E1,-1.616351700E1
3.129946313E1,9.303294182E0,1.825245094E1,-1.222253799E1
3.131612979E1,1.913779640E1,3.104208755E1,1.398365593E1
3.133279646E1,2.038684845E1,2.273420715E1,-1.061216831E1
3.134946313E1,9.315258980E0,1.117687416E1,-9.032905579E0
3.136612979E1,4.180261135E0,7.822137356E0,-3.237488985E0
3.138279646E1,-3.393022537E0,9.061619759E0,-3.720839262E0
3.139946312E1,-3.230310678E0,1.670190239E1,1.928615093E0
3.141612979E1,-7.865208149E0,1.608934021E1,5.687739372E0
3.143279646E1,-9.477970123E0,1.116491032E1,2.120040894E0
3.144946312E1,-5.864808083E0,7.278966427E0,-6.508477330E-1
3.146612979E1,-2.890529871E0,8.654839516E0,7.322037220E-1
3.148279645E1,-2.115255117E0,9.796216011E0,1.064806104E0
3.149946312E1,-2.170290232E0,9.387042999E0,1.093519926E0
3.151612979E1,-3.242274761E0,7.948956966E0,9.308080077E-1
3.153279645E1,-3.364308596E0,7.992027760E0,1.775474429E0
3.154946312E1,-2.648854733E0,8.980263710E0,2.009970903E0
3.156612978E1,-2.143969059E0,9.482755661E0,1.550549030E0
3.158279645E1,-1.923829436E0,8.896514893E0,6.077769399E-1
3.159946312E1,-2.388036966E0,6.520441532E0,-4.713860750E-1
3.161612978E1,-1.868794441E0,5.857629776E0,-1.459621787E-1
3.163279645E1,-1.265803218E0,5.802595139E0,6.723831892E-1
3.164946311E1,-1.818545163E-1,6.570691109E0,5.982056856E-1
3.166612978E1,-3.828516230E-2,8.391629219E0,-2.608176768E-1
3.168279645E1,1.292124242E-1,1.024606609E1,-3.775874138E0
3.169946311E1,-4.283152521E-1,1.056670475E1,-4.326223373E0
3.171612978E1,-6.915257573E-1,9.585647583E0,1.296909928E0
3.173279644E1,-4.019941986E-1,9.492327690E0,3.046063185E0
3.174946311E1,-4.019941986E-1,9.492327690E0,3.046063185E0
3.176612978E1,-1.272981644E0,1.119123173E1,7.633104324E-1
3.178279644E1,4.785645306E-1,1.271545982E1,1.983649969E0
3.179946311E1,1.603191137E0,1.256949711E1,2.478964329E0
3.181612977E1,5.166104317E0,1.319402409E1,-9.808179855E0
3.183279644E1,5.347958565E0,1.277767277E1,-3.936193228E0
3.184946311E1,4.599005222E0,9.748359680E0,2.660818815E0
3.186612977E1,-1.375872970E0,1.216271782E1,-2.213361025E0
3.188279644E1,2.170290232E0,1.516092396E1,8.829515576E-1
3.189946310E1,3.247060299E0,1.440479279E1,1.086341500E0
3.191612977E1,1.146162033E0,1.005224800E1,1.560120344E0
3.193279644E1,-1.624726534E0,6.762116909E0,1.019342422E0
3.194946310E1,-3.900300980E0,6.527620316E0,2.943171859E-1
3.196612977E1,-4.208974838E0,1.129172993E1,-9.092726111E-1
3.198279643E1,-1.397408366E0,1.778585052E1,-3.474378586E0
3.199946310E1,-1.397408366E0,1.778585052E1,-3.474378586E0
3.201612977E1,-6.802794933E0,2.644547653E1,-5.620740414E0
3.203279643E1,-6.958328247E0,2.468435860E1,2.974278450E0
3.204946310E1,-7.807780266E0,1.327298737E1,1.995614052E0
3.206612976E1,-6.836294174E0,5.726024628E0,-5.185246468E0
3.208279643E1,-4.862215519E0,5.857629776E0,-1.067198873E0
3.209946310E1,-2.840280533E0,5.618347645E0,1.048056364E0
3.211612976E1,-8.590233326E-1,4.412364960E0,8.542376757E-1
3.213279643E1,1.127019525E0,4.225724697E0,-1.033699393E0
3.214946309E1,1.016949654E0,4.213760853E0,-1.986042857E-1
3.216612976E1,7.944171429E-1,3.440878868E0,2.225325108E-1
3.218279643E1,7.417750359E-1,3.421736479E0,8.231309652E-1
3.219946309E1,7.417750359E-1,3.421736479E0,8.231309652E-1
3.221612976E1,-5.271388054E0,2.364108801E0,3.302095234E-1
3.223279642E1,-7.731209755E0,1.198804140E0,1.555334777E-1
3.224946309E1,-3.996013880E0,1.088734269E0,-3.230310678E0
3.226612976E1,-1.050449133E0,1.959721804E0,-4.108476639E0
3.228279642E1,1.306481123E0,3.933800459E0,-2.373680115E0
3.229946309E1,8.276773453E0,1.381137276E1,-1.757288933E1
3.231612975E1,1.520638752E1,2.575634384E1,-1.368694544E0
3.233279642E1,1.457946873E1,2.328216362E1,5.836094379E0
3.234946309E1,1.199522018E1,1.745324898E1,1.004985452E0
3.236612975E1,7.740781307E0,1.083948612E1,-1.022453117E1
3.238279642E1,1.727617979E0,6.005984783E0,-9.020941257E-1
3.239946308E1,1.363908947E-1,1.188993549E1,1.390229940E0
3.241612975E1,-9.403793216E-1,1.792224121E1,-3.869194269E0
3.243279642E1,-9.403793216E-1,1.792224121E1,-3.869194269E0
3.244946308E1,-5.393422127E0,1.056431198E1,3.180061340E0
3.246612975E1,-3.802195072E0,5.673382282E0,9.523434043E-1
3.248279641E1,-2.660818815E0,5.422136307E0,1.567298889E0
3.249946308E1,-1.598405480E0,6.233303070E0,2.017149448E0
3.251612975E1,-1.598405480E0,6.233303070E0,2.017149448E0
3.253279641E1,-2.572284460E0,9.377471924E0,1.060020447E0
3.254946308E1,-3.840480328E0,9.274580956E0,4.331009090E-1
3.256612974E1,-3.527020693E0,9.628718376E0,2.512463629E-1
3.258279641E1,-2.505285263E0,9.722038269E0,5.431707501E-1
3.259946308E1,-2.208575249E0,9.238688469E0,1.579262912E-1
3.261612974E1,-2.069791555E0,7.573283672E0,1.028913707E-1
3.263279641E1,-1.299302697E0,6.216553211E0,8.015955687E-1
3.264946307E1,-4.139583111E-1,6.264409542E0,1.868794441E0
3.266612974E1,-3.852444589E-1,6.644868374E0,1.801795483E0
3.268279641E1,-5.670989752E-1,8.295916557E0,3.038884699E-1
3.269946307E1,-1.136590719E0,9.930213928E0,-3.577269793E0
3.271612974E1,-1.136590719E0,9.930213928E0,-3.577269793E0
3.273279640E1,-1.674975902E-1,9.753145218E0,6.364908218E-1
3.274946307E1,-2.009970993E-1,9.075976372E0,2.589034081E0
3.276612974E1,-1.172483116E-1,8.851051331E0,9.810572863E-1
3.278279640E1,-1.172483116E-1,8.851051331E0,9.810572863E-1
3.279946307E1,-3.062812984E-1,1.098784161E1,1.227517962E0
3.281612973E1,3.996013701E-1,1.269153118E1,1.143769264E0
3.283279640E1,1.390229940E0,1.230389404E1,1.409372568E0
3.284946307E1,1.390229940E0,1.230389404E1,1.409372568E0
3.286612973E1,2.682354212E0,1.094477081E1,-7.726424217E0
3.288279640E1,3.471985579E0,1.004506969E1,-3.254238665E-1
3.289946306E1,3.471985579E0,1.004506969E1,-3.254238665E-1
3.291612973E1,4.163511395E-1,1.412961769E1,5.742774159E-2
3.293279640E1,2.531606436E0,1.383530045E1,1.586441398E0
3.294946306E1,8.566305041E-1,9.934999466E0,1.873580098E0
3.296612973E1,8.566305041E-1,9.934999466E0,1.873580098E0
3.298279639E1,-4.642076015E0,6.752545357E0,-3.357130051E0
3.299946306E1,-4.208974838E0,9.805787086E0,-3.833301783E0
3.301612973E1,-4.881358147E-1,1.530688667E1,-1.301695466E0
3.303279639E1,-4.881358147E-1,1.530688667E1,-1.301695466E0
3.304946306E1,-6.704689026E0,3.045823860E1,-3.885943890E0
3.306612972E1,-5.288137913E0,2.955135918E1,2.859423161E0
3.308279639E1,-5.288137913E0,2.955135918E1,2.859423161E0
3.309946306E1,-6.984649181E0,5.072783947E0,-6.891329288E-1
3.311612972E1,-4.352544308E0,4.603790760E0,-3.136990547E0
3.313279639E1,-2.900100946E0,5.163711071E0,-1.150947690E0
3.314946305E1,-2.900100946E0,5.163711071E0,-1.150947690E0
3.316612972E1,-2.967100143E-1,3.476771355E0,1.134197950E0
3.318279639E1,4.785645287E-3,2.761317253E0,-7.130611539E-1
3.319946305E1,1.411765367E-1,3.017349243E0,1.004985496E-1
3.321612972E1,-4.689932466E-1,2.172683001E0,1.351944804E0
3.323279638E1,-2.210968018E0,1.555334687E0,1.198804140E0
3.324946305E1,-4.091726780E0,1.373480201E0,-4.307080805E-2
3.326612972E1,-4.091726780E0,1.373480201E0,-4.307080805E-2
3.328279638E1,-4.079762459E0,2.163111687E0,-2.323430777E0
3.329946305E1,-4.079762459E0,2.163111687E0,-2.323430777E0
3.331612971E1,3.637090325E-1,4.613361835E0,-2.038684845E0
3.333279638E1,7.235895634E0,1.229910851E1,-1.481635761E1
3.334946305E1,1.329930782E1,2.331327057E1,-2.014756680E0
3.336612971E1,1.725225067E1,2.573241425E1,1.172483063E1
3.338279638E1,1.863769531E1,2.178664970E1,-3.182454109E0
3.339946304E1,8.920442581E0,1.250010586E1,-7.582854748E0
3.341612971E1,1.710868239E0,7.192824841E0,-2.184647083E0
3.343279638E1,-1.296909928E0,5.611168861E0,-8.757730722E-1
3.344946304E1,-1.636690736E0,1.001874828E1,-6.046662807E0
3.346612971E1,-4.149154663E0,1.818066597E1,2.713460922E0
3.348279637E1,-9.750752449E0,1.445264912E1,4.570291042E0
3.349946304E1,-5.627918720E0,8.831908226E0,1.076770201E-1
3.351612971E1,-2.541177750E0,7.905886173E0,-4.235295951E-1
3.353279637E1,-7.776673436E-1,7.034898758E0,3.684946895E-1
3.354946304E1,-7.561319470E-1,6.977470875E0,9.595218897E-1
3.356612970E1,-1.830509305E0,8.269595146E0,1.170090318E0
3.358279637E1,-2.471785784E0,8.867800713E0,1.380658627E0
3.359946304E1,-2.423929453E0,9.908679008E0,2.522035122E0
3.361612970E1,-2.510071039E0,1.005464077E1,2.330609322E0
3.363279637E1,-2.086541414E0,9.279366493E0,6.747759581E-1
3.364946303E1,-1.643869162E0,9.008976936E0,-3.828516304E-1
3.366612970E1,-7.369893789E-1,8.011170387E0,-1.780260086E0
3.368279637E1,4.211367965E-1,6.723831654E0,-6.077769399E-1
3.369946303E1,1.196411327E-1,6.920042992E0,1.304088354E0
3.371612970E1,-3.924229145E-1,6.934400082E0,7.944171429E-1
3.373279636E1,-1.170090318E0,7.611568928E0,-7.848458290E-1
3.374946303E1,-1.155733347E0,8.968298912E0,-2.476571321E0
3.376612970E1,-9.427721500E-1,9.449256897E0,-8.446664214E-1
3.378279636E1,1.866401732E-1,1.072463131E1,2.323430777E0
3.379946303E1,-6.460621357E-1,9.399007797E0,1.931007862E0
3.381612969E1,-1.150947690E0,8.271987915E0,-5.862415433E-1
3.383279636E1,-1.024128079E0,8.657232285E0,-5.407779217E-1
3.384946303E1,-8.183453679E-1,1.033699417E1,2.440679073E-1
3.386612969E1,-1.215553880E0,1.166501045E1,-5.742774606E-1
3.388279636E1,-8.135596663E-2,1.206939697E1,1.091127157E0
3.389946302E1,8.255237937E-1,1.222253799E1,1.926222205E0
3.391612969E1,1.756331801E0,1.149512005E1,1.019342422E0
3.393279636E1,2.921636343E0,1.091366386E1,-4.180261135E0
3.394946302E1,2.921636343E0,1.091366386E1,-4.180261135E0
3.396612969E1,-1.148554832E-1,1.336630726E1,1.758724689E0
3.398279635E1,1.454836130E0,1.230150127E1,3.194418192E0
3.399946302E1,1.186840057E0,1.022931671E1,1.332802176E0
3.401612969E1,1.186840057E0,1.022931671E1,1.332802176E0
3.403279635E1,-6.388836503E-1,6.541976929E0,-2.321038008E0
3.404946302E1,-4.043870449E0,8.090133667E0,-4.017549038E0
3.406612968E1,-2.926422119E0,1.348594856E1,-2.373680115E0
3.408279635E1,5.647061467E-1,1.806102562E1,5.359922647E-1
3.409946302E1,-1.861616015E0,2.135115623E1,-1.179661512E0
3.411612968E1,-6.719046116E0,2.876651382E1,-1.954936147E0
3.413279635E1,-4.103690624E0,2.153540421E1,2.179861546E0
3.414946301E1,-4.103690624E0,2.153540421E1,2.179861546E0
3.416612968E1,-6.113661766E0,4.230510235E0,-5.639883041E0
3.418279635E1,-2.050648928E0,6.795616150E0,-5.024927482E-2
3.419946301E1,-3.900300860E-1,5.819344521E0,-6.771687865E-1
3.421612968E1,-4.905286431E-1,4.017549038E0,-7.944171429E-1
3.423279634E1,-8.470591903E-1,3.129812002E0,-5.024927258E-1
3.424946301E1,-1.136590719E0,3.038884640E0,-1.237089276E0
3.426612968E1,-1.136590719E0,3.038884640E0,-1.237089276E0
3.428279634E1,-1.416550994E0,3.038884640E0,1.244267821E0
3.429946301E1,-1.880758643E0,2.287538528E0,3.565305769E-1
3.431612967E1,-4.386044025E0,1.538584948E0,-1.055234790E0
3.433279634E1,-4.354937077E0,2.718246460E0,-2.026720762E0
3.434946301E1,-3.440878868E0,3.536591768E0,-2.347358942E0
3.436612967E1,-1.820937991E0,4.381258488E0,-3.060420275E0
3.438279634E1,1.148554921E0,6.927221775E0,-1.567298889E0
3.439946300E1,8.590232849E0,1.531885052E1,-1.008574772E1
3.441612967E1,1.269392395E1,1.972642899E1,-7.238288403E0
3.443279634E1,1.504606915E1,2.286820602E1,6.527620316E0
3.444946300E1,1.291884899E1,2.113580322E1,-3.768695593E0
3.446612967E1,6.805187702E0,1.348834133E1,-7.408178806E0
3.448279633E1,3.491128206E0,8.793622971E0,-1.253839016E0
3.449946300E1,4.737788737E-1,5.391029358E0,3.943371773E0
3.451612967E1,-1.256231904E0,1.094237804E1,-9.308079720E0
3.453279633E1,-3.744767427E0,1.720678711E1,-1.328016520E0
3.454946300E1,-5.874379635E0,1.713739586E1,4.646861553E0
