"Time (s)","Gyroscope x (rad/s)","Gyroscope y (rad/s)","Gyroscope z (rad/s)"
2.695453600E-2,-1.563813835E-1,3.104720116E-1,-6.475166976E-2
4.129688000E-2,1.056796089E-1,3.047451675E-1,1.055268943E-1
5.796354600E-2,0.000000000E0,0.000000000E0,0.000000000E0
7.463021200E-2,0.000000000E0,0.000000000E0,0.000000000E0
9.129687800E-2,-2.384663373E-1,-1.865428388E-1,3.333794475E-1
1.079635440E-1,-2.384663373E-1,-1.865428388E-1,3.333794475E-1
1.246302100E-1,-4.624246359E-1,1.107192412E-1,1.859319657E-1
1.412968760E-1,-5.442805290E-1,4.277580678E-1,1.498909444E-1
1.579635420E-1,-5.442805290E-1,4.277580678E-1,1.498909444E-1
1.746302080E-1,-5.442805290E-1,4.277580678E-1,1.498909444E-1
1.912968740E-1,-4.544833899E-1,7.853430510E-1,2.131918073E-1
2.079635400E-1,-4.544833899E-1,7.853430510E-1,2.131918073E-1
2.246302060E-1,-1.848629564E-1,2.286161482E-1,1.116355360E-1
2.412968720E-1,-1.187368408E-1,5.047270283E-2,1.178968996E-1
2.579635380E-1,-3.459021822E-2,1.298851222E-1,5.726857483E-2
2.746302040E-1,-3.459021822E-2,1.298851222E-1,5.726857483E-2
2.912968700E-1,-3.245982826E-1,2.854265571E-1,-2.463312149E-1
3.079635360E-1,-3.245982826E-1,2.854265571E-1,-2.463312149E-1
3.246302020E-1,-4.978547990E-1,6.277399063E-1,-2.993237376E-1
3.412968680E-1,-3.766745031E-1,4.556287527E-1,-1.912006736E-1
3.579635340E-1,-3.766745031E-1,4.556287527E-1,-1.912006736E-1
3.746302000E-1,-3.766745031E-1,4.556287527E-1,-1.912006736E-1
3.912968660E-1,-3.766745031E-1,4.556287527E-1,-1.912006736E-1
4.079635320E-1,8.674279600E-2,-2.030361742E-1,7.151699662E-1
4.246301980E-1,2.284634262E-1,-2.305250913E-1,8.637627959E-1
4.412968640E-1,1.755472720E-1,-3.297142684E-1,1.078023672E0
4.579635300E-1,1.755472720E-1,-3.297142684E-1,1.078023672E0
4.746301960E-1,1.755472720E-1,-3.297142684E-1,1.078023672E0
4.912968620E-1,-2.522871494E-1,-6.143772602E-1,1.755854487E0
5.079635280E-1,-2.522871494E-1,-6.143772602E-1,1.755854487E0
5.246301940E-1,-2.268599123E-1,-3.926333487E-1,1.726303816E0
5.412968600E-1,-2.777144015E-1,-3.325395286E-1,1.635514140E0
5.579635260E-1,-2.777144015E-1,-3.325395286E-1,1.635514140E0
5.746301920E-1,-2.777144015E-1,-3.325395286E-1,1.635514140E0
5.912968580E-1,-2.777144015E-1,-3.325395286E-1,1.635514140E0
6.079635240E-1,-2.777144015E-1,-3.325395286E-1,1.635514140E0
6.246301900E-1,-6.291907281E-2,-5.392408967E-1,1.215620875E0
6.412968560E-1,1.649334840E-2,-5.976548195E-1,1.157207012E0
6.579635220E-1,1.649334840E-2,-5.976548195E-1,1.157207012E0
6.746301880E-1,1.649334840E-2,-5.976548195E-1,1.157207012E0
6.912968540E-1,1.649334840E-2,-5.976548195E-1,1.157207012E0
7.079635200E-1,1.649334840E-2,-5.976548195E-1,1.157207012E0
7.246301860E-1,1.649334840E-2,-5.976548195E-1,1.157207012E0
7.412968520E-1,5.684860349E-1,-9.824996591E-1,5.164098144E-1
7.579635180E-1,1.625740290E0,-5.960513353E-1,1.689499259E0
7.746301840E-1,4.418843091E-1,-9.589049816E-1,2.931387424E0
7.912968500E-1,-1.854738146E-1,-1.156825185E0,3.057225466E0
8.079635160E-1,-1.769217104E-1,-2.027307510E0,2.729801893E0
8.246301820E-1,-1.408806890E-1,-2.104276419E0,2.396880627E0
8.412968480E-1,-2.129627317E-1,-1.987601280E0,1.874591351E0
8.579635140E-1,-5.141190886E-1,-1.316260934E0,1.778074622E0
8.746301800E-1,-1.026634574E0,-8.452841640E-1,2.218508244E0
8.912968460E-1,-1.369940639E0,-1.093295217E0,2.850753307E0
9.079635120E-1,-1.818926215E0,-1.349858403E0,4.053545952E0
9.246301780E-1,-2.157345295E0,-1.307708740E0,4.817737579E0
9.412968440E-1,-2.157345295E0,-1.307708740E0,4.817737579E0
9.579635100E-1,-2.747440815E0,-1.032819629E0,5.925235748E0
9.746301760E-1,-2.468275547E0,-6.919570565E-1,6.446914196E0
9.912968420E-1,-1.856189013E0,-1.847102404E0,6.701644897E0
1.007963508E0,-1.856189013E0,-1.847102404E0,6.701644897E0
1.024630174E0,-4.554760456E-1,-2.326020479E0,5.569712162E0
1.041296840E0,-4.554760456E-1,-2.326020479E0,5.569712162E0
1.057963506E0,7.748056054E-1,-1.246622324E0,3.096931696E0
1.074630172E0,7.748056054E-1,-1.246622324E0,3.096931696E0
1.091296838E0,9.623411298E-1,-8.575014472E-1,2.994306326E0
1.107963504E0,9.879974127E-1,-8.752164841E-1,3.390146732E0
1.124630170E0,7.399863005E-1,-1.130558014E0,3.380373001E0
1.141296836E0,1.272889525E-1,-1.932012558E0,3.114646912E0
1.157963502E0,-1.512653977E-1,-2.046244383E0,2.875187874E0
1.174630168E0,-3.626246154E-1,-1.614362955E0,2.465297461E0
1.191296834E0,-3.626246154E-1,-1.614362955E0,2.465297461E0
1.207963500E0,2.641226649E-1,-1.550069451E-1,2.712697744E0
1.224630166E0,5.707767606E-1,-1.513417512E-1,2.677878380E0
1.241296832E0,9.641736746E-1,-5.031998754E-1,2.406654596E0
1.257963498E0,9.641736746E-1,-5.031998754E-1,2.406654596E0
1.274630164E0,1.363679290E0,-1.040150046E0,2.176969290E0
1.291296830E0,1.543273449E0,8.743002415E-1,1.911243200E0
1.307963496E0,1.104061723E0,2.129627228E0,2.442695618E0
1.324630162E0,1.104061723E0,2.129627228E0,2.442695618E0
1.341296828E0,4.449386299E-1,2.096029758E0,2.869079113E0
1.357963494E0,3.826304376E-1,1.936594009E0,2.777449369E0
1.374630160E0,3.673588037E-1,2.581056356E0,2.805549145E0
1.391296826E0,5.212967396E-1,3.978104115E0,2.948491573E0
1.407963492E0,7.045561671E-1,4.577973366E0,3.036456108E0
1.424630158E0,7.045561671E-1,4.577973366E0,3.036456108E0
1.441296824E0,1.787008524E0,5.771603107E0,3.487274408E0
1.457963490E0,1.787008524E0,5.771603107E0,3.487274408E0
1.474630156E0,2.294026375E0,6.990278244E0,3.507432938E0
1.491296822E0,2.843193769E0,7.775239468E0,2.622900724E0
1.507963488E0,2.895117283E0,7.821054459E0,1.701105714E0
1.524630154E0,2.895117283E0,7.821054459E0,1.701105714E0
1.541296820E0,1.006934285E0,4.488787174E0,6.345357895E-1
1.557963486E0,-5.684860349E-1,1.886503100E0,5.447386503E-1
1.574630152E0,-9.563851953E-1,-2.105956376E-1,1.379179955E0
1.591296818E0,-9.563851953E-1,-2.105956376E-1,1.379179955E0
1.607963484E0,-6.906589866E-1,-3.189172268E0,1.773798585E0
1.607963484E0,-6.906589866E-1,-3.189172268E0,1.773798585E0
1.641296816E0,-6.906589866E-1,-3.189172268E0,1.773798585E0
1.657963482E0,-1.509217739E0,-8.814015388E0,2.024253130E0
1.657963482E0,-1.509217739E0,-8.814015388E0,2.024253130E0
1.691296814E0,-1.971642375E0,-4.921584606E0,2.612515926E0
1.707963480E0,-1.971642375E0,-4.921584606E0,2.612515926E0
1.724630146E0,7.277690172E-1,8.394809365E-1,2.160934210E-1
1.741296812E0,9.837213755E-1,2.404516459E0,-5.334376693E-1
1.757963478E0,9.837213755E-1,2.404516459E0,-5.334376693E-1
1.774630144E0,9.837213755E-1,2.404516459E0,-5.334376693E-1
1.791296810E0,9.837213755E-1,2.404516459E0,-5.334376693E-1
1.807963476E0,9.837213755E-1,2.404516459E0,-5.334376693E-1
1.824630142E0,9.837213755E-1,2.404516459E0,-5.334376693E-1
1.841296808E0,9.837213755E-1,2.404516459E0,-5.334376693E-1
1.857963474E0,9.837213755E-1,2.404516459E0,-5.334376693E-1
1.874630140E0,9.837213755E-1,2.404516459E0,-5.334376693E-1
1.891296806E0,9.837213755E-1,2.404516459E0,-5.334376693E-1
1.907963472E0,9.837213755E-1,2.404516459E0,-5.334376693E-1
1.924630138E0,9.837213755E-1,2.404516459E0,-5.334376693E-1
1.941296804E0,9.837213755E-1,2.404516459E0,-5.334376693E-1
1.957963470E0,9.837213755E-1,2.404516459E0,-5.334376693E-1
1.974630136E0,9.837213755E-1,2.404516459E0,-5.334376693E-1
1.991296802E0,-1.062904745E-1,-2.869079113E0,3.105483949E-1
2.007963468E0,-1.062904745E-1,-2.869079113E0,3.105483949E-1
2.024630134E0,8.674279600E-2,-3.716959476E0,4.027889669E-1
2.041296800E0,-9.105703235E-1,-4.399524689E0,5.878809690E-1
2.057963466E0,-9.105703235E-1,-4.399524689E0,5.878809690E-1
2.074630132E0,-9.105703235E-1,-4.399524689E0,5.878809690E-1
2.091296798E0,-9.105703235E-1,-4.399524689E0,5.878809690E-1
2.107963464E0,-7.513636947E-1,-6.237998486E0,1.495015144E0
2.124630130E0,-9.563851953E-1,-7.139253139E0,1.082452416E0
2.141296796E0,-9.563851953E-1,-7.139253139E0,1.082452416E0
2.157963462E0,-9.563851953E-1,-7.139253139E0,1.082452416E0
2.174630128E0,-9.563851953E-1,-7.139253139E0,1.082452416E0
2.191296794E0,-1.495167851E0,-8.901369095E0,1.517388105E0
2.207963460E0,-1.495167851E0,-8.901369095E0,1.517388105E0
2.224630126E0,-1.632841587E0,-7.585566044E0,6.227002740E-1
2.241296792E0,-1.632841587E0,-7.585566044E0,6.227002740E-1
2.257963458E0,-1.632841587E0,-7.585566044E0,6.227002740E-1
2.274630124E0,-1.632841587E0,-7.585566044E0,6.227002740E-1
2.291296790E0,-1.632841587E0,-7.585566044E0,6.227002740E-1
2.307963456E0,2.131689072E0,-6.141252518E0,1.047480345E0
2.324630122E0,2.991175652E0,-5.417836189E0,7.544180155E-1
2.341296788E0,2.991175652E0,-5.417836189E0,7.544180155E-1
2.357963454E0,2.991175652E0,-5.417836189E0,7.544180155E-1
2.374630120E0,2.991175652E0,-5.417836189E0,7.544180155E-1
2.391296786E0,2.991175652E0,-5.417836189E0,7.544180155E-1
2.407963452E0,1.387655735E0,6.201804876E-1,-1.614210159E-1
2.424630118E0,1.154305339E0,4.440223277E-1,7.391463965E-2
2.441296784E0,1.154305339E0,4.440223277E-1,7.391463965E-2
2.457963450E0,1.154305339E0,4.440223277E-1,7.391463965E-2
2.474630116E0,1.154305339E0,4.440223277E-1,7.391463965E-2
2.491296782E0,1.154305339E0,4.440223277E-1,7.391463965E-2
2.507963448E0,1.154305339E0,4.440223277E-1,7.391463965E-2
2.524630114E0,8.869756460E-1,7.625119686E-1,-1.231656075E-1
2.541296780E0,3.504073024E-1,7.228057384E-1,-1.565340906E-2
2.557963446E0,3.504073024E-1,7.228057384E-1,-1.565340906E-2
2.574630112E0,3.504073024E-1,7.228057384E-1,-1.565340906E-2
2.591296778E0,-4.227184355E-1,5.988001823E-1,-1.521053314E-1
2.607963444E0,-9.032399058E-1,2.393826395E-1,3.054323839E-3
2.624630110E0,-1.219896913E0,-3.187187016E-1,2.299142331E-1
2.641296776E0,-1.204854369E0,-7.102830410E-1,2.785543501E-1
2.657963442E0,-1.204854369E0,-7.102830410E-1,2.785543501E-1
2.674630108E0,-1.204854369E0,-7.102830410E-1,2.785543501E-1
2.691296774E0,-1.204854369E0,-7.102830410E-1,2.785543501E-1
2.707963440E0,-6.990583539E-1,2.424445868E0,-2.296240807E0
2.724630106E0,-1.096273184E0,2.821508169E0,-1.920329809E0
2.741296772E0,-1.579467297E0,2.905807495E0,-1.518380761E0
2.757963438E0,-1.579467297E0,2.905807495E0,-1.518380761E0
2.774630104E0,-1.579467297E0,2.905807495E0,-1.518380761E0
2.791296770E0,-2.698418856E0,4.517268658E0,-1.119486094E0
2.807963436E0,-2.698418856E0,4.517268658E0,-1.119486094E0
2.824630102E0,-1.609246850E0,4.262156487E0,-4.963276163E-2
2.841296768E0,-1.609246850E0,4.262156487E0,-4.963276163E-2
2.857963434E0,-1.609246850E0,4.262156487E0,-4.963276163E-2
2.874630100E0,-1.609246850E0,4.262156487E0,-4.963276163E-2
2.891296766E0,-1.609246850E0,4.262156487E0,-4.963276163E-2
2.907963432E0,-1.609246850E0,4.262156487E0,-4.963276163E-2
2.924630098E0,-1.609246850E0,4.262156487E0,-4.963276163E-2
2.941296764E0,-2.351829410E-1,-9.634101391E-1,4.253909588E-1
2.957963430E0,-2.351829410E-1,-9.634101391E-1,4.253909588E-1
2.974630096E0,-2.351829410E-1,-9.634101391E-1,4.253909588E-1
2.991296762E0,-2.351829410E-1,-9.634101391E-1,4.253909588E-1
3.007963428E0,1.877645552E-1,-4.950295389E-1,8.000801206E-1
3.024630094E0,2.763399482E-1,-8.114575148E-1,1.099785686E0
3.041296760E0,3.078758419E-1,-1.286710262E0,1.282052398E0
3.057963426E0,3.078758419E-1,-1.286710262E0,1.282052398E0
3.074630092E0,1.006705165E0,-4.692205191E-1,-1.921933293E-1
3.091296758E0,1.006705165E0,-4.692205191E-1,-1.921933293E-1
3.107963424E0,9.795980453E-1,-5.669588447E-1,-9.834922850E-2
3.124630090E0,9.795980453E-1,-5.669588447E-1,-9.834922850E-2
3.141296756E0,1.372613192E0,-7.398335934E-1,3.543015718E-1
3.157963422E0,1.457905173E0,-7.357102633E-1,5.438987017E-1
3.174630088E0,1.457905173E0,-7.357102633E-1,5.438987017E-1
3.191296754E0,1.036408424E0,-2.286925018E-1,3.225366175E-1
3.207963420E0,1.036408424E0,-2.286925018E-1,3.225366175E-1
3.224630086E0,4.013381600E-1,-7.011200786E-1,8.978185058E-1
3.241296752E0,4.013381600E-1,-7.011200786E-1,8.978185058E-1
3.257963418E0,8.712458611E-2,9.017891288E-1,4.810560122E-2
3.274630084E0,8.712458611E-2,9.017891288E-1,4.810560122E-2
3.291296750E0,8.712458611E-2,9.017891288E-1,4.810560122E-2
3.307963416E0,1.770897031E0,2.184605122E0,-3.342957497E-1
3.324630082E0,1.770897031E0,2.184605122E0,-3.342957497E-1
3.341296748E0,2.984074354E0,1.479438186E0,5.001455545E-1
3.357963414E0,2.984074354E0,1.479438186E0,5.001455545E-1
3.374630080E0,2.984074354E0,1.479438186E0,5.001455545E-1
3.391296746E0,2.984074354E0,1.479438186E0,5.001455545E-1
3.407963412E0,2.984074354E0,1.479438186E0,5.001455545E-1
3.424630078E0,9.144645929E-1,-3.865246773E-1,1.965457499E-1
3.441296744E0,9.144645929E-1,-3.865246773E-1,1.965457499E-1
3.457963410E0,1.066188097E0,-2.140317440E0,9.083559513E-1
3.474630076E0,1.066188097E0,-2.140317440E0,9.083559513E-1
3.491296742E0,1.066188097E0,-2.140317440E0,9.083559513E-1
3.507963408E0,1.066188097E0,-2.140317440E0,9.083559513E-1
3.524630074E0,4.756345749E-1,-1.039768219E0,3.565923125E-2
3.541296740E0,7.321978211E-1,-1.474245787E0,2.977965772E-2
3.557963406E0,7.645736337E-1,-2.093280792E0,1.979201883E-1
3.574630072E0,7.645736337E-1,-2.093280792E0,1.979201883E-1
3.591296738E0,7.645736337E-1,-2.093280792E0,1.979201883E-1
3.607963404E0,7.645736337E-1,-2.093280792E0,1.979201883E-1
3.624630070E0,1.894673467E0,-3.522933483E0,-4.825831652E-1
3.641296736E0,1.894673467E0,-3.522933483E0,-4.825831652E-1
3.657963402E0,2.166966438E0,-3.616166830E0,-6.438514590E-1
3.674630068E0,2.166966438E0,-3.616166830E0,-6.438514590E-1
3.691296734E0,2.166966438E0,-3.616166830E0,-6.438514590E-1
3.707963400E0,2.152916670E0,-1.869704366E0,-9.024000168E-1
3.724630066E0,2.152916670E0,-1.869704366E0,-9.024000168E-1
3.741296732E0,1.826867461E0,-6.825650334E-1,-8.586468101E-1
3.757963398E0,1.826867461E0,-6.825650334E-1,-8.586468101E-1
3.774630064E0,1.373453140E0,1.013577342E0,-6.249146461E-1
3.791296730E0,1.373453140E0,1.013577342E0,-6.249146461E-1
3.807963396E0,1.373453140E0,1.013577342E0,-6.249146461E-1
3.824630062E0,1.373453140E0,1.013577342E0,-6.249146461E-1
3.841296728E0,1.373453140E0,1.013577342E0,-6.249146461E-1
3.857963394E0,1.928500056E0,-7.768672705E-1,1.040760875E0
3.874630060E0,1.747302294E0,-6.046034098E-1,1.060919404E0
3.891296726E0,1.747302294E0,-6.046034098E-1,1.060919404E0
3.907963392E0,1.747302294E0,-6.046034098E-1,1.060919404E0
3.924630058E0,1.747302294E0,-6.046034098E-1,1.060919404E0
3.941296724E0,-5.009090900E-1,-8.345176578E-1,-5.314523578E-1
3.957963390E0,-2.826013267E-1,-5.162571073E-1,-8.659771681E-1
3.974630056E0,-6.268999726E-2,-1.473711245E-2,-1.255708933E0
3.991296722E0,-6.268999726E-2,-1.473711245E-2,-1.255708933E0
4.007963388E0,-6.268999726E-2,-1.473711245E-2,-1.255708933E0
4.024630054E0,-6.268999726E-2,-1.473711245E-2,-1.255708933E0
4.041296720E0,-6.268999726E-2,-1.473711245E-2,-1.255708933E0
4.057963386E0,-6.268999726E-2,-1.473711245E-2,-1.255708933E0
4.074630052E0,-1.508836001E-1,-2.290208340E0,-2.159178019E0
4.091296718E0,-1.508836001E-1,-2.290208340E0,-2.159178019E0
4.107963384E0,-1.508836001E-1,-2.290208340E0,-2.159178019E0
4.124630050E0,-1.508836001E-1,-2.290208340E0,-2.159178019E0
4.141296716E0,1.049465656E0,-1.072525859E0,2.895499170E-1
4.157963382E0,1.707596183E0,-5.182424188E-1,7.648026943E-1
4.174630048E0,1.998138666E0,6.204095483E-1,8.240565658E-1
4.191296714E0,1.998138666E0,6.204095483E-1,8.240565658E-1
4.207963380E0,1.998138666E0,6.204095483E-1,8.240565658E-1
4.224630046E0,1.998138666E0,6.204095483E-1,8.240565658E-1
4.241296712E0,1.998138666E0,6.204095483E-1,8.240565658E-1
4.257963378E0,1.998138666E0,6.204095483E-1,8.240565658E-1
4.274630044E0,8.549816012E-1,1.960112303E-1,-2.901607752E-1
4.291296710E0,8.549816012E-1,1.960112303E-1,-2.901607752E-1
4.307963376E0,8.549816012E-1,1.960112303E-1,-2.901607752E-1
4.324630042E0,3.826304376E-1,-6.308705807E-1,-4.735729098E-1
4.341296708E0,3.533089161E-1,9.262236953E-1,-1.473711282E-1
4.357963374E0,1.017929792E0,2.500422239E0,-6.794343591E-1
4.374630040E0,1.017929792E0,2.500422239E0,-6.794343591E-1
4.391296706E0,3.960694373E-1,2.423453331E0,-1.625053048E0
4.407963372E0,-9.934188426E-2,4.232834816E0,-2.838841438E0
4.424630038E0,-1.123151302E0,3.767966747E0,-2.769202709E0
4.441296704E0,-2.264857531E0,2.041051865E0,-2.538906813E0
4.457963370E0,-2.427958488E0,1.100320220E0,-2.631758213E0
4.474630036E0,-2.173227787E0,-1.001665473E0,-2.628703833E0
4.491296702E0,-2.106643438E0,-2.236223221E0,-2.155283689E0
4.507963368E0,-1.916664600E0,-2.709032536E0,-1.635437727E0
4.524630034E0,-1.396818638E0,-3.006523609E0,-9.824233055E-1
4.541296700E0,-1.121700481E-1,-2.712697744E0,2.124282271E-1
4.557963366E0,-1.121700481E-1,-2.712697744E0,2.124282271E-1
4.574630032E0,7.381537557E-1,-2.033416033E0,-5.102248192E-1
4.591296698E0,9.232457280E-1,-1.969886184E0,-7.197514176E-1
4.607963364E0,1.185306787E0,-2.545931578E0,-4.925097227E-1
4.624630030E0,1.185306787E0,-2.545931578E0,-4.925097227E-1
4.641296696E0,-3.174206018E-1,-4.654026031E0,-1.547015011E-1
4.657963362E0,-5.544361472E-1,-4.310109138E0,-5.835285783E-1
4.674630028E0,-5.709294677E-1,-2.708421707E0,-1.135750294E0
4.691296694E0,-8.219949007E-1,-2.092059135E0,-7.619010806E-1
4.707963360E0,-8.219949007E-1,-2.092059135E0,-7.619010806E-1
4.724630026E0,-8.922443390E-1,-2.096946001E0,-3.410152495E-1
4.741296692E0,-1.026023746E0,-2.286314249E0,-4.912880063E-1
4.757963358E0,-1.165911794E0,-2.612515926E0,-6.794343591E-1
4.774630024E0,-1.165911794E0,-2.612515926E0,-6.794343591E-1
4.791296690E0,-1.211726665E0,-2.525773048E0,-1.008079648E0
4.807963356E0,-1.124372959E0,-2.877020359E0,-6.653844714E-1
4.824630022E0,-9.814306498E-1,-3.470170021E0,2.290742937E-3
4.841296688E0,-9.814306498E-1,-3.470170021E0,2.290742937E-3
4.857963354E0,-6.234638691E-1,-2.892902851E0,1.101236463E0
4.874630020E0,-6.234638691E-1,-2.892902851E0,1.101236463E0
4.891296686E0,-1.836412251E-1,-6.455313563E-1,1.899025917E0
4.907963352E0,-1.866955459E-1,-7.035635114E-1,1.589928269E0
4.924630018E0,1.767689884E-1,-5.380191803E-1,9.619593024E-1
4.941296684E0,4.848739132E-2,3.599520624E-1,2.441931963E-1
4.957963350E0,4.848739132E-2,3.599520624E-1,2.441931963E-1
4.974630016E0,-9.567669779E-2,9.616538882E-1,-6.123919412E-2
4.991296682E0,2.574031353E-1,8.541416526E-1,2.955058515E-1
5.007963348E0,8.242856860E-1,8.358157277E-1,2.313650399E-1
5.024630014E0,8.242856860E-1,8.358157277E-1,2.313650399E-1
5.041296680E0,1.479132652E0,2.145662606E-1,8.170316368E-2
5.057963346E0,1.108948708E0,-5.447386503E-1,4.121810198E-1
5.074630012E0,-6.207913160E-2,-1.178205490E0,7.634282708E-1
5.091296678E0,-6.207913160E-2,-1.178205490E0,7.634282708E-1
5.107963344E0,-6.814960241E-1,-1.522733212E0,-1.504254490E-1
5.124630010E0,-7.328086495E-1,-3.798051775E-1,-8.290961981E-1
5.141296676E0,-7.328086495E-1,-3.798051775E-1,-8.290961981E-1
5.157963342E0,-7.328086495E-1,-3.798051775E-1,-8.290961981E-1
5.174630008E0,6.281980872E-1,2.054032832E-1,-1.054505348E0
5.191296674E0,7.045561671E-1,-1.678351015E-1,-1.032514215E0
5.207963340E0,7.045561671E-1,-1.678351015E-1,-1.032514215E0
5.224630006E0,8.511636853E-1,-9.986112118E-1,-1.775325775E0
5.241296672E0,7.570905089E-1,-1.141553521E0,-1.932317972E0
5.257963338E0,5.506182313E-1,-9.644027948E-1,-2.827234983E0
5.274630004E0,5.787180066E-1,-6.948586553E-2,-2.771035433E0
5.291296670E0,-3.876700699E-1,-9.454659820E-1,-1.565799117E0
5.307963336E0,-8.836922646E-1,-1.981492639E0,-9.555452466E-1
5.324630002E0,-1.197676778E0,-3.267363071E0,-8.535308242E-1
5.341296668E0,-1.197676778E0,-3.267363071E0,-8.535308242E-1
5.357963334E0,-5.269472599E-1,1.023351192E0,-1.179121733E0
5.374630000E0,-6.338485479E-1,1.906661749E0,-9.133955836E-1
5.391296666E0,-6.008618474E-1,2.389855623E0,-1.045953274E0
5.407963332E0,-5.116755962E-1,1.470504284E0,-9.439387918E-1
5.424629998E0,-5.116755962E-1,1.470504284E0,-9.439387918E-1
5.441296664E0,-3.520108387E-2,8.689551800E-2,-6.146826744E-1
5.457963330E0,6.314814836E-2,4.657844082E-2,-1.400865674E0
5.474629996E0,-5.238928795E-1,4.399753511E-1,-2.578613043E0
5.491296662E0,-1.011363029E0,1.082605124E0,-3.508960009E0
5.507963328E0,-1.985692382E0,2.994000912E0,-4.866301537E0
5.524629994E0,-1.677205563E0,4.029417038E0,-4.780780315E0
5.541296660E0,-1.677205563E0,4.029417038E0,-4.780780315E0
5.557963326E0,-9.405027032E-1,1.140637279E0,-3.345248222E0
5.574629992E0,-1.229441762E0,-1.116508126E0,-1.981798053E0
5.591296658E0,-1.805487156E0,-1.827554703E0,-1.400407553E-1
5.607963324E0,-1.805487156E0,-1.827554703E0,-1.400407553E-1
5.624629990E0,-1.029078126E0,3.328144073E0,1.380401731E0
5.641296656E0,-9.995274991E-2,2.241415501E0,1.329699874E0
5.657963322E0,5.249619484E-1,-3.498727977E-1,-1.382081509E-1
5.674629988E0,-5.780307949E-2,-3.865246773E-1,-7.936660647E-1
5.691296654E0,1.040760875E-1,3.436114267E-2,-4.662425518E-1
5.707963320E0,1.173089504E0,1.224936604E0,2.087630332E-1
5.724629986E0,1.443091631E0,1.965304732E0,1.572976820E-2
5.741296652E0,1.443091631E0,1.965304732E0,1.572976820E-2
5.757963318E0,1.389335632E0,1.048396707E0,-5.230529904E-1
5.774629984E0,1.584812284E0,9.653190970E-1,-2.768744528E-1
5.791296650E0,1.462639332E0,1.308625102E0,2.350302190E-1
5.807963316E0,1.462639332E0,1.308625102E0,2.350302190E-1
5.824629982E0,3.869064748E-1,8.315396905E-1,8.263473511E-1
5.841296648E0,-6.558396816E-1,3.055851161E-1,1.206916094E0
5.857963314E0,-1.017471671E0,-1.662621260E0,1.040150046E0
5.874629980E0,-1.017471671E0,-1.662621260E0,1.040150046E0
5.891296646E0,1.201800108E0,-3.236819744E0,-2.196822405E0
5.907963312E0,2.482783556E0,-1.454316378E0,-2.322660685E0
5.924629978E0,2.534707069E0,2.267835438E-1,-3.387398005E0
5.941296644E0,2.534707069E0,2.267835438E-1,-3.387398005E0
5.957963310E0,5.475639105E-1,-2.502560377E0,-4.488787174E0
5.974629976E0,-4.402044415E-1,-1.172707677E0,-3.802785873E0
5.991296642E0,-1.198822167E-2,3.147480786E-1,-4.133874893E0
6.007963308E0,-1.198822167E-2,3.147480786E-1,-4.133874893E0
6.024629974E0,-3.161988854E-1,-1.673616767E0,-5.479609966E0
6.041296640E0,1.853211075E-1,-2.290590286E0,-6.184547901E0
6.057963306E0,1.853211075E-1,-2.290590286E0,-6.184547901E0
6.074629972E0,1.853211075E-1,-2.290590286E0,-6.184547901E0
6.091296638E0,2.079230994E-1,-4.087754250E0,-3.787514448E0
6.107963304E0,4.369973838E-1,-3.338834286E0,-8.675807118E-1
6.124629970E0,4.369973838E-1,-3.338834286E0,-8.675807118E-1
6.141296636E0,-6.558396816E-1,-2.535547018E0,1.906356215E0
6.157963302E0,-2.157345295E0,-1.502574682E0,2.157421589E0
6.174629968E0,-2.311894178E0,5.450441241E-1,1.960723281E0
6.191296634E0,-2.311894178E0,5.450441241E-1,1.960723281E0
6.207963300E0,-1.073060393E0,1.715461016E0,2.271042585E0
6.224629966E0,6.009382382E-2,1.996458769E0,2.195295334E0
6.241296632E0,1.101847365E-1,2.378249407E0,1.588706613E0
6.257963298E0,1.101847365E-1,2.378249407E0,1.588706613E0
6.274629964E0,-4.438696206E-1,1.824805856E0,4.219548404E-1
6.291296630E0,-4.976257086E-1,4.143190384E-1,1.831067204E-1
6.307963296E0,-2.135736048E-1,-1.898262352E-1,8.597921580E-2
6.324629962E0,-2.135736048E-1,-1.898262352E-1,8.597921580E-2
6.341296628E0,4.180605710E-1,-1.574503928E-1,1.165224537E-1
6.357963294E0,4.308887422E-1,-7.177661173E-3,2.916879393E-2
6.374629960E0,4.308887422E-1,-7.177661173E-3,2.916879393E-2
6.391296626E0,1.804341823E-1,-7.864884287E-2,-3.159697950E-1
6.407963292E0,2.396880686E-1,-1.782197952E-1,-3.611738086E-1
6.424629958E0,3.117701113E-1,-3.651444316E-1,-3.935496211E-1
6.441296624E0,3.117701113E-1,-3.651444316E-1,-3.935496211E-1
6.457963290E0,1.834885031E-1,-3.773617148E-1,-4.845684767E-1
6.474629956E0,1.798233241E-1,1.333212405E-1,-6.562215090E-1
6.491296622E0,5.154171586E-2,1.245095134E0,-5.138899684E-1
6.507963288E0,-2.105192691E-1,1.967137337E0,-1.394298822E-1
6.524629954E0,-3.797288239E-1,1.929874539E0,6.582067907E-2
6.541296620E0,-3.430769444E-1,1.479056358E0,2.521344423E-1
6.557963286E0,-5.597048625E-2,1.925751269E-1,3.486510813E-1
6.574629952E0,2.641226649E-1,-6.834049821E-1,1.214093715E-1
6.591296618E0,2.641226649E-1,-6.834049821E-1,1.214093715E-1
6.607963284E0,7.108938694E-2,-8.996511102E-1,-2.255618125E-1
6.624629950E0,-1.249982044E-1,-7.603739500E-1,-4.204276800E-1
6.641296616E0,-1.443168055E-2,-3.828594983E-1,-5.371028781E-1
6.657963282E0,-1.443168055E-2,-3.828594983E-1,-5.371028781E-1
6.674629948E0,5.459604040E-2,7.834340632E-2,-5.499309897E-1
6.691296614E0,-8.323032409E-3,9.300415963E-2,-5.664243698E-1
6.707963280E0,5.703949928E-2,9.972367436E-2,-5.529853702E-1
6.724629946E0,8.697187155E-2,1.400407553E-1,-5.474875569E-1
6.741296612E0,1.199585721E-1,3.135263622E-1,-5.212203860E-1
6.757963278E0,1.199585721E-1,3.135263622E-1,-5.212203860E-1
6.774629944E0,4.382191300E-1,3.000873327E-1,-4.644099474E-1
6.791296610E0,4.883100390E-1,1.424842030E-1,-4.363101721E-1
6.807963276E0,3.838521540E-1,-2.130390853E-1,-2.591593862E-1
6.824629942E0,1.657734364E-1,-2.533561587E-1,-2.092211880E-2
6.841296608E0,-7.490729541E-2,1.418733448E-1,1.592829973E-1
6.857963274E0,-2.160170525E-1,4.613556266E-1,2.521344423E-1
6.874629940E0,-5.916988850E-1,1.025794625E0,4.030180275E-1
6.891296606E0,-1.052901864E0,1.012355685E0,3.449858725E-1
6.907963272E0,-1.006476045E0,6.287325621E-1,1.488982886E-1
6.924629938E0,-7.712931633E-1,3.129154742E-1,2.977965772E-2
6.941296604E0,6.498073786E-2,-3.419315517E-1,-2.561050653E-1
6.957963270E0,1.144378781E0,-5.141954422E-1,-4.137081802E-1
6.974629936E0,1.826714754E0,-2.356410921E-1,-3.483456373E-1
6.991296602E0,1.904294610E0,-5.238165334E-2,-2.463312149E-1
7.007963268E0,1.694157124E0,3.422369957E-1,5.054906011E-2
7.024629934E0,1.300149322E0,9.225585461E-1,3.743073940E-1
7.041296600E0,1.300149322E0,9.225585461E-1,3.743073940E-1
7.057963266E0,7.033344507E-1,1.896276951E0,8.300125003E-1
7.074629932E0,3.514763117E-1,2.143066406E0,1.055421591E0
7.091296598E0,1.285106838E-1,1.702021956E0,1.115286350E0
7.107963264E0,1.285106838E-1,1.702021956E0,1.115286350E0
7.124629930E0,2.103665620E-1,1.387426615E0,1.106734276E0
7.141296596E0,4.889208972E-1,1.600618482E0,1.082299709E0
7.157963262E0,6.349175572E-1,1.467449903E0,9.894482493E-1
7.174629928E0,6.349175572E-1,1.467449903E0,9.894482493E-1
7.191296594E0,4.968621433E-1,5.358811021E-1,7.640390992E-1
7.207963260E0,5.066359639E-1,-2.515235841E-1,5.484038591E-1
7.224629926E0,7.778599262E-1,-3.003927469E-1,4.011854529E-1
7.241296592E0,9.116393328E-1,1.760817766E-1,3.791943192E-1
7.257963258E0,8.670461774E-1,1.565341055E-1,3.743073940E-1
7.274629924E0,7.479275465E-1,2.703076601E-2,3.810268939E-1
7.291296590E0,7.479275465E-1,2.703076601E-2,3.810268939E-1
7.307963256E0,7.216603756E-1,3.391826749E-1,4.256200492E-1
7.324629922E0,6.898953915E-1,4.314232469E-1,3.975202441E-1
7.341296588E0,6.281980872E-1,3.831649423E-1,2.955058515E-1
7.357963254E0,6.281980872E-1,3.831649423E-1,2.955058515E-1
7.374629920E0,5.750528574E-1,2.469420880E-1,1.470656991E-1
7.391296586E0,4.681515098E-1,3.373500705E-1,-1.527161949E-4
7.407963252E0,3.398698866E-1,4.063777924E-1,-1.601992846E-1
7.424629918E0,3.398698866E-1,4.063777924E-1,-1.601992846E-1
7.441296584E0,1.211803034E-1,3.697259128E-1,-3.416261375E-1
7.457963250E0,-8.834631741E-2,2.597702444E-1,-4.356993139E-1
7.474629916E0,-4.017199576E-1,5.451968312E-2,-4.802924395E-1
7.491296582E0,-4.017199576E-1,5.451968312E-2,-4.802924395E-1
7.507963248E0,-8.708640933E-1,-3.956876695E-1,-5.865828991E-1
7.524629914E0,-1.129870772E0,-8.562797308E-1,-6.055197120E-1
7.541296580E0,-1.129870772E0,-8.562797308E-1,-6.055197120E-1
7.557963246E0,-1.129870772E0,-8.562797308E-1,-6.055197120E-1
7.574629912E0,-1.157970548E0,-8.733839393E-1,-5.401571989E-1
7.591296578E0,-9.423353076E-1,-3.297142684E-1,-3.801106215E-1
7.607963244E0,-9.423353076E-1,-3.297142684E-1,-3.801106215E-1
7.624629910E0,-4.939605296E-1,7.973312736E-1,5.135845542E-1
7.641296576E0,-5.049561262E-1,1.033125043E0,5.942187309E-1
7.657963242E0,-4.377609789E-1,1.713628411E0,7.817541957E-1
7.674629908E0,-5.904771686E-1,1.132696033E0,8.782708645E-1
7.691296574E0,-6.998219490E-1,-2.325867712E-1,3.999637067E-1
7.707963240E0,-5.354993343E-1,-4.922043085E-1,-5.268708616E-2
7.724629906E0,-5.354993343E-1,-4.922043085E-1,-5.268708616E-2
7.741296572E0,4.070650041E-1,-3.339903057E-1,-7.582359314E-1
7.757963238E0,4.070650041E-1,-3.339903057E-1,-7.582359314E-1
7.774629904E0,-2.420551702E-2,-3.730856776E-1,-6.030762792E-1
7.791296570E0,-5.037343502E-1,-6.064360142E-1,-5.914698243E-1
7.807963236E0,-8.287144303E-1,-4.091266990E-1,-6.794343591E-1
7.824629902E0,-8.287144303E-1,-4.091266990E-1,-6.794343591E-1
7.841296568E0,-1.481117964E0,-1.030834317E-1,-7.997747064E-1
7.857963234E0,-1.961257696E0,7.838922143E-1,-6.940951347E-1
7.874629900E0,-1.266093612E0,1.458287001E0,-1.937968582E-1
7.891296566E0,-1.266093612E0,1.458287001E0,-1.937968582E-1
7.907963232E0,3.685805500E-1,-1.201876476E-1,8.781181276E-2
7.924629898E0,6.349175572E-1,-7.628173828E-1,1.018617004E-1
7.941296564E0,5.805506110E-1,-7.475457788E-1,7.498364896E-2
7.957963230E0,4.797579348E-1,-6.632464528E-1,-2.764163166E-2
7.974629896E0,2.372446060E-1,-4.793761373E-1,-8.994983882E-2
7.991296562E0,1.224020272E-1,-3.627009690E-1,-8.628465235E-2
8.007963228E0,1.266780794E-1,-3.834703565E-1,-1.748600453E-1
8.024629894E0,1.388953775E-1,-4.305069447E-1,-1.858556122E-1
8.041296560E0,1.694386154E-1,-4.940368831E-1,-1.815795600E-1
8.057963226E0,1.694386154E-1,-4.940368831E-1,-1.815795600E-1
8.074629892E0,6.436987966E-2,-2.215912044E-1,-1.675296724E-1
8.091296558E0,-3.214675933E-2,-8.536835015E-2,-1.565341055E-1
8.107963224E0,-2.318995446E-1,2.432768941E-1,-1.369864196E-1
8.124629890E0,-3.919461071E-1,5.578722358E-1,-1.418733448E-1
8.141296556E0,-3.919461071E-1,5.578722358E-1,-1.418733448E-1
8.157963222E0,-4.927388132E-1,7.924443483E-1,-1.724165827E-1
8.174629888E0,-4.927388132E-1,7.924443483E-1,-1.724165827E-1
8.191296554E0,-4.609738290E-1,9.647082090E-1,-2.102901936E-1
8.207963220E0,-4.805215001E-1,8.223767281E-1,-3.220784664E-1
8.224629886E0,-5.471057892E-1,7.154753804E-1,-3.678933084E-1
8.241296552E0,-6.943241954E-1,5.664243698E-1,-3.856084049E-1
8.257963218E0,-7.095957994E-1,5.951350331E-1,-3.410152495E-1
8.274629884E0,-7.169261575E-1,7.447968721E-1,-3.055851161E-1
8.291296550E0,-7.810669541E-1,8.462004066E-1,-2.848156989E-1
8.307963216E0,-9.197332859E-1,1.052061915E0,-2.096793354E-1
8.324629882E0,-8.549816012E-1,1.190117359E0,-2.316704690E-1
8.341296548E0,-6.735547781E-1,1.034346819E0,-2.347247899E-1
8.357963214E0,-5.923097730E-1,8.077159524E-1,-1.889099330E-1
8.374629880E0,-4.377609789E-1,2.328922004E-1,-1.198822111E-1
8.391296546E0,-4.377609789E-1,2.328922004E-1,-1.198822111E-1
8.407963212E0,-2.349538654E-1,5.696314201E-2,1.525634825E-1
8.424629878E0,-2.080758214E-1,2.084576041E-1,1.953240186E-1
8.441296544E0,-1.311068535E-1,4.161516428E-1,2.002109289E-1
8.457963210E0,-1.311068535E-1,4.161516428E-1,2.002109289E-1
8.474629876E0,1.395062506E-1,1.895207912E-1,-1.847865991E-2
8.491296542E0,1.731038094E-1,1.571449637E-1,-7.345648855E-2
8.507963208E0,1.462257504E-1,3.550651670E-1,-1.088866442E-1
8.524629874E0,1.462257504E-1,3.550651670E-1,-1.088866442E-1
8.541296540E0,1.733328775E-2,7.258600593E-1,-4.474584386E-2
8.557963206E0,-7.490729541E-2,8.608611822E-1,1.069013379E-3
8.574629872E0,-1.818086356E-1,8.229875565E-1,4.627300799E-2
8.591296538E0,-3.314704895E-1,6.659952998E-1,1.878409274E-2
8.607963204E0,-4.066068828E-1,5.890263915E-1,-2.596175298E-3
8.624629870E0,-5.092321634E-1,4.515817761E-1,-5.451968312E-2
8.641296536E0,-5.092321634E-1,4.515817761E-1,-5.451968312E-2
8.657963202E0,-6.405680776E-1,3.740019500E-1,-1.601992846E-1
8.674629868E0,-6.283507943E-1,4.234820008E-1,-1.412624866E-1
8.691296534E0,-3.730092943E-1,5.371028781E-1,-4.535670951E-2
8.707963200E0,-3.730092943E-1,5.371028781E-1,-4.535670951E-2
8.724629866E0,1.462257504E-1,-3.955349326E-2,4.505127668E-2
8.741296532E0,2.079230994E-1,-1.330158114E-1,3.955349326E-2
8.757963198E0,2.439641207E-1,-2.154825479E-1,3.039052337E-2
8.774629864E0,1.889862865E-1,-2.331976295E-1,-1.527161949E-4
8.791296530E0,1.230128929E-1,-2.081521749E-1,-9.926552884E-3
8.807963196E0,9.185878932E-2,-1.782197952E-1,4.581485991E-4
8.824629862E0,9.185878932E-2,-1.782197952E-1,4.581485991E-4
8.841296528E0,5.726857111E-3,9.926552884E-3,5.299251899E-2
8.857963194E0,5.726857111E-3,9.926552884E-3,5.299251899E-2
8.874629860E0,-3.031416424E-2,-8.292489499E-2,2.794706449E-2
8.891296526E0,-3.031416424E-2,-8.292489499E-2,2.794706449E-2
8.907963192E0,-2.909243479E-2,-2.698495090E-1,-5.039634649E-3
8.924629858E0,-2.909243479E-2,-2.698495090E-1,-5.039634649E-3
8.941296524E0,-1.015562657E-2,-2.496909797E-1,-1.725693047E-2
8.957963190E0,3.894262947E-3,-2.252563834E-1,-1.985310577E-3
8.974629856E0,1.061377581E-2,-2.368628234E-1,1.328630932E-2
8.991296522E0,1.061377581E-2,-2.368628234E-1,1.328630932E-2
9.007963188E0,4.176788032E-2,-2.325867712E-1,1.328630932E-2
9.024629854E0,6.925679743E-2,-2.081521749E-1,2.183841541E-2
9.041296520E0,6.925679743E-2,-2.081521749E-1,2.183841541E-2
9.057963186E0,6.925679743E-2,-2.081521749E-1,2.183841541E-2
9.074629852E0,1.266780794E-1,-1.366809905E-1,4.444041103E-2
9.091296518E0,1.144607887E-1,-9.392046183E-2,4.688387364E-2
9.107963184E0,1.144607887E-1,-9.392046183E-2,4.688387364E-2
9.124629850E0,1.034652218E-1,-1.634063199E-2,5.299251899E-2
9.141296516E0,8.391755074E-2,-8.399390616E-3,1.267544460E-2
9.157963182E0,7.170025259E-2,-8.964440972E-2,-2.519817278E-2
9.174629848E0,7.170025259E-2,-8.964440972E-2,-2.519817278E-2
9.191296514E0,6.986765563E-2,-2.631300092E-1,-9.666935354E-2
9.207963180E0,4.421133921E-2,-2.948949635E-1,-9.178243577E-2
9.224629846E0,1.366809942E-2,-2.386954129E-1,-2.886336111E-2
9.241296512E0,1.366809942E-2,-2.386954129E-1,-2.886336111E-2
9.257963178E0,-6.940951198E-2,-4.932733253E-2,7.620538026E-2
9.274629844E0,-1.182786897E-1,3.252854943E-2,1.470656991E-1
9.291296510E0,-1.390480995E-1,3.741546720E-2,1.757763475E-1
9.307963176E0,-1.359937787E-1,-2.901607659E-3,1.763872057E-1
9.324629842E0,-1.304959953E-1,-3.039052337E-2,1.647807807E-1
9.341296508E0,-1.207221523E-1,-1.030834317E-1,1.330158114E-1
9.357963174E0,-1.225547493E-1,-1.928805560E-1,7.315105945E-2
9.374629840E0,-1.225547493E-1,-1.928805560E-1,7.315105945E-2
9.391296506E0,-8.651372790E-2,-3.315468729E-1,1.511890348E-2
9.407963172E0,-3.397935256E-2,-3.822486401E-1,1.878409274E-2
9.424629838E0,-3.397935256E-2,-3.822486401E-1,1.878409274E-2
9.441296504E0,-3.397935256E-2,-3.822486401E-1,1.878409274E-2
9.457963170E0,6.314814836E-2,-3.950767815E-1,7.009673119E-2
9.474629836E0,1.413388401E-1,-3.816377819E-1,7.559451461E-2
9.491296502E0,1.413388401E-1,-3.816377819E-1,7.559451461E-2
9.507963168E0,2.763399482E-1,-3.743073940E-1,1.140789986E-1
9.524629834E0,3.099375069E-1,-3.480401933E-1,1.324049383E-1
9.541296500E0,3.551415205E-1,-2.606865466E-1,1.543960720E-1
9.557963166E0,3.551415205E-1,-2.606865466E-1,1.543960720E-1
9.574629832E0,3.734674454E-1,-7.376192510E-2,1.427896470E-1
9.591296498E0,3.563632369E-1,-6.276635826E-2,1.293506175E-1
9.607963164E0,3.117701113E-1,-1.159115955E-1,1.122464016E-1
9.624629830E0,2.586248815E-1,-2.057087123E-1,1.018617004E-1
9.641296496E0,1.853211075E-1,-2.460257858E-1,6.337722391E-2
9.657963162E0,1.523344070E-1,-2.417497337E-1,3.833176568E-2
9.674629828E0,1.523344070E-1,-2.417497337E-1,3.833176568E-2
9.691296494E0,5.276344717E-2,-2.026543915E-1,-1.237001177E-2
9.707963160E0,5.276344717E-2,-2.026543915E-1,-1.237001177E-2
9.724629826E0,1.061377581E-2,-1.653916389E-1,-1.664606482E-2
9.741296492E0,-2.542724647E-2,-1.751654744E-1,-6.551524997E-2
9.757963158E0,-5.597048625E-2,-2.612974048E-1,-1.039997265E-1
9.774629824E0,-7.551816106E-2,-3.309359848E-1,-1.204930767E-1
9.791296490E0,-1.585957706E-1,-4.415025115E-1,-1.595884264E-1
9.807963156E0,-2.630536556E-1,-4.024071693E-1,-1.913533956E-1
9.824629822E0,-2.923751473E-1,-2.325867712E-1,-1.840230078E-1
9.841296488E0,-2.679405510E-1,-1.629481763E-1,-1.785252392E-1
9.857963154E0,-1.952476501E-1,-1.207985133E-1,-1.583666950E-1
9.874629820E0,-1.585957706E-1,-2.020435184E-1,-1.039997265E-1
9.891296486E0,-1.274416596E-1,-3.504836559E-1,-1.237001177E-2
9.907963152E0,-1.030070707E-1,-3.956876695E-1,3.100138716E-2
9.924629818E0,-1.748600416E-2,-3.449858725E-1,1.342375278E-1
9.941296484E0,1.199585721E-1,-2.283107042E-1,1.886045039E-1
9.957963150E0,1.902080178E-1,-1.305723488E-1,1.611155868E-1
9.974629816E0,2.030361742E-1,-1.391244531E-1,1.434005052E-1
9.991296482E0,2.030361742E-1,-1.391244531E-1,1.434005052E-1
1.000796315E1,2.622900605E-1,-5.471821427E-1,8.292489499E-2
1.002462981E1,2.622900605E-1,-5.471821427E-1,8.292489499E-2
1.004129648E1,3.349829614E-1,-6.046034098E-1,3.894263133E-2
1.005796315E1,3.441459537E-1,-5.007563829E-1,3.588830680E-2
1.007462981E1,2.983310819E-1,-4.024071693E-1,3.283398226E-2
1.009129648E1,2.983310819E-1,-4.024071693E-1,3.283398226E-2
1.010796314E1,2.103665620E-1,-2.612974048E-1,1.206457894E-2
1.012462981E1,1.669951528E-1,-1.507308781E-1,1.023198478E-2
1.014129648E1,1.181259751E-1,-1.000291109E-1,-6.872228812E-3
1.015796314E1,1.181259751E-1,-1.000291109E-1,-6.872228812E-3
1.017462981E1,-2.115119249E-2,-1.568395346E-1,-7.651081681E-2
1.019129647E1,-1.152243689E-1,-2.002109289E-1,-1.320995092E-1
1.020796314E1,-1.708130687E-1,-2.044869810E-1,-1.669187993E-1
1.022462981E1,-1.708130687E-1,-2.044869810E-1,-1.669187993E-1
1.024129647E1,-2.679405510E-1,-1.812741160E-1,-1.705839932E-1
1.025796314E1,-2.978729308E-1,-1.928805560E-1,-1.498145908E-1
1.027462980E1,-2.978729308E-1,-1.928805560E-1,-1.498145908E-1
1.029129647E1,-2.978729308E-1,-1.928805560E-1,-1.498145908E-1
1.030796314E1,-2.441168427E-1,-4.932733253E-2,3.466657549E-2
1.032462980E1,-1.830303669E-1,2.825249545E-2,8.109229803E-2
1.034129647E1,-1.830303669E-1,2.825249545E-2,8.109229803E-2
1.035796313E1,-9.323323518E-2,-1.069013379E-3,6.276635826E-2
1.037462980E1,1.977674663E-2,-9.269873053E-2,2.733619884E-2
1.039129647E1,1.425605714E-1,-1.831067204E-1,-2.641990222E-2
1.040796313E1,1.425605714E-1,-1.831067204E-1,-2.641990222E-2
1.042462980E1,2.574031353E-1,-2.234237939E-1,-1.149952933E-1
1.044129646E1,2.574031353E-1,-2.234237939E-1,-1.149952933E-1
1.045796313E1,3.459785283E-1,-4.292852283E-1,-1.834121495E-1
1.047462980E1,3.459785283E-1,-4.292852283E-1,-1.834121495E-1
1.049129646E1,3.374264240E-1,-4.445568323E-1,-5.207622424E-2
1.050796313E1,3.349829614E-1,-1.788306683E-1,8.720094711E-2
1.052462979E1,3.221548200E-1,8.567378670E-2,1.372918636E-1
1.054129646E1,3.221548200E-1,8.567378670E-2,1.372918636E-1
1.055796313E1,2.543488145E-1,1.473711282E-1,1.195767820E-1
1.057462979E1,2.238055766E-1,1.114828233E-2,7.803797722E-2
1.059129646E1,1.694386154E-1,-4.260781780E-2,3.588830680E-2
1.060796312E1,1.694386154E-1,-4.260781780E-2,3.588830680E-2
1.062462979E1,1.120173261E-1,-7.070759684E-2,-3.619373962E-2
1.064129646E1,6.436987966E-2,-1.867718995E-1,-7.162389904E-2
1.065796312E1,-5.108356848E-2,-2.649625838E-1,-1.015562713E-1
1.067462979E1,-5.108356848E-2,-2.649625838E-1,-1.015562713E-1
1.069129645E1,-1.610392332E-1,-1.073594838E-1,-9.117157012E-2
1.070796312E1,-1.928042024E-1,3.741546720E-2,-7.589995116E-2
1.072462979E1,-1.928042024E-1,3.741546720E-2,-7.589995116E-2
1.074129645E1,-1.885281354E-1,-5.360338464E-2,-1.725693047E-2
1.075796312E1,-1.830303669E-1,-1.495091617E-1,-1.527161949E-4
1.077462978E1,-1.543197185E-1,-2.264781147E-1,5.849030241E-2
1.079129645E1,-1.543197185E-1,-2.264781147E-1,5.849030241E-2
1.080796312E1,4.665479809E-2,-1.079703495E-1,9.941824526E-2
1.082462978E1,8.330668509E-2,-1.354592592E-1,8.720094711E-2
1.084129645E1,8.330668509E-2,-1.354592592E-1,8.720094711E-2
1.085796311E1,2.983310819E-1,-4.518872201E-1,-2.458730713E-2
1.087462978E1,2.983310819E-1,-4.518872201E-1,-2.458730713E-2
1.089129645E1,4.260018170E-1,-5.111411214E-1,-2.886336111E-2
1.090796311E1,4.260018170E-1,-5.111411214E-1,-2.886336111E-2
1.092462978E1,4.437169135E-1,-3.077231348E-1,-9.315688163E-3
1.094129644E1,4.351648092E-1,-2.686277926E-1,1.069013379E-3
1.095796311E1,4.308887422E-1,-2.564104795E-1,2.061668597E-2
1.097462978E1,3.954585791E-1,-2.557996213E-1,3.649916872E-2
1.099129644E1,3.142135739E-1,-1.892153621E-1,5.360338464E-2
1.100796311E1,2.769508064E-1,-1.311832070E-1,5.360338464E-2
1.102462977E1,1.865428388E-1,-3.894263133E-2,5.177079141E-2
1.104129644E1,6.131555140E-2,-3.100138716E-2,5.115992576E-2
1.105796311E1,-5.047270283E-2,-2.855792828E-2,2.122755162E-2
1.107462977E1,-8.834631741E-2,-1.389717404E-2,1.756236330E-2
1.109129644E1,-1.366046369E-1,5.879573524E-2,-9.926552884E-3
1.110796310E1,-1.366046369E-1,5.879573524E-2,-9.926552884E-3
1.112462977E1,-1.347720474E-1,1.308777779E-1,-6.551524997E-2
1.114129644E1,-1.121700481E-1,1.217148080E-1,-8.261945844E-2
1.115796310E1,-2.115119249E-2,7.101303339E-2,-1.021671370E-1
1.117462977E1,-2.115119249E-2,7.101303339E-2,-1.021671370E-1
1.119129643E1,2.128100246E-1,-1.250745654E-1,-7.162389904E-2
1.120796310E1,2.616792023E-1,-1.647807807E-1,-4.841103405E-2
1.122462977E1,3.380373120E-1,-2.050978541E-1,-1.114828233E-2
1.124129643E1,3.765217662E-1,-2.185368687E-1,9.010255337E-3
1.125796310E1,3.765217662E-1,-2.185368687E-1,9.010255337E-3
1.127462976E1,4.455494881E-1,-2.509126961E-1,1.450803876E-2
1.129129643E1,4.260018170E-1,-3.229947388E-1,-8.704823442E-3
1.130796310E1,3.685805500E-1,-3.584249020E-1,-5.329795182E-2
1.132462976E1,3.685805500E-1,-3.584249020E-1,-5.329795182E-2
1.134129643E1,3.985128999E-1,-3.364337683E-1,-5.329795182E-2
1.135796309E1,3.960694373E-1,-3.688096106E-1,-3.863719851E-2
1.137462976E1,3.722457290E-1,-4.292852283E-1,4.123337101E-3
1.139129643E1,3.722457290E-1,-4.292852283E-1,4.123337101E-3
1.140796309E1,2.268599123E-1,-2.692386508E-1,8.659008145E-2
1.142462976E1,7.231111825E-2,-1.267544460E-2,1.623373181E-1
1.144129642E1,-1.011744812E-1,2.897026241E-1,1.879936308E-1
1.145796309E1,-1.830303669E-1,5.615374446E-1,1.513417512E-1
1.147462976E1,-1.940259188E-1,6.537780166E-1,1.305723488E-1
1.149129642E1,-1.732565165E-1,7.240274549E-1,8.536835015E-2
1.150796309E1,-6.391172856E-2,7.875574231E-1,-3.375028074E-2
1.152462975E1,-6.391172856E-2,7.875574231E-1,-3.375028074E-2
1.154129642E1,2.160934173E-2,7.533490062E-1,-1.443168074E-1
1.155796309E1,2.160934173E-2,7.533490062E-1,-1.443168074E-1
1.157462975E1,1.132390574E-1,6.220130324E-1,-1.687513888E-1
1.159129642E1,1.614973694E-1,6.110175252E-1,-1.601992846E-1
1.160796308E1,1.755472720E-1,3.410152495E-1,-1.314886510E-1
1.162462975E1,1.755472720E-1,3.410152495E-1,-1.314886510E-1
1.164129642E1,1.859319657E-1,5.085449293E-2,-7.223475724E-2
1.165796308E1,1.688277572E-1,1.359174121E-2,-5.268708616E-2
1.167462975E1,1.285106838E-1,-1.267544460E-2,-9.315688163E-3
1.169129641E1,1.285106838E-1,-1.267544460E-2,-9.315688163E-3
1.170796308E1,-7.101302966E-3,1.724165827E-1,1.165224537E-1
1.172462975E1,-9.140064567E-2,2.671006322E-1,1.305723488E-1
1.174129641E1,-1.195004210E-1,2.188423127E-1,1.336266696E-1
1.175796308E1,-1.195004210E-1,2.188423127E-1,1.336266696E-1
1.177462974E1,1.523344070E-1,3.147480786E-1,1.941022873E-1
1.179129641E1,1.810450554E-1,2.408334464E-1,2.075413018E-1
1.180796308E1,2.451858521E-1,4.474584386E-2,1.776089370E-1
1.182462974E1,4.198931754E-1,-6.215549260E-2,1.085812151E-1
1.184129641E1,6.679042578E-1,-7.803797722E-2,4.749473557E-2
1.185796307E1,7.381537557E-1,-8.048143238E-2,2.855792828E-2
1.187462974E1,5.781071782E-1,-7.925970852E-2,3.833176568E-2
1.189129641E1,1.132390574E-1,-7.803797722E-2,8.170316368E-2
1.190796307E1,1.132390574E-1,-7.803797722E-2,8.170316368E-2
1.192462974E1,-2.587775886E-1,1.895207912E-1,1.293506175E-1
1.194129640E1,-1.329394430E-1,2.933678031E-1,1.024725661E-1
1.195796307E1,4.543306679E-2,1.559232324E-1,4.871646687E-2
1.197462974E1,4.543306679E-2,1.559232324E-1,4.871646687E-2
1.199129640E1,9.918916970E-2,-6.276635826E-2,-9.911280870E-2
1.200796307E1,1.488982886E-2,-8.414662629E-2,-1.473711282E-1
1.202462973E1,-8.345939964E-2,-1.140789986E-1,-1.223256737E-1
1.204129640E1,-8.345939964E-2,-1.140789986E-1,-1.223256737E-1
1.205796307E1,-8.345939964E-2,-1.140789986E-1,-1.223256737E-1
1.207462973E1,-2.172387838E-1,1.278234571E-1,7.192932814E-2
1.209129640E1,-2.172387838E-1,1.278234571E-1,7.192932814E-2
1.210796306E1,-1.225547493E-1,2.609919906E-1,1.069013379E-3
1.212462973E1,-1.598175019E-1,2.432768941E-1,-2.153298259E-2
1.214129640E1,-2.312886715E-1,1.516471803E-1,-6.918043643E-2
1.215796306E1,-2.312886715E-1,1.516471803E-1,-6.918043643E-2
1.217462973E1,-1.995237023E-1,2.524398565E-1,-1.473711282E-1
1.219129639E1,-4.237110913E-1,1.589775532E-1,-7.101303339E-2
1.220796306E1,-7.065414786E-1,6.134609580E-1,8.048143238E-2
1.222462973E1,-7.065414786E-1,6.134609580E-1,8.048143238E-2
1.224129639E1,-5.819250345E-1,4.729620516E-1,4.696022868E-1
1.225796306E1,-8.030580878E-1,-7.620538026E-2,2.973384261E-1
1.227462972E1,-5.923097730E-1,-2.820668221E-1,2.276998460E-1
1.229129639E1,-1.567631811E-1,-1.033430457E0,1.996000707E-1
1.230796306E1,-5.879573524E-3,-1.300989270E0,1.098029464E-1
1.232462972E1,-1.518762559E-1,-1.699883938E0,-4.137081802E-1
1.234129639E1,-1.518762559E-1,-1.699883938E0,-4.137081802E-1
1.235796305E1,-2.337321341E-1,-1.012661099E0,-1.009301305E0
1.237462972E1,-2.176205814E-2,-8.257364631E-1,-1.008690476E0
1.239129639E1,4.748710096E-1,-5.184714794E-1,-8.315396905E-1
1.240796305E1,7.442623973E-1,-3.517054021E-1,-6.110175252E-1
1.242462972E1,7.442623973E-1,-3.517054021E-1,-6.110175252E-1
1.244129638E1,8.945351243E-1,1.272125840E-1,-4.963276163E-2
1.245796305E1,5.182424188E-1,1.864664704E-1,3.657552898E-1
1.247462972E1,3.565923125E-2,2.671006322E-1,2.118173689E-1
1.249129638E1,3.565923125E-2,2.671006322E-1,2.118173689E-1
1.250796305E1,-3.302487731E-1,3.672824502E-1,3.588830680E-2
1.252462971E1,-3.302487731E-1,3.672824502E-1,3.588830680E-2
1.254129638E1,-2.787070535E-2,-1.079703495E-1,-1.786779426E-2
1.255796305E1,-2.787070535E-2,-1.079703495E-1,-1.786779426E-2
1.257462971E1,1.950949430E-1,-4.616610706E-1,9.010255337E-3
1.259129638E1,2.060905099E-1,-4.726566374E-1,4.505127668E-2
1.260796304E1,2.024253160E-1,-3.254382014E-1,1.104138121E-1
1.262462971E1,2.024253160E-1,-3.254382014E-1,1.104138121E-1
1.264129638E1,-1.647044122E-1,-4.989238083E-1,-6.673697382E-2
1.265796304E1,-3.764454275E-2,-4.164570570E-1,-1.308777779E-1
1.267462971E1,2.616792023E-1,-1.977674663E-1,-3.313941509E-2
1.269129637E1,2.616792023E-1,-1.977674663E-1,-3.313941509E-2
1.270796304E1,3.795761168E-1,-2.429714650E-1,-8.017600328E-2
1.272462971E1,2.629009187E-1,-3.394880891E-1,-1.363755614E-1
1.274129637E1,2.629009187E-1,-3.394880891E-1,-1.363755614E-1
1.275796304E1,6.009382382E-2,-1.269071549E-1,4.199695215E-2
1.277462970E1,-2.373973280E-1,-7.177661173E-3,1.598938555E-1
1.279129637E1,-5.776489973E-1,1.082757786E-1,2.264781147E-1
1.280796304E1,-8.262709975E-1,2.310595959E-1,2.820668221E-1
1.282462970E1,-8.861356974E-1,2.371682525E-1,3.071122766E-1
1.284129637E1,-8.580359221E-1,2.377791107E-1,3.132209182E-1
1.285796303E1,-8.580359221E-1,2.377791107E-1,3.132209182E-1
1.287462970E1,-1.879172772E-1,8.578068614E-1,2.655734718E-1
1.289129637E1,-1.382081583E-2,7.380773425E-1,2.002109289E-1
1.290796303E1,2.286925018E-1,2.139553875E-1,-1.320995092E-1
1.292462970E1,2.286925018E-1,2.139553875E-1,-1.320995092E-1
1.294129636E1,4.418843091E-1,-6.082686186E-1,-9.274454713E-1
1.295796303E1,6.037634611E-1,-6.522508860E-1,-9.854776263E-1
1.297462970E1,9.678388834E-1,-1.263726473E0,-1.039844513E0
1.299129636E1,9.678388834E-1,-1.263726473E0,-1.039844513E0
1.300796303E1,2.466366626E-2,-8.715513349E-1,-5.774199367E-1
1.302462969E1,-1.030070707E-1,-2.313650399E-1,-4.479165971E-1
1.304129636E1,-1.897498667E-1,6.531671882E-1,-2.664897740E-1
1.305796303E1,-1.897498667E-1,6.531671882E-1,-2.664897740E-1
1.307462969E1,-2.056323588E-1,5.768090487E-1,1.708894223E-1
1.309129636E1,-2.422842383E-1,4.668534100E-1,3.956876695E-1
1.310796302E1,-2.551124096E-1,5.383245945E-1,6.882919073E-1
1.312462969E1,-2.129627317E-1,6.641627550E-1,7.744238377E-1
1.314129636E1,-2.129627317E-1,6.641627550E-1,7.744238377E-1
1.315796302E1,-2.343430072E-1,5.212203860E-1,8.239038587E-1
1.317462969E1,-2.343430072E-1,5.212203860E-1,8.239038587E-1
1.319129635E1,1.187368408E-1,3.587303460E-1,1.360701323E-1
1.320796302E1,1.187368408E-1,3.587303460E-1,1.360701323E-1
1.322462969E1,4.156171381E-1,-2.796233594E-1,-1.290451884E-1
1.324129635E1,4.156171381E-1,-1.756236330E-2,-1.253799945E-1
1.325796302E1,2.934441566E-1,6.085740328E-1,1.214093715E-1
1.327462968E1,2.934441566E-1,6.085740328E-1,1.214093715E-1
1.329129635E1,1.040760875E-1,1.158963203E0,5.685623884E-1
1.330796302E1,3.260490671E-2,1.570686102E0,7.102830410E-1
1.332462968E1,1.902080178E-1,1.556025267E0,7.487674952E-1
1.334129635E1,1.902080178E-1,1.556025267E0,7.487674952E-1
1.335796301E1,6.978366375E-1,1.148578525E0,6.736311316E-1
1.337462968E1,6.978366375E-1,1.148578525E0,6.736311316E-1
1.339129635E1,9.715040922E-1,1.370933294E0,7.066178322E-1
1.340796301E1,7.222712636E-1,1.001360059E0,7.383828163E-1
1.342462968E1,4.864774346E-1,2.438877672E-1,8.110756874E-1
1.344129634E1,9.763910174E-1,-3.649916872E-2,4.305069447E-1
1.345796301E1,1.075351119E0,-4.543306828E-1,-1.027780026E-1
1.347462968E1,9.226348996E-1,-6.717985272E-1,-3.257436454E-1
1.349129634E1,4.101193547E-1,-5.795579553E-1,-5.908589363E-1
1.350796301E1,4.101193547E-1,-5.795579553E-1,-5.908589363E-1
1.352462967E1,-5.959749222E-1,2.646571696E-1,-2.347247899E-1
1.354129634E1,-7.945060134E-1,2.060141414E-1,-1.779143661E-1
1.355796301E1,-1.030299783E0,-1.586721241E-1,-1.156061590E-1
1.357462967E1,-9.172898531E-1,-6.821832657E-1,-1.889099330E-1
1.359129634E1,-5.153408051E-1,-1.142164469E0,-3.196350038E-1
1.360796300E1,-3.644571900E-1,-1.290604591E0,-3.385718167E-1
1.362462967E1,-3.107011020E-1,-1.254563570E0,-3.257436454E-1
1.364129634E1,-4.676933587E-1,-1.053588986E0,-3.459021747E-1
1.365796300E1,-5.807033181E-1,-8.159626126E-1,-3.074176908E-1
1.367462967E1,-5.849793553E-1,-5.789470673E-1,-2.597702444E-1
1.369129633E1,-5.477166176E-1,-1.262962967E-1,-1.614210159E-1
1.370796300E1,-5.336667299E-1,-5.543597788E-2,-4.108065739E-2
1.372462967E1,-6.191878319E-1,2.764163166E-2,-4.413498193E-2
1.374129633E1,-7.040980458E-1,1.333212405E-1,-1.113301069E-1
1.375796300E1,-8.244383931E-1,1.237001177E-2,-2.915352285E-1
1.377462966E1,-7.383064628E-1,-4.060723484E-1,-6.470585465E-1
1.379129633E1,-4.481456876E-1,-6.962331533E-1,-1.001971006E0
1.380796300E1,-3.534616232E-1,-7.304415703E-1,-9.463822842E-1
1.382462966E1,-1.164461002E-1,-5.392408967E-1,-3.391826749E-1
1.384129633E1,2.586248815E-1,-7.009673119E-2,1.769980639E-1
1.385796299E1,2.586248815E-1,-7.009673119E-2,1.769980639E-1
1.387462966E1,3.820195496E-1,-2.875646055E-1,4.751000702E-1
1.389129633E1,1.920406222E-1,-6.339249015E-1,5.251910090E-1
1.390796299E1,-6.268999726E-2,-6.907353401E-1,2.228129357E-1
1.392462966E1,-6.268999726E-2,-6.907353401E-1,2.228129357E-1
1.394129632E1,-3.565159440E-1,-7.347176075E-1,-3.619373962E-2
1.395796299E1,-3.565159440E-1,-7.347176075E-1,-3.619373962E-2
1.397462966E1,-3.803396821E-1,-7.389936447E-1,-2.811505198E-1
1.399129632E1,-4.438696206E-1,-8.159626126E-1,-2.768744528E-1
1.400796299E1,-3.595702946E-1,-9.051488638E-1,-1.669187993E-1
1.402462965E1,-3.595702946E-1,-9.051488638E-1,-1.669187993E-1
1.404129632E1,-2.202931046E-1,-9.857830405E-1,-1.852447391E-1
1.405796299E1,-2.050214857E-1,-1.011439323E0,-1.125518382E-1
1.407462965E1,-9.506583214E-2,-1.039539099E0,-2.596175298E-3
1.409129632E1,2.121991515E-1,-1.099403858E0,3.894263133E-2
1.410796298E1,5.787180066E-1,-1.308930516E0,4.138609022E-2
1.412462965E1,6.831759214E-1,-1.418886185E0,3.588830680E-2
1.414129632E1,7.430406213E-1,-1.479972601E0,2.000582218E-2
1.415796298E1,7.430406213E-1,-1.479972601E0,2.000582218E-2
1.417462965E1,9.965495467E-1,-1.343138933E0,-1.175914705E-2
1.419129631E1,1.060079455E0,-1.345582366E0,2.306014486E-2
1.420796298E1,1.060079455E0,-1.340084553E0,4.627300799E-2
1.422462965E1,8.762091398E-1,-1.341306329E0,1.189659163E-1
1.424129631E1,8.762091398E-1,-1.341306329E0,1.189659163E-1
1.425796298E1,5.267944932E-1,-1.162322998E0,2.044869810E-1
1.427462964E1,2.372446060E-1,-9.027054310E-1,2.209803313E-1
1.429129631E1,-1.565340906E-2,-5.997164845E-1,2.270889878E-1
1.430796298E1,-1.732565165E-1,-4.384481907E-1,1.769980639E-1
1.432462964E1,-2.520580888E-1,-4.421133697E-1,1.537852138E-1
1.434129631E1,-4.059959948E-1,-4.427242577E-1,8.903354406E-2
1.435796297E1,-4.059959948E-1,-4.427242577E-1,8.903354406E-2
1.437462964E1,-3.620137274E-1,-1.806632578E-1,9.010255337E-3
1.439129631E1,-3.333030939E-1,-1.678351015E-1,-1.053741761E-2
1.440796297E1,-2.551124096E-1,-2.729038298E-1,-6.734783947E-2
1.442462964E1,-1.934150606E-1,-4.237874448E-1,-8.323032409E-2
1.444129630E1,-1.530979872E-1,-4.451677203E-1,-6.307178736E-2
1.445796297E1,-1.359937787E-1,-4.005745649E-1,-4.474584386E-2
1.447462964E1,-1.359937787E-1,-4.005745649E-1,-4.474584386E-2
1.449129630E1,1.272889525E-1,-6.107120514E-1,-3.207040019E-3
1.450796297E1,1.272889525E-1,-6.107120514E-1,-3.207040019E-3
1.452462963E1,2.317468226E-1,-1.031597853E0,3.588830680E-2
1.454129630E1,2.836703360E-1,-1.122005939E0,1.122464016E-1
1.455796297E1,3.551415205E-1,-9.747874737E-1,2.081521749E-1
1.457462963E1,3.856847584E-1,-8.886555433E-1,2.368628234E-1
1.459129630E1,4.266127050E-1,-8.049670458E-1,2.924515009E-1
1.460796296E1,4.266127050E-1,-8.049670458E-1,2.924515009E-1
1.462462963E1,3.319286406E-1,-5.135845542E-1,2.741255760E-1
1.464129630E1,3.019962609E-1,-4.115701318E-1,2.735147178E-1
1.465796296E1,2.024253160E-1,-2.594648004E-1,2.869537175E-1
1.467462963E1,7.047852129E-2,-1.879936308E-1,2.435823381E-1
1.469129629E1,7.047852129E-2,-1.879936308E-1,2.435823381E-1
1.470796296E1,-1.066722646E-1,-1.482874304E-1,1.269071549E-1
1.472462963E1,-2.025780380E-1,-2.075413018E-1,6.276635826E-2
1.474129629E1,-2.447277009E-1,-3.486510813E-1,-3.252854943E-2
1.475796296E1,-2.447277009E-1,-3.486510813E-1,-3.252854943E-2
1.477462962E1,-2.099084109E-1,-6.155989766E-1,-1.088866442E-1
1.479129629E1,-2.331212759E-1,-6.467530727E-1,-5.390881747E-2
1.480796296E1,-2.001345754E-1,-4.097375572E-1,1.817322709E-2
1.482462962E1,-2.001345754E-1,-4.097375572E-1,1.817322709E-2
1.484129629E1,-8.323032409E-3,6.246092543E-2,2.977965772E-2
1.485796295E1,1.376736462E-1,1.614210159E-1,1.023198478E-2
1.487462962E1,2.396880686E-1,1.528689116E-1,-1.374445739E-3
1.489129629E1,2.396880686E-1,1.528689116E-1,-1.374445739E-3
1.490796295E1,2.360228747E-1,1.760817766E-1,-8.323032409E-2
1.492462962E1,1.981492639E-1,2.133445293E-1,-1.320995092E-1
1.494129628E1,2.012035847E-1,2.707658112E-1,-1.583666950E-1
1.495796295E1,2.012035847E-1,2.707658112E-1,-1.583666950E-1
1.497462962E1,1.731038094E-1,2.554942071E-1,-1.284343153E-1
1.499129628E1,1.731038094E-1,2.554942071E-1,-1.284343153E-1
1.500796295E1,4.115701467E-2,3.226893246E-1,-2.214384824E-2
1.502462961E1,4.115701467E-2,3.226893246E-1,-2.214384824E-2
1.504129628E1,7.841976732E-2,3.342957497E-1,3.772090003E-2
1.505796295E1,1.095738709E-1,3.159697950E-1,3.100138716E-2
1.507462961E1,6.131555140E-2,2.457203567E-1,-1.298087649E-2
1.509129628E1,6.131555140E-2,2.457203567E-1,-1.298087649E-2
1.510796294E1,2.421315312E-1,3.130681813E-2,-1.204930767E-1
1.512462961E1,3.349829614E-1,-2.057087123E-1,-1.968511790E-1
1.514129628E1,3.930151165E-1,-4.592176080E-1,-1.999054998E-1
1.515796294E1,3.930151165E-1,-4.592176080E-1,-1.999054998E-1
1.517462961E1,3.979020417E-1,-7.225003242E-1,-1.571449637E-1
1.519129627E1,3.007745445E-1,-7.732021213E-1,-5.574141070E-2
1.520796294E1,8.330668509E-2,-7.121156454E-1,1.660024971E-1
1.522462961E1,-7.490729541E-2,-6.046034098E-1,3.095557392E-1
1.524129627E1,-4.200458825E-1,-2.008218020E-1,4.769326746E-1
1.525796294E1,-4.200458825E-1,-2.008218020E-1,4.769326746E-1
1.527462960E1,-2.410625070E-1,7.105884552E-1,2.112064958E-1
1.529129627E1,5.154171586E-2,7.331904769E-1,1.409570426E-1
1.530796294E1,5.781071782E-1,6.452259421E-1,-1.504254490E-1
1.532462960E1,7.619774342E-1,2.878700197E-1,-4.283689260E-1
1.534129627E1,7.619774342E-1,2.878700197E-1,-4.283689260E-1
1.535796293E1,4.528798759E-1,-3.223838806E-1,-4.882336855E-1
1.537462960E1,3.991237879E-1,-5.453495383E-1,-4.204276800E-1
1.539129627E1,4.583776593E-1,-6.766854525E-1,-3.764454126E-1
1.540796293E1,4.583776593E-1,-6.766854525E-1,-3.764454126E-1
1.542462960E1,6.825650334E-1,-7.658717036E-1,-4.356993139E-1
1.544129626E1,7.192169428E-1,-7.151699662E-1,-4.381427765E-1
1.545796293E1,6.874519587E-1,-7.964149714E-1,-3.507890999E-1
1.547462960E1,6.874519587E-1,-7.964149714E-1,-3.507890999E-1
1.549129626E1,6.581304669E-1,-5.031998754E-1,-9.789107740E-2
1.550796293E1,5.891027451E-1,-1.036942974E-1,-8.093958721E-3
1.552462959E1,5.891027451E-1,-1.036942974E-1,-8.093958721E-3
1.554129626E1,4.394408464E-1,3.741546720E-2,-4.169152305E-2
1.555796293E1,4.125627875E-1,5.329795182E-2,-3.863719851E-2
1.557462959E1,3.985128999E-1,1.980729103E-1,9.621120058E-3
1.559129626E1,3.331503868E-1,4.754055142E-1,1.653916389E-1
1.560796292E1,1.450803829E-3,9.140064120E-1,3.694204688E-1
1.562462959E1,-2.783252597E-1,1.133917689E0,4.378373325E-1
1.564129626E1,-8.708640933E-1,1.216995358E0,4.353938699E-1
1.565796292E1,-1.002200007E0,9.115629792E-1,8.048143238E-2
1.567462959E1,-2.581667304E-1,9.262236953E-1,-4.185950756E-1
1.569129625E1,2.629009187E-1,7.454077601E-1,-4.986183643E-1
1.570796292E1,9.678388834E-1,-1.537852138E-1,-4.766272306E-1
1.572462959E1,1.033201456E0,-9.619593024E-1,-4.473057389E-1
1.574129625E1,1.033201456E0,-9.619593024E-1,-4.473057389E-1
1.575796292E1,3.581958413E-1,-3.010036349E-1,-1.479819864E-1
1.577462958E1,3.581958413E-1,-3.010036349E-1,-1.479819864E-1
1.579129625E1,-1.048396677E-1,1.037401080E0,2.386954129E-1
1.580796292E1,-2.147953212E-1,1.214551926E0,2.490801066E-1
1.582462958E1,-5.391645432E-1,1.274416685E0,2.466366589E-1
1.584129625E1,-5.391645432E-1,1.274416685E0,2.466366589E-1
1.585796291E1,-1.079169035E0,9.763146043E-1,4.170679152E-1
1.587462958E1,-9.765437245E-1,1.285412192E0,5.099193454E-1
1.589129625E1,-5.910880566E-1,1.667813540E0,7.261655331E-1
1.590796291E1,-5.910880566E-1,1.667813540E0,7.261655331E-1
1.592462958E1,-9.215658903E-1,5.390881747E-2,1.922696829E-1
1.594129624E1,-1.481117964E0,-8.825469017E-1,-1.033888608E-1
1.595796291E1,-2.272187948E0,-2.395658970E0,-2.060141414E-1
1.597462958E1,-1.464624643E0,-1.429270864E0,1.000291109E-1
1.599129624E1,-1.464624643E0,-1.429270864E0,1.000291109E-1
1.600796291E1,-1.726456583E-1,-9.876156449E-1,3.712530732E-1
1.602462957E1,-3.247509897E-1,-1.127503633E0,3.785834610E-1
1.604129624E1,-5.403862596E-1,-4.720457494E-1,1.763872057E-1
1.605796291E1,-5.403862596E-1,-4.720457494E-1,1.763872057E-1
1.607462957E1,-4.890736043E-1,7.124210596E-1,-2.322813272E-1
1.609129624E1,-6.207913160E-2,6.872228812E-3,-5.146535859E-2
1.610796290E1,-6.207913160E-2,6.872228812E-3,-5.146535859E-2
1.612462957E1,1.080848813E0,-7.341067195E-1,-1.162170246E-1
1.614129624E1,1.063744664E0,-4.946477413E-1,-1.076649204E-1
1.615796290E1,8.230639100E-1,2.580903657E-2,-1.663079411E-1
1.617462957E1,8.230639100E-1,2.580903657E-2,-1.663079411E-1
1.619129623E1,3.966803253E-1,5.328267813E-1,-3.953822255E-1
1.620796290E1,3.869064748E-1,5.499309897E-1,-5.041161776E-1
1.622462957E1,3.490328491E-1,2.958112657E-1,-5.468766689E-1
1.624129623E1,4.482220486E-2,-4.134027362E-1,-5.804742575E-1
1.625796290E1,-3.998873532E-1,-1.230739832E0,-6.568323374E-1
1.627462956E1,-6.430115104E-1,-1.536172152E0,-6.287325621E-1
1.629129623E1,-1.246545911E0,-1.381012559E0,-4.381427765E-1
1.630796290E1,-1.533652425E0,5.945241451E-1,-1.162170246E-1
1.632462956E1,-5.495492220E-1,1.709352374E0,2.301433086E-1
1.634129623E1,-9.995274991E-2,1.640324593E0,2.704603672E-1
1.635796289E1,-9.995274991E-2,1.640324593E0,2.704603672E-1
1.637462956E1,4.449386299E-1,-1.123838425E0,-1.237001177E-2
1.639129623E1,6.043743491E-1,-1.762192130E0,-4.413498193E-2
1.640796289E1,8.365029693E-1,-2.217286348E0,-8.384118974E-2
1.642462956E1,7.735838890E-1,-1.747531414E0,2.733619884E-2
1.644129622E1,7.473167181E-1,-1.046869516E0,1.855501831E-1
1.645796289E1,8.090140224E-1,-8.477275968E-1,2.301433086E-1
1.647462956E1,8.267291188E-1,-8.165735006E-1,2.808450758E-1
1.649129622E1,5.353466272E-1,-1.024267554E0,2.875646055E-1
1.650796289E1,1.297324002E-1,-1.107345104E0,2.258672565E-1
1.652462955E1,-4.802924395E-2,-1.076191068E0,1.971566081E-1
1.654129622E1,-3.711767197E-1,-9.527963400E-1,2.014326602E-1
1.655796289E1,-3.711767197E-1,-9.527963400E-1,2.014326602E-1
1.657462955E1,-3.699549735E-1,-4.653262496E-1,-2.225074917E-1
1.659129622E1,-5.413788930E-2,-4.592176080E-1,-3.147480786E-1
1.660796288E1,5.829941034E-1,-1.000443816E0,-3.159697950E-1
1.662462955E1,8.694896698E-1,-1.891084671E0,-2.915352285E-1
1.664129622E1,8.694896698E-1,-1.891084671E0,-2.915352285E-1
1.665796288E1,1.088790059E0,-2.526384115E0,-3.184132576E-1
1.667462955E1,1.212795615E0,-2.582583666E0,-1.791360974E-1
1.669129621E1,1.212795615E0,-2.582583666E0,-1.791360974E-1
1.670796288E1,1.182863235E0,-2.754847527E0,3.222311661E-2
1.672462955E1,1.099785686E0,-2.671159029E0,6.643154472E-2
1.674129621E1,8.786526322E-1,-2.514166832E0,1.684459597E-1
1.675796288E1,8.786526322E-1,-2.514166832E0,1.684459597E-1
1.677462954E1,4.217257798E-1,-2.270431757E0,2.906189263E-1
1.679129621E1,3.068831861E-1,-2.241720915E0,3.071122766E-1
1.680796288E1,1.327867359E-1,-2.220951557E0,3.028362095E-1
1.682462954E1,1.327867359E-1,-2.220951557E0,3.028362095E-1
1.684129621E1,-9.750928730E-2,-1.916130066E0,1.580612659E-1
1.685796287E1,-1.091157198E-1,-1.759748697E0,7.742711157E-2
1.687462954E1,-1.748600416E-2,-1.509904981E0,-1.711948514E-1
1.689129621E1,1.682168841E-1,-1.518457174E0,-3.782780170E-1
1.690796287E1,1.682168841E-1,-1.518457174E0,-3.782780170E-1
1.692462954E1,4.809796512E-1,-1.525787473E0,-7.521272302E-1
1.694129620E1,5.994874239E-1,-1.521511436E0,-8.352048993E-1
1.695796287E1,5.994874239E-1,-1.521511436E0,-8.352048993E-1
1.697462954E1,6.080395579E-1,-1.596647859E0,-8.016073108E-1
1.699129620E1,5.280162692E-1,-1.643684387E0,-7.875574231E-1
1.700796287E1,4.608211219E-1,-1.214246511E0,-7.130318880E-1
1.702462953E1,4.608211219E-1,-1.214246511E0,-7.130318880E-1
1.704129620E1,6.117047071E-1,-5.740602016E-1,-6.488910913E-1
1.705796287E1,9.146936536E-1,-4.298960865E-1,-5.474875569E-1
1.707462953E1,1.220736861E0,-6.473639607E-1,-3.019199073E-1
1.709129620E1,1.582368851E0,-8.232930303E-1,2.118173689E-1
1.710796286E1,1.892077327E0,-5.520690680E-1,5.435169339E-1
1.712462953E1,2.669097185E0,5.254964232E-1,1.183703184E0
1.714129620E1,3.050887823E0,1.554192662E0,1.875202179E0
1.715796286E1,2.563417673E0,2.345873356E0,2.464075804E0
1.717462953E1,2.049069643E0,2.486983299E0,2.608850718E0
1.719129619E1,1.094287872E0,1.584125042E0,2.362672329E0
1.720796286E1,1.094287872E0,1.584125042E0,2.362672329E0
1.722462953E1,7.353284955E-2,-5.080868006E-1,1.352301955E0
1.724129619E1,-1.042288020E-1,-6.656898856E-1,1.295491457E0
1.725796286E1,-5.489383340E-1,-1.214857340E0,1.332754254E0
1.727462952E1,-1.038241029E0,-1.076191068E0,1.633910537E0
1.729129619E1,-1.038241029E0,-1.076191068E0,1.633910537E0
1.730796286E1,-4.463130832E-1,-1.346804142E0,2.442084789E0
1.732462952E1,4.565450549E-1,-2.947880745E0,2.593579054E0
1.734129619E1,4.461603761E-1,-3.722457170E0,2.702924013E0
1.735796285E1,2.519053519E-1,-3.294240952E0,2.503171206E0
1.737462952E1,3.074940443E-1,-3.274082422E0,2.324187756E0
1.739129619E1,4.388299882E-1,-3.110981703E0,1.997985959E0
1.740796285E1,2.806160152E-1,-2.596022606E0,1.659566879E0
1.742462952E1,2.806160152E-1,-2.596022606E0,1.659566879E0
1.744129618E1,-3.100902438E-1,-1.686444998E0,1.074969292E0
1.745796285E1,-6.448441148E-1,-1.264948249E0,7.139481902E-1
1.747462952E1,-8.488729596E-1,-1.050534725E0,4.506655037E-1
1.749129618E1,-8.488729596E-1,-1.050534725E0,4.506655037E-1
1.750796285E1,-8.507055640E-1,-1.051756382E0,8.399390616E-3
1.752462951E1,-7.547997832E-1,-1.176983714E0,-2.561050653E-1
1.754129618E1,-7.328086495E-1,-1.429270864E0,-4.644099474E-1
1.755796285E1,-6.026944518E-1,-2.201403856E0,-4.931205809E-1
1.757462951E1,-4.121046662E-1,-2.369391680E0,-3.886627257E-1
1.759129618E1,-4.558578506E-2,-1.359021425E0,3.711003438E-2
1.760796284E1,-4.558578506E-2,-1.359021425E0,3.711003438E-2
1.762462951E1,-3.339139521E-1,-1.109788537E0,1.097571254E0
1.764129618E1,-1.848629564E-1,-1.319926023E0,1.010828495E0
1.765796284E1,-6.851612329E-1,-6.895136237E-1,4.176788032E-1
1.767462951E1,-6.851612329E-1,-6.895136237E-1,4.176788032E-1
1.769129617E1,-1.347949505E0,1.987906694E0,-9.207259417E-1
1.770796284E1,-9.820414782E-1,9.622647166E-1,-1.540753722E0
1.772462951E1,-1.085048541E-1,-1.244178891E0,-1.290910006E0
1.774129617E1,-1.085048541E-1,-1.244178891E0,-1.290910006E0
1.775796284E1,-1.072831303E-1,-1.154992580E0,-7.399099469E-1
1.777462950E1,-1.628718227E-1,2.109010667E-1,-6.739365458E-1
1.779129617E1,5.115992390E-3,3.843866587E-1,-1.030070782E0
1.780796284E1,-5.230529606E-2,3.966039717E-1,-1.545029759E0
1.782462950E1,-7.429642975E-2,4.473057389E-1,-1.640324593E0
1.784129617E1,-1.137735695E-2,5.884155035E-1,-1.681252599E0
1.785796283E1,-1.137735695E-2,5.884155035E-1,-1.681252599E0
1.787462950E1,-1.137735695E-2,5.884155035E-1,-1.681252599E0
1.789129617E1,-8.500946760E-1,-1.415220976E0,-2.204763651E0
1.790796283E1,-1.073060393E0,-2.430478334E0,-2.078314781E0
1.792462950E1,-1.073060393E0,-2.430478334E0,-2.078314781E0
1.794129616E1,-1.685146809E0,-2.635118008E0,-2.270126343E0
1.795796283E1,-1.715690136E0,-2.040135622E0,-2.107636213E0
1.797462950E1,-1.320460558E0,-9.943351150E-1,-1.275027514E0
1.799129616E1,-1.320460558E0,-9.943351150E-1,-1.275027514E0
1.800796283E1,-1.187902927E0,1.085048556E0,-4.692968726E-1
1.802462949E1,-1.053512692E0,1.069166064E0,-3.257436454E-1
1.804129616E1,-1.119486094E0,8.938478827E-1,-1.931859851E-1
1.805796283E1,-1.650327563E0,9.378301501E-1,-2.463312149E-1
1.807462949E1,-1.650327563E0,9.378301501E-1,-2.463312149E-1
1.809129616E1,-1.797546029E0,9.824233055E-1,-8.345940113E-1
1.810796282E1,-1.797546029E0,9.824233055E-1,-8.345940113E-1
1.812462949E1,-1.965533733E0,2.094808102E0,-1.561523080E0
1.814129616E1,-1.965533733E0,2.094808102E0,-1.561523080E0
1.815796282E1,-2.734383345E-1,2.783252716E0,-1.000749230E0
1.817462949E1,-2.734383345E-1,2.783252716E0,-1.000749230E0
1.819129615E1,1.285488605E0,2.849225998E0,1.095127821E0
1.820796282E1,1.285488605E0,2.849225998E0,1.095127821E0
1.822462949E1,2.605567455E0,7.777835727E-1,2.795164585E0
1.824129615E1,2.605567455E0,7.777835727E-1,2.795164585E0
1.825796282E1,2.673984289E0,4.772381186E-1,5.642405033E0
1.827462948E1,3.191997528E0,-4.335612655E-1,5.411498547E0
1.829129615E1,3.783314705E0,-2.661385059E0,4.308276653E0
1.830796282E1,3.783314705E0,-2.661385059E0,4.308276653E0
1.832462948E1,5.738310814E-1,4.069886506E-1,2.332129002E0
1.834129615E1,-1.854738146E-1,2.548680544E0,1.925293088E0
1.835796281E1,-1.897116899E0,3.698328018E0,2.167806387E0
1.837462948E1,-1.707748890E0,1.430798054E0,2.359007120E0
1.839129615E1,8.086322248E-2,1.318398952E0,1.988212109E0
1.840796281E1,3.184896111E-1,7.014254928E-1,1.566715479E0
1.842462948E1,4.907535017E-1,-1.049923897E0,1.183092356E0
1.844129614E1,8.432224989E-1,-1.491579056E0,1.241735339E0
1.845796281E1,7.650317550E-1,-1.423773050E0,8.788816929E-1
1.847462948E1,5.347357392E-1,-1.209970355E0,7.664825916E-1
1.849129614E1,-1.504254527E-2,-4.592176080E-1,5.532907844E-1
1.850796281E1,-1.504254527E-2,-4.592176080E-1,5.532907844E-1
1.852462947E1,-9.478330612E-1,-6.643154472E-2,-2.206749022E-1
1.854129614E1,-1.145142436E0,-3.181078434E-1,-6.403390169E-1
1.855796281E1,-1.458516002E0,-1.498298645E0,-1.903607368E0
1.857462947E1,-1.458516002E0,-1.498298645E0,-1.903607368E0
1.859129614E1,-2.984837890E-1,-2.845255375E0,-1.372155070E0
1.860796280E1,-8.299361467E-1,-2.005316257E0,-1.082605124E0
1.862462947E1,-1.666210055E0,2.507141829E0,-7.961094975E-1
1.864129614E1,-2.642982721E0,1.793040872E0,4.390590489E-1
1.865796280E1,-2.642982721E0,1.793040872E0,4.390590489E-1
1.867462947E1,-7.541889548E-1,5.090031028E-1,1.547778606E0
1.869129613E1,-7.541889548E-1,5.090031028E-1,1.547778606E0
1.870796280E1,8.829286695E-1,-1.172096848E0,8.330668211E-1
1.872462947E1,8.829286695E-1,-1.172096848E0,8.330668211E-1
1.874129613E1,1.637346625E0,-3.773617148E-1,2.784016132E-1
1.875796280E1,1.455919862E0,6.495019794E-1,-1.327103674E-1
1.877462946E1,1.455919862E0,6.495019794E-1,-1.327103674E-1
1.879129613E1,1.455919862E0,6.495019794E-1,-1.327103674E-1
1.880796280E1,9.403499961E-1,8.345940113E-1,-9.897536635E-1
1.882462946E1,7.900772095E-1,-2.026543915E-1,-1.041677117E0
1.884129613E1,7.900772095E-1,-2.026543915E-1,-1.041677117E0
1.885796279E1,5.811614990E-1,-1.798844099E0,-1.816864610E0
1.887462946E1,6.422479749E-1,-3.023017168E0,-2.225533009E0
1.889129613E1,6.422479749E-1,-3.023017168E0,-2.225533009E0
1.890796279E1,5.927678943E-1,-4.391964912E0,-2.180939913E0
1.892462946E1,2.005927265E-1,-4.561174393E0,-2.126573086E0
1.894129612E1,-2.069380760E0,-4.427395344E0,-2.089921236E0
1.895796279E1,-2.069380760E0,-4.427395344E0,-2.089921236E0
1.897462946E1,-3.986885309E0,-5.031998754E-1,-1.895666122E0
1.899129612E1,-3.814621449E0,4.173733592E-1,-1.831525326E0
1.900796279E1,-3.220250130E0,1.442404509E0,-1.614668369E0
1.902462945E1,-3.220250130E0,1.442404509E0,-1.614668369E0
1.904129612E1,-3.294164658E0,3.628078699E0,-1.224325776E0
1.905796279E1,-3.131674767E0,4.243830204E0,-1.075274706E0
1.907462945E1,-2.182390690E0,4.962818146E0,-1.056337953E0
1.909129612E1,-2.182390690E0,4.962818146E0,-1.056337953E0
1.910796278E1,5.726857111E-3,1.097265840E0,-5.682569742E-1
1.912462945E1,1.119333386E0,-4.066832364E-1,-3.031416535E-1
1.914129612E1,1.119333386E0,-4.066832364E-1,-3.031416535E-1
1.915796278E1,2.720409870E0,-1.837328553E0,8.391754627E-1
1.917462945E1,2.720409870E0,-1.837328553E0,8.391754627E-1
1.919129611E1,3.038059711E0,-1.780518174E0,1.911243200E0
1.920796278E1,2.989190340E0,-4.934260249E-1,3.522093534E0
1.922462945E1,2.518213749E0,1.714239240E0,4.991834164E0
1.924129611E1,1.807167053E0,2.310443401E0,5.313148975E0
1.925796278E1,1.844429851E0,1.885281444E0,4.987558365E0
1.927462944E1,1.769904375E0,9.775363803E-1,3.785376310E0
1.929129611E1,1.769904375E0,9.775363803E-1,3.785376310E0
1.930796278E1,-1.005254388E0,1.229823470E0,2.575253248E0
1.932462944E1,-8.543707728E-1,1.904218197E0,2.335794210E0
1.934129611E1,-1.408806890E-1,1.611613989E0,2.186743259E0
1.935796277E1,-1.408806890E-1,1.611613989E0,2.186743259E0
1.935796277E1,4.589885175E-1,-1.324049383E-1,2.338848591E0
1.939129611E1,7.803034186E-1,-3.645335436E-1,1.854432702E0
1.940796277E1,8.456659317E-1,-8.611665964E-1,1.100625634E0
1.942462944E1,6.007091403E-1,-1.302211046E0,7.304415703E-1
1.944129610E1,4.956403971E-1,-1.453094602E0,6.809614897E-1
1.945796277E1,1.242346242E-1,-1.435990334E0,5.948295593E-1
1.947462944E1,-5.171734095E-1,-1.059697628E0,4.445568323E-1
1.949129610E1,-5.171734095E-1,-1.059697628E0,4.445568323E-1
1.950796277E1,-1.310686707E0,6.429351866E-2,-3.226893246E-1
1.952462943E1,-1.690644622E0,-2.234237939E-1,-9.561560750E-1
1.954129610E1,-1.690644622E0,-2.234237939E-1,-9.561560750E-1
1.955796277E1,-1.177518249E0,-1.065806270E0,-2.419177294E0
1.957462943E1,2.091448307E-1,-2.550207853E0,-2.127794743E0
1.959129610E1,-3.198640645E-1,-2.724915028E0,-1.271973133E0
1.960796276E1,-3.198640645E-1,-2.724915028E0,-1.271973133E0
1.962462943E1,-1.165911794E0,1.027016401E0,7.084504366E-1
1.964129610E1,-1.450574756E0,8.445205539E-2,1.033430457E0
1.965796276E1,-1.544647932E0,2.449109554E0,1.186146736E0
1.967462943E1,-1.528765440E0,2.904814720E0,7.218894362E-1
1.969129609E1,-1.528765440E0,2.904814720E0,7.218894362E-1
1.970796276E1,8.676570654E-1,6.612611562E-2,2.405280024E-1
1.972462943E1,1.664224744E0,4.815141559E-1,-2.267835438E-1
1.974129609E1,1.659948707E0,6.800451875E-1,-7.087558508E-1
1.975796276E1,1.659948707E0,6.800451875E-1,-7.087558508E-1
1.977462942E1,1.058246851E0,1.595884264E-1,-1.485165000E0
1.979129609E1,1.058246851E0,1.595884264E-1,-1.485165000E0
1.980796276E1,8.200095892E-1,-8.807142973E-1,-1.632383466E0
1.982462942E1,8.200095892E-1,-8.807142973E-1,-1.632383466E0
1.984129609E1,1.053359985E0,-1.762192130E0,-1.892611861E0
1.985796275E1,1.065577269E0,-2.523329735E0,-2.118631840E0
1.987462942E1,1.065577269E0,-2.523329735E0,-2.118631840E0
1.989129609E1,4.351648092E-1,-3.744448423E0,-1.755778074E0
1.990796275E1,7.231111825E-2,-3.614334106E0,-1.559079647E0
1.992462942E1,-1.248989344E0,-2.561814070E0,-1.359937668E0
1.994129608E1,-1.248989344E0,-2.561814070E0,-1.359937668E0
1.995796275E1,-2.804862022E0,1.985310577E-3,-1.181565166E0
1.997462942E1,-2.734612465E0,2.402225733E-1,-1.006247044E0
1.999129608E1,-2.627100229E0,7.166970968E-1,-8.590285778E-1
2.000796275E1,-2.627100229E0,7.166970968E-1,-8.590285778E-1
2.002462941E1,-2.627100229E0,7.166970968E-1,-8.590285778E-1
2.004129608E1,-3.203756809E0,2.122907877E0,-9.653190970E-1
2.005796275E1,-2.993008375E0,2.158948898E0,-1.074663877E0
2.007462941E1,-2.938030481E0,3.944506645E0,-1.356883407E0
2.009129608E1,-2.388863087E0,4.756956577E0,-1.382539749E0
2.010796274E1,-7.621301413E-1,4.366003513E0,-1.166904449E0
2.012462941E1,-7.621301413E-1,4.366003513E0,-1.166904449E0
2.014129608E1,1.279990792E0,-2.482401848E0,-9.671516418E-1
2.015796274E1,1.523114920E0,-2.189186573E0,-6.116283536E-1
2.017462941E1,1.986150503E0,-1.107345104E0,5.752819180E-1
2.019129607E1,1.986150503E0,-1.107345104E0,5.752819180E-1
2.020796274E1,1.986150503E0,-1.107345104E0,5.752819180E-1
2.022462941E1,1.986150503E0,-1.107345104E0,5.752819180E-1
2.024129607E1,2.358167171E0,9.744820595E-1,3.435961723E0
2.025796274E1,2.358167171E0,9.744820595E-1,3.435961723E0
2.027462940E1,1.203021884E0,2.793026447E0,4.892874241E0
2.029129607E1,1.346575022E0,2.085644960E0,4.639365196E0
2.030796274E1,1.835266829E0,3.764454126E-1,3.567908525E0
2.032462940E1,1.835266829E0,3.764454126E-1,3.567908525E0
2.034129607E1,-6.466767192E-1,4.106538594E-1,2.032805204E0
2.035796273E1,-1.007697821E0,1.628718257E0,1.896582365E0
2.037462940E1,-7.596867085E-1,2.024558544E0,2.211788654E0
2.039129607E1,-7.596867085E-1,2.024558544E0,2.211788654E0
2.040796273E1,5.732202530E-1,8.628465235E-2,1.914297462E0
2.042462940E1,6.721803546E-1,-4.854847789E-1,1.462868452E0
2.044129606E1,7.705295682E-1,-1.504407287E0,8.953750730E-1
2.045796273E1,8.395572901E-1,-1.732259750E0,7.194460034E-1
2.047462940E1,4.296670258E-1,-1.539837360E0,7.011200786E-1
2.049129606E1,2.329685539E-1,-1.525176644E0,7.579304576E-1
2.050796273E1,-3.088684976E-1,-5.050324798E-1,5.783362389E-1
2.052462939E1,-3.088684976E-1,-5.050324798E-1,5.783362389E-1
2.054129606E1,-1.256930590E0,9.926552884E-3,-5.108356476E-1
2.055796273E1,-1.515937328E0,-2.264781147E-1,-9.170607328E-1
2.057462939E1,-1.515937328E0,-2.264781147E-1,-9.170607328E-1
2.059129606E1,-1.515937328E0,-2.264781147E-1,-9.170607328E-1
2.060796272E1,1.584430486E-1,-2.046244383E0,-1.475391150E0
2.062462939E1,-2.154061943E-1,-1.870315194E0,-1.445458770E0
2.064129606E1,-2.154061943E-1,-1.870315194E0,-1.445458770E0
2.065796272E1,-1.814650178E0,2.193157196E0,-7.258600593E-1
2.067462939E1,-1.949040413E0,1.242040753E0,5.955931731E-3
2.069129605E1,-1.321071386E0,-5.789470673E-1,1.217911601E0
2.070796272E1,-1.321071386E0,-5.789470673E-1,1.217911601E0
2.072462939E1,-8.678097725E-1,4.173733592E-1,-9.237802625E-1
2.074129605E1,-3.888917863E-1,2.703076601E-2,-5.535961986E-1
2.075796272E1,8.193987608E-1,-8.049670458E-1,5.642863512E-1
2.077462938E1,8.193987608E-1,-8.049670458E-1,5.642863512E-1
2.079129605E1,1.747913241E0,-9.697478265E-2,7.437278330E-2
2.080796272E1,1.694767952E0,1.876882017E-1,-1.492037177E-1
2.082462938E1,1.413159251E0,5.163334608E-1,-5.285507441E-1
2.084129605E1,1.413159251E0,5.163334608E-1,-5.285507441E-1
2.085796271E1,9.953277707E-1,5.090031028E-1,-8.938478827E-1
2.087462938E1,1.042975307E0,3.086394370E-1,-1.006247044E0
2.089129605E1,1.142546177E0,-3.553705812E-1,-1.324507594E0
2.090796271E1,1.240895391E0,-1.508072376E0,-1.527925491E0
2.092462938E1,1.253723621E0,-2.625954866E0,-1.630550861E0
2.094129604E1,1.160872102E0,-2.758512735E0,-1.644600749E0
2.095796271E1,7.100539207E-1,-2.290590286E0,-1.596953273E0
2.097462938E1,-3.326922357E-1,-1.222798586E0,-1.442404509E0
2.099129604E1,-1.453629136E0,-1.185535789E0,-1.407585144E0
2.100796271E1,-1.969198942E0,-1.392008066E0,-1.443626165E0
2.102462937E1,-3.650909662E0,-1.002276421E0,-1.691637278E0
2.104129604E1,-4.706483841E0,1.046105921E-1,-1.852905631E0
2.105796271E1,-4.706483841E0,1.046105921E-1,-1.852905631E0
2.107462937E1,-3.621588230E0,4.546361268E-1,-1.422856808E0
2.109129604E1,-3.621588230E0,4.546361268E-1,-1.422856808E0
2.110796270E1,-3.621588230E0,4.546361268E-1,-1.422856808E0
2.110796270E1,-3.363803148E0,4.895012379E0,-1.045953274E0
2.114129604E1,-2.515312195E0,4.712363720E0,-8.260418773E-1
2.115796270E1,-9.899827242E-1,1.400865674E0,-1.016020894E0
2.117462937E1,1.639179230E0,-1.920406103E0,-1.204167247E0
2.119129603E1,1.639179230E0,-1.920406103E0,-1.204167247E0
2.120796270E1,2.111988544E0,-2.743851900E0,-7.704532146E-1
2.122462937E1,2.101603985E0,-2.494008064E0,-4.027126133E-1
2.124129603E1,2.101603985E0,-2.494008064E0,-4.027126133E-1
2.125796270E1,1.934226990E0,-1.244789720E0,2.112064958E-1
2.127462936E1,1.934226990E0,-1.244789720E0,2.112064958E-1
2.129129603E1,1.579925418E0,5.358811021E-1,1.018158913E0
2.130796270E1,1.579925418E0,5.358811021E-1,1.018158913E0
2.132462936E1,1.457141519E0,1.275638342E0,2.123213291E0
2.134129603E1,1.361846685E0,3.096626282E0,3.206276417E0
2.135796269E1,1.328249097E0,5.257255077E0,4.145175457E0
2.137462936E1,1.328249097E0,5.257255077E0,4.145175457E0
2.139129603E1,7.827468514E-1,1.804036379E0,4.205040455E0
2.140796269E1,1.004109010E-1,-7.145590782E-1,3.508043766E0
2.142462936E1,-3.520108387E-2,2.218966335E-1,2.554483891E0
2.144129602E1,4.033998251E-1,3.006829262E0,1.922849655E0
2.145796269E1,2.268599123E-1,2.734994411E0,1.906967163E0
2.147462936E1,-4.615846872E-1,5.816959739E-1,1.800065756E0
2.149129602E1,-1.317177117E-1,8.162680864E-1,1.805563569E0
2.150796269E1,5.090794563E-1,-1.695149764E-2,1.829998136E0
2.152462935E1,7.613666058E-1,-7.035635114E-1,1.633299708E0
2.154129602E1,9.452368617E-1,-1.577710986E0,1.312595725E0
2.155796269E1,9.452368617E-1,-1.577710986E0,1.312595725E0
2.157462935E1,9.452368617E-1,-1.577710986E0,1.312595725E0
2.159129602E1,1.529452652E-1,-8.074105382E-1,5.514581800E-1
2.160796268E1,1.529452652E-1,-8.074105382E-1,5.514581800E-1
2.162462935E1,-8.354339600E-1,-1.794415265E-1,-2.854265571E-1
2.164129602E1,-8.354339600E-1,-1.794415265E-1,-2.854265571E-1
2.165796268E1,-1.238604665E0,-8.006910086E-1,-1.469282508E0
2.167462935E1,-1.214170098E0,-1.225852847E0,-1.885892272E0
2.169129601E1,-6.635518372E-2,-2.744462729E0,-1.494328022E0
2.170796268E1,-6.635518372E-2,-2.744462729E0,-1.494328022E0
2.172462935E1,-2.557232678E-1,-8.709404469E-1,-9.323323965E-1
2.174129601E1,-1.151251078E0,7.765618563E-1,-5.499309897E-1
2.175796268E1,-1.151251078E0,7.765618563E-1,-5.499309897E-1
2.177462934E1,-1.151251078E0,7.765618563E-1,-5.499309897E-1
2.179129601E1,-1.151251078E0,7.765618563E-1,-5.499309897E-1
2.180796268E1,-6.625592113E-1,5.039634649E-3,-9.850194305E-2
2.182462934E1,-6.625592113E-1,5.039634649E-3,-9.850194305E-2
2.184129601E1,-5.697077513E-1,-1.203861713E0,-2.050215006E0
2.185796267E1,-1.384372264E-1,-8.697187304E-1,-1.266475439E0
2.187462934E1,1.511126757E-1,-8.611665964E-1,-2.641990222E-2
2.189129601E1,1.511126757E-1,-8.611665964E-1,-2.641990222E-2
2.190796267E1,8.462768197E-1,-1.360701323E-1,-3.959930837E-1
2.192462934E1,1.132772326E0,6.246092543E-2,-9.915862679E-1
2.194129600E1,1.338633776E0,8.704823442E-3,-1.226769209E0
2.195796267E1,1.338633776E0,8.704823442E-3,-1.226769209E0
2.197462934E1,1.662392139E0,-4.500546157E-1,-1.084437728E0
2.199129600E1,1.742415428E0,-1.079245329E0,-1.178510904E0
2.200796267E1,1.439426541E0,-1.650403976E0,-1.403919935E0
2.202462933E1,1.439426541E0,-1.650403976E0,-1.403919935E0
2.204129600E1,5.414552689E-1,-2.371835232E0,-1.574962139E0
2.205796267E1,1.694386154E-1,-2.792110205E0,-1.512653947E0
2.207462933E1,1.694386154E-1,-2.792110205E0,-1.512653947E0
2.209129600E1,1.694386154E-1,-2.792110205E0,-1.512653947E0
2.210796266E1,-2.107254505E0,-1.074969292E0,-1.234099627E0
2.212462933E1,-2.380311012E0,-4.360047281E-1,-8.883501291E-1
2.214129600E1,-2.380311012E0,-4.360047281E-1,-8.883501291E-1
2.215796266E1,-2.286237717E0,4.503600597E-1,-5.248855352E-1
2.217462933E1,-2.272798777E0,6.317868829E-1,-5.291616321E-1
2.219129599E1,-2.437121391E0,9.537126422E-1,-4.271472096E-1
2.220796266E1,-2.437121391E0,9.537126422E-1,-4.271472096E-1
2.222462933E1,-2.407799959E0,1.122922182E0,-5.285507441E-1
2.224129599E1,-2.421238899E0,1.355661631E0,-5.529853702E-1
2.225796266E1,-2.313726664E0,2.282343626E0,-6.892082095E-1
2.227462932E1,-1.453629136E0,3.248731613E0,-9.182825089E-1
2.229129599E1,-1.453629136E0,3.248731613E0,-9.182825089E-1
2.230796266E1,6.147590280E-1,2.136346817E0,-1.124143958E0
2.232462932E1,6.147590280E-1,2.136346817E0,-1.124143958E0
2.234129599E1,9.055306911E-1,-1.407890558E0,-1.061835647E0
2.235796265E1,9.055306911E-1,-1.407890558E0,-1.061835647E0
2.237462932E1,1.885968685E0,-1.947131455E-1,4.720457494E-1
2.239129599E1,2.345339060E0,8.181006312E-1,1.528841853E0
2.240796265E1,2.219500780E0,9.891427755E-1,2.803716660E0
2.242462932E1,2.219500780E0,9.891427755E-1,2.803716660E0
2.244129598E1,1.356348872E0,2.386190653E0,4.859887600E0
2.245796265E1,7.289907336E-1,2.545015335E0,5.368126869E0
2.247462932E1,7.289907336E-1,2.545015335E0,5.368126869E0
2.249129598E1,1.380172610E0,-1.977674663E-1,3.836688995E0
2.250796265E1,5.762745738E-1,-1.351691008E0,2.814101219E0
2.252462931E1,-3.021489978E-1,1.207832336E0,2.117715359E0
2.254129598E1,-3.021489978E-1,1.207832336E0,2.117715359E0
2.255796265E1,-2.880991101E-1,1.717904449E0,2.115882874E0
2.257462931E1,-2.880991101E-1,1.717904449E0,2.115882874E0
2.259129598E1,3.429242074E-1,1.504254490E-1,1.564271927E0
2.260796264E1,3.429242074E-1,1.504254490E-1,1.564271927E0
2.262462931E1,8.859829903E-1,-1.547167778E0,9.320269227E-1
2.264129598E1,8.859829903E-1,-1.547167778E0,9.320269227E-1
2.265796264E1,4.980838597E-1,-1.381012559E0,7.225003242E-1
2.267462931E1,4.980838597E-1,-1.381012559E0,7.225003242E-1
2.269129597E1,-8.407026529E-2,-7.298306823E-1,5.209149122E-1
2.270796264E1,-8.407026529E-2,-7.298306823E-1,5.209149122E-1
2.272462931E1,-1.043738842E0,-4.140135944E-1,-3.868301213E-1
2.274129597E1,-1.043738842E0,-4.140135944E-1,-3.868301213E-1
2.275796264E1,-1.043738842E0,-4.140135944E-1,-3.868301213E-1
2.275796264E1,-1.566028237E0,-9.692896605E-1,-9.640973210E-1
2.279129597E1,-1.566028237E0,-9.692896605E-1,-9.640973210E-1
2.280796264E1,-4.609738290E-1,-1.744477153E0,-6.769908667E-1
2.282462930E1,-7.810669541E-1,-6.736311316E-1,-7.716749310E-1
2.284129597E1,-7.163153291E-1,8.626937866E-1,2.367101051E-2
2.285796263E1,-7.163153291E-1,8.626937866E-1,2.367101051E-2
2.287462930E1,-7.163153291E-1,8.626937866E-1,2.367101051E-2
2.289129597E1,-6.362920403E-1,-9.069814682E-1,1.105512500E0
2.290796263E1,-1.102381825E0,1.548694968E0,-4.741837978E-1
2.292462930E1,-1.561141253E0,1.287855625E0,-1.975078583E0
2.294129596E1,-1.561141253E0,1.287855625E0,-1.975078583E0
2.295796263E1,-2.893208265E-1,-6.223185062E-1,-1.586568594E0
2.297462930E1,4.492146969E-1,-9.515746236E-1,-3.648389876E-1
2.299129596E1,6.184242368E-1,-6.296488643E-1,-6.440041661E-1
2.300796263E1,6.184242368E-1,-6.296488643E-1,-6.440041661E-1
2.302462929E1,7.350993752E-1,9.728021920E-2,-1.239597321E0
2.304129596E1,7.350993752E-1,9.728021920E-2,-1.239597321E0
2.305796263E1,6.068177819E-1,1.481347065E-2,-1.435074091E0
2.307462929E1,6.068177819E-1,1.481347065E-2,-1.435074091E0
2.309129596E1,6.068177819E-1,1.481347065E-2,-1.435074091E0
2.310796262E1,7.369319797E-1,-4.109592736E-1,-1.950644016E0
2.312462929E1,7.369319797E-1,-4.109592736E-1,-1.950644016E0
2.314129596E1,5.878809690E-1,-1.705381751E0,-2.055712700E0
2.315796262E1,3.832412958E-1,-2.607018232E0,-1.851073027E0
2.317462929E1,-3.479638398E-1,-2.495840788E0,-1.629939914E0
2.319129595E1,-3.479638398E-1,-2.495840788E0,-1.629939914E0
2.320796262E1,-1.416977167E0,-7.328850031E-1,-1.464395642E0
2.322462929E1,-1.416977167E0,-7.328850031E-1,-1.464395642E0
2.324129595E1,-1.867184520E0,6.018545032E-1,-6.751583219E-1
2.325796262E1,-1.867184520E0,6.018545032E-1,-6.751583219E-1
2.327462928E1,-1.961257696E0,7.979421020E-1,-6.818777919E-1
2.329129595E1,-2.239812136E0,1.034346819E0,-6.446150541E-1
2.330796262E1,-2.373591423E0,1.151021957E0,-6.837103963E-1
2.332462928E1,-2.373591423E0,1.151021957E0,-6.837103963E-1
2.334129595E1,-2.175671339E0,1.136972070E0,-8.119919896E-1
2.335796261E1,-2.037615776E0,1.772882342E0,-1.058781385E0
2.337462928E1,-2.037615776E0,1.772882342E0,-1.058781385E0
2.339129595E1,-2.037615776E0,1.772882342E0,-1.058781385E0
2.340796261E1,1.244636998E-2,2.454607487E0,-1.033125043E0
2.342462928E1,-1.687514037E-2,8.181006312E-1,-5.560396910E-1
2.344129594E1,4.699840844E-1,1.090546370E0,4.036289155E-1
2.345796261E1,1.532888770E0,1.182786942E0,1.015104532E0
2.347462928E1,1.697822332E0,7.417425513E-1,1.296102405E0
2.349129594E1,1.837099433E0,7.406735420E-2,2.501338482E0
2.350796261E1,1.837099433E0,7.406735420E-2,2.501338482E0
2.352462927E1,1.819384336E0,1.799760342E0,4.905702114E0
2.354129594E1,1.804112792E0,1.747226000E0,5.016268730E0
2.355796261E1,2.407036304E0,-1.085812151E-1,4.139067173E0
2.357462927E1,2.407036304E0,-1.085812151E-1,4.139067173E0
2.359129594E1,1.209741354E0,-1.205694318E0,2.644280910E0
2.360796260E1,2.629009187E-1,1.577558219E-1,2.473238707E0
2.362462927E1,-1.154305339E0,3.094182730E0,1.949727654E0
2.364129594E1,-1.154305339E0,3.094182730E0,1.949727654E0
2.365796260E1,2.344193682E-2,8.480330110E-1,1.794568062E0
2.367462927E1,3.948477209E-1,4.448622763E-1,1.819613457E0
2.369129593E1,3.948477209E-1,4.448622763E-1,1.819613457E0
2.370796260E1,1.011210322E0,-1.285717607E0,9.931133986E-1
2.372462927E1,9.678388834E-1,-1.444542527E0,8.269581795E-1
2.374129593E1,4.650971591E-1,-9.582940936E-1,7.463240623E-1
2.375796260E1,4.650971591E-1,-9.582940936E-1,7.463240623E-1
2.377462926E1,-3.058141768E-1,-3.028362095E-1,5.068650246E-1
2.379129593E1,-4.909062088E-1,-3.344484791E-2,3.352120519E-1
2.380796260E1,-9.545525908E-1,1.852447391E-1,-2.005163580E-1
2.382462926E1,-9.545525908E-1,1.852447391E-1,-2.005163580E-1
2.384129593E1,-1.867184520E0,-6.986765862E-1,-1.730732679E0
2.385796259E1,-1.905669093E0,-7.646499872E-1,-1.915213823E0
2.387462926E1,-1.092607975E0,6.001746282E-2,-1.701411128E0
2.389129593E1,-1.092607975E0,6.001746282E-2,-1.701411128E0
2.390796259E1,-1.237383008E0,7.712167501E-2,-2.312275887E0
2.392462926E1,-1.539150119E0,7.973312736E-1,-2.174831390E0
2.394129592E1,-1.914221168E0,1.543807983E0,-8.712459207E-1
2.395796259E1,-1.914221168E0,1.543807983E0,-8.712459207E-1
2.397462926E1,-1.914221168E0,1.543807983E0,-8.712459207E-1
2.399129592E1,-2.716057599E-1,5.743656158E-1,4.017963111E-1
2.400796259E1,-2.716057599E-1,5.743656158E-1,4.017963111E-1
2.402462925E1,-3.703367710E-2,-1.276554704E0,9.039271474E-1
2.404129592E1,-3.703367710E-2,-1.276554704E0,9.039271474E-1
2.405796259E1,1.170645952E0,-7.554870248E-1,1.305876136E0
2.407462925E1,1.170645952E0,-7.554870248E-1,1.305876136E0
2.409129592E1,1.722256899E0,5.096139312E-1,-3.098611534E-1
2.410796258E1,1.722256899E0,5.096139312E-1,-3.098611534E-1
2.412462925E1,1.356959701E0,8.419243693E-1,-8.462004066E-1
2.414129592E1,1.193858862E0,5.554288030E-1,-8.303179741E-1
2.415796258E1,1.172478557E0,-1.153007299E-1,-1.165071845E0
2.417462925E1,1.172478557E0,-1.153007299E-1,-1.165071845E0
2.419129591E1,1.191415429E0,-1.536783099E0,-1.547473192E0
2.420796258E1,1.269606113E0,-2.697426081E0,-1.727678299E0
2.422462925E1,1.313588381E0,-3.044397354E0,-1.838244796E0
2.424129591E1,1.313588381E0,-3.044397354E0,-1.838244796E0
2.425796258E1,-3.479638398E-1,-1.457370639E0,-1.236543059E0
2.427462924E1,-1.635055900E0,-1.479972601E0,-1.005025268E0
2.429129591E1,-1.635055900E0,-1.479972601E0,-1.005025268E0
2.430796258E1,-1.635055900E0,-1.479972601E0,-1.005025268E0
2.432462924E1,-4.437092781E0,7.906117439E-1,-1.688583016E0
2.434129591E1,-3.440161467E0,8.932369947E-1,-1.099709272E0
2.435796257E1,-3.440161467E0,8.932369947E-1,-1.099709272E0
2.437462924E1,-3.489030600E0,3.110065222E0,-1.199891090E0
2.439129591E1,-3.489030600E0,3.110065222E0,-1.199891090E0
2.440796257E1,-2.597167969E0,4.562090874E0,-6.482802629E-1
2.442462924E1,-2.597167969E0,4.562090874E0,-6.482802629E-1
2.444129590E1,-1.221500516E0,3.378845930E0,-6.293434501E-1
2.445796257E1,1.138499230E-1,3.721693754E-1,-6.201804876E-1
2.447462924E1,1.643455386E0,-9.198096395E-1,-4.699077308E-1
2.449129590E1,1.643455386E0,-9.198096395E-1,-4.699077308E-1
2.450796257E1,1.896353364E0,-1.186757565E0,2.290742937E-3
2.452462923E1,1.477300167E0,-7.762564421E-1,6.070469022E-1
2.454129590E1,1.398498535E0,-5.726857483E-2,1.194087982E0
2.455796257E1,1.398498535E0,-5.726857483E-2,1.194087982E0
2.457462923E1,1.591531873E0,2.273791313E0,2.874577045E0
2.459129590E1,1.591531873E0,2.273791313E0,2.874577045E0
2.460796256E1,-7.065414786E-1,4.321410179E0,5.843379974E0
2.462462923E1,-7.065414786E-1,4.321410179E0,5.843379974E0
2.464129590E1,2.231947184E-1,1.764941096E0,4.856832981E0
2.465796256E1,2.231947184E-1,1.764941096E0,4.856832981E0
2.467462923E1,1.745469809E0,1.068555236E0,2.149480343E0
2.469129589E1,1.745469809E0,1.068555236E0,2.149480343E0
2.470796256E1,1.602756530E-1,1.811366796E0,9.870047569E-1
2.472462923E1,-1.976911128E-1,1.547473192E0,9.118683934E-1
2.474129589E1,1.810450554E-1,3.032485485E0,1.711490393E0
2.475796256E1,1.810450554E-1,3.032485485E0,1.711490393E0
2.477462922E1,1.160872102E0,9.237802625E-1,1.164766431E0
2.479129589E1,1.680107236E0,-4.415025115E-1,8.422298431E-1
2.480796256E1,1.680107236E0,-4.415025115E-1,8.422298431E-1
2.482462922E1,1.680107236E0,-4.415025115E-1,8.422298431E-1
2.484129589E1,1.680107236E0,-4.415025115E-1,8.422298431E-1
2.485796255E1,-9.934188426E-2,6.062832847E-2,1.214093715E-1
2.487462922E1,-9.934188426E-2,6.062832847E-2,1.214093715E-1
2.489129589E1,-9.934188426E-2,6.062832847E-2,1.214093715E-1
2.490796255E1,-1.037019372E0,-2.790125012E-1,-1.165682673E0
2.492462922E1,-1.377271056E0,-9.918916821E-1,-1.678198218E0
2.494129588E1,-1.377271056E0,-9.918916821E-1,-1.678198218E0
2.495796255E1,-1.351003766E0,-9.967786074E-1,-1.775936604E0
2.497462922E1,-9.960913658E-1,1.388190240E-1,-1.720347881E0
2.499129588E1,-4.463130832E-1,1.774714947E0,-1.564577460E0
2.500796255E1,-4.463130832E-1,1.774714947E0,-1.564577460E0
2.502462921E1,-5.373319387E-1,7.283035517E-1,-5.615374446E-1
2.504129588E1,-5.373319387E-1,7.283035517E-1,-5.615374446E-1
2.505796255E1,-5.519927144E-1,1.617722631E0,-2.469420880E-1
2.507462921E1,-5.519927144E-1,1.617722631E0,-2.469420880E-1
2.509129588E1,-1.179961681E0,5.816959739E-1,3.077231348E-1
2.510796254E1,-7.859538794E-1,1.268918872E0,3.425424397E-1
2.512462921E1,-1.402698308E-1,1.193782449E0,2.105956376E-1
2.514129588E1,-1.402698308E-1,1.193782449E0,2.105956376E-1
2.515796254E1,8.676570654E-1,1.241429925E0,-5.364919901E-1
2.517462921E1,1.187750220E0,7.704532146E-1,-1.081383348E0
2.519129587E1,1.187750220E0,7.704532146E-1,-1.081383348E0
2.520796254E1,9.916626215E-1,-7.389936447E-1,-1.410639524E0
2.522462921E1,9.220240116E-1,-8.733839393E-1,-1.632383466E0
2.524129587E1,7.717512846E-1,-1.134834051E0,-1.868788123E0
2.525796254E1,7.717512846E-1,-1.134834051E0,-1.868788123E0
2.527462920E1,5.683333278E-1,-1.550222039E0,-1.625663877E0
2.529129587E1,5.750528574E-1,-1.516624570E0,-1.706297994E0
2.530796254E1,5.481747985E-1,-9.472985864E-1,-1.694691658E0
2.532462920E1,5.481747985E-1,-9.472985864E-1,-1.694691658E0
2.534129587E1,5.481747985E-1,-9.472985864E-1,-1.694691658E0
2.535796253E1,-1.520213366E0,1.565799117E0,-9.054543376E-1
2.537462920E1,-1.520213366E0,1.565799117E0,-9.054543376E-1
2.539129587E1,-1.755396247E0,7.160862088E-1,-8.816305995E-1
2.540796253E1,-1.755396247E0,7.160862088E-1,-8.816305995E-1
2.542462920E1,-1.632612467E0,5.090031028E-1,-7.838922143E-1
2.544129586E1,-1.927660227E0,7.893900275E-1,-7.741183639E-1
2.545796253E1,-1.927660227E0,7.893900275E-1,-7.741183639E-1
2.547462920E1,-1.927660227E0,7.893900275E-1,-7.741183639E-1
2.549129586E1,-1.927660227E0,7.893900275E-1,-7.741183639E-1
2.550796253E1,-1.930714488E0,1.326951027E0,-8.254310489E-1
2.552462919E1,-1.926438451E0,1.719126225E0,-7.722858191E-1
2.554129586E1,-1.855578184E0,1.943924427E0,-7.429642677E-1
2.555796253E1,-1.445687890E0,2.555400133E0,-7.020363212E-1
2.557462919E1,-6.155226231E-1,3.232849121E0,-6.042979956E-1
2.559129586E1,-1.494327933E-1,3.223075390E0,-3.037525117E-1
2.560796252E1,-1.995237023E-1,3.009883404E0,-5.085449293E-2
2.562462919E1,5.398517475E-2,2.374584198E0,5.435169339E-1
2.564129586E1,9.379065037E-1,1.943313599E0,1.269835114E0
2.565796252E1,9.379065037E-1,1.943313599E0,1.269835114E0
2.567462919E1,2.197509766E0,4.393644929E-1,2.895957232E0
2.569129585E1,2.197509766E0,4.393644929E-1,2.895957232E0
2.570796252E1,2.071671486E0,1.476001978E0,5.223962784E0
2.572462919E1,2.071671486E0,1.476001978E0,5.223962784E0
2.574129585E1,2.916497469E0,-1.158657789E0,4.104247570E0
2.575796252E1,1.812664866E0,-1.346193314E0,3.455509424E0
2.577462918E1,1.812664866E0,-1.346193314E0,3.455509424E0
2.579129585E1,1.812664866E0,-1.346193314E0,3.455509424E0
2.580796252E1,-9.777654409E-1,4.256047726E0,1.815948248E0
2.582462918E1,-4.609738290E-1,1.469282508E0,1.712712169E0
2.584129585E1,4.406625926E-1,1.209054112E0,1.413388371E0
2.585796251E1,8.114575148E-1,-1.069013379E-3,1.308930516E0
2.587462918E1,1.092455268E0,-7.799215913E-1,1.316871762E0
2.589129585E1,1.458363295E0,-1.889252067E0,1.120173335E0
2.590796251E1,1.458363295E0,-1.889252067E0,1.120173335E0
2.592462918E1,1.458363295E0,-1.889252067E0,1.120173335E0
2.594129584E1,2.384663373E-1,-3.039052337E-2,7.237220407E-1
2.595796251E1,-6.711113453E-1,6.372846961E-1,4.543306828E-1
2.597462918E1,-6.711113453E-1,6.372846961E-1,4.543306828E-1
2.599129584E1,-1.412090302E0,-4.115701318E-1,-1.144302487E0
2.600796251E1,-1.616119146E0,-9.405790567E-1,-1.729510903E0
2.602462917E1,-1.616119146E0,-9.405790567E-1,-1.729510903E0
2.604129584E1,-8.268818259E-1,-1.143386126E0,-2.433227062E0
2.605796251E1,-8.268818259E-1,-1.143386126E0,-2.433227062E0
2.607462917E1,-3.760636151E-1,-2.000582218E-2,-1.498604059E0
2.609129584E1,-1.273424029E0,1.240208268E0,-8.895718455E-1
2.610796250E1,-1.273424029E0,1.240208268E0,-8.895718455E-1
2.612462917E1,-1.273424029E0,1.240208268E0,-8.895718455E-1
2.614129584E1,-1.273424029E0,1.240208268E0,-8.895718455E-1
2.615796250E1,-8.238275051E-1,-3.651444316E-1,2.557996213E-1
2.617462917E1,-8.238275051E-1,-3.651444316E-1,2.557996213E-1
2.619129583E1,-9.140064567E-2,-8.109229803E-2,-7.985529900E-1
2.620796250E1,6.239219904E-1,-1.029765248E0,-1.046105921E-1
2.622462917E1,1.068020701E0,-1.186146736E0,9.575305134E-2
2.624129583E1,1.068020701E0,-1.186146736E0,9.575305134E-2
2.625796250E1,1.359403253E0,-6.021599770E-1,-5.835285783E-1
2.627462916E1,1.369787931E0,-1.898262352E-1,-1.081994295E0
2.629129583E1,1.369787931E0,-1.898262352E-1,-1.081994295E0
2.630796250E1,1.369787931E0,-1.898262352E-1,-1.081994295E0
2.632462916E1,1.410104990E0,-4.860956371E-1,-1.427132845E0
2.634129583E1,1.324583888E0,-8.678861260E-1,-1.596953273E0
2.635796249E1,1.324583888E0,-8.678861260E-1,-1.596953273E0
2.637462916E1,3.227656782E-1,-1.844048023E0,-1.718515396E0
2.639129583E1,1.248454899E-1,-2.134208918E0,-1.680641770E0
2.640796249E1,-1.042288020E-1,-2.380998135E0,-1.654374480E0
2.642462916E1,-6.857720613E-1,-1.508683324E0,-1.630550861E0
2.644129582E1,-6.857720613E-1,-1.508683324E0,-1.630550861E0
2.645796249E1,-2.214155674E0,5.535961986E-1,-1.276249290E0
2.647462916E1,-2.341215611E0,9.335541129E-1,-8.352048993E-1
2.649129582E1,-2.157956123E0,8.706350327E-1,-7.252492309E-1
2.650796249E1,-2.157956123E0,8.706350327E-1,-7.252492309E-1
2.652462915E1,-2.256916285E0,9.097303748E-1,-8.370374441E-1
2.654129582E1,-2.707123518E0,1.287244797E0,-7.625119686E-1
2.655796249E1,-2.707123518E0,1.287244797E0,-7.625119686E-1
2.657462915E1,-2.416962862E0,1.057559609E0,-7.759509683E-1
2.659129582E1,-2.337550402E0,1.176067472E0,-8.321505189E-1
2.660796248E1,-2.337550402E0,1.176067472E0,-8.321505189E-1
2.662462915E1,-1.509217739E0,3.061196089E0,-1.163850069E0
2.664129582E1,-1.509217739E0,3.061196089E0,-1.163850069E0
2.665796248E1,-8.162680268E-2,2.187048674E0,-9.787580967E-1
2.667462915E1,4.797579348E-1,3.801106215E-1,-5.969675779E-1
2.669129581E1,1.234175920E0,5.505418777E-1,3.352120519E-1
2.670796248E1,1.234175920E0,5.505418777E-1,3.352120519E-1
2.672462915E1,1.234175920E0,5.505418777E-1,3.352120519E-1
2.674129581E1,2.159025192E0,7.148644924E-1,2.138484955E0
2.675796248E1,2.159025192E0,7.148644924E-1,2.138484955E0
2.677462914E1,1.796171546E0,1.546251416E0,4.326602459E0
2.679129581E1,1.257388830E0,2.306167364E0,5.266112328E0
2.680796248E1,1.944000840E0,5.071704984E-1,4.802466393E0
2.682462914E1,2.763781309E0,-1.456148863E0,3.632660151E0
2.684129581E1,2.078391075E0,-2.079841852E0,3.311956167E0
2.685796247E1,2.537379563E-1,-2.313650399E-1,2.515999317E0
2.687462914E1,-6.143009067E-1,3.594480991E0,1.776852965E0
2.689129581E1,-6.143009067E-1,3.594480991E0,1.776852965E0
2.690796247E1,-2.838230431E-1,1.617722631E0,1.750585794E0
2.692462914E1,2.940550447E-1,5.951350331E-1,1.453705430E0
2.694129580E1,6.617956161E-1,-7.131846249E-2,1.439044714E0
2.695796247E1,9.446260333E-1,-8.923207521E-1,1.431103468E0
2.697462914E1,9.715040922E-1,-1.332143426E0,1.278998137E0
2.699129580E1,8.621592522E-1,-1.507461548E0,9.802852273E-1
2.700796247E1,8.621592522E-1,-1.507461548E0,9.802852273E-1
2.702462913E1,8.621592522E-1,-1.507461548E0,9.802852273E-1
2.704129580E1,-6.643918157E-1,1.009454057E-1,3.926333487E-1
2.705796247E1,-1.239215612E0,2.982547283E-1,-2.825249545E-2
2.707462913E1,-1.239215612E0,2.982547283E-1,-2.825249545E-2
2.709129580E1,-1.805487156E0,-1.051756382E0,-2.158948898E0
2.710796246E1,-1.785328627E0,-1.420718789E0,-2.631147385E0
2.712462913E1,-1.081612468E0,-2.378554821E0,-2.490037441E0
2.714129580E1,-1.081612468E0,-2.378554821E0,-2.490037441E0
2.715796246E1,-8.061124086E-1,1.912159443E0,-1.631772518E0
2.715796246E1,-8.061124086E-1,1.912159443E0,-1.631772518E0
2.719129579E1,-1.878790975E0,-1.458439678E-1,1.036942974E-1
2.720796246E1,-7.291435003E-1,-8.061888218E-1,7.493783832E-1
2.722462913E1,-6.338485479E-1,-8.403972387E-1,1.824958473E-1
2.724129579E1,-9.734894037E-1,-1.332143426E0,-2.762635946E-1
2.725796246E1,-4.536434710E-1,5.603157282E-1,-3.379609287E-1
2.727462912E1,-4.536434710E-1,5.603157282E-1,-3.379609287E-1
2.729129579E1,1.212795615E0,-1.310763121E0,1.165224537E-1
2.730796246E1,1.303814530E0,-1.479972601E0,-6.185005978E-2
2.732462912E1,1.303814530E0,-1.479972601E0,-6.185005978E-2
2.734129579E1,1.303814530E0,-1.479972601E0,-6.185005978E-2
2.735796245E1,1.303814530E0,-1.479972601E0,-6.185005978E-2
2.737462912E1,1.460195899E0,-5.740602016E-1,-8.345940113E-1
2.739129579E1,1.460195899E0,-5.740602016E-1,-8.345940113E-1
2.740796245E1,1.501123786E0,-6.846266985E-1,-1.096044183E0
2.742462912E1,1.334357738E0,-7.542653084E-1,-1.166293621E0
2.744129578E1,7.735838890E-1,-1.407890558E0,-1.146745920E0
2.745796245E1,3.386481702E-1,-1.815948248E0,-1.275638342E0
2.747462912E1,9.063705802E-2,-1.850156665E0,-1.413082957E0
2.749129578E1,-3.886627033E-2,-1.679114580E0,-1.421024203E0
2.750796245E1,-5.666534305E-1,-9.277508855E-1,-1.281136155E0
2.752462911E1,-1.964922905E0,1.687513888E-1,-1.244484305E0
2.754129578E1,-3.143280983E0,1.122311354E0,-1.301905513E0
2.755796245E1,-3.286834240E0,1.282968760E0,-1.243873358E0
2.757462911E1,-3.027216673E0,1.129030824E0,-1.049618363E0
2.759129578E1,-3.027216673E0,1.129030824E0,-1.049618363E0
2.760796244E1,-3.027216673E0,1.129030824E0,-1.049618363E0
2.762462911E1,-3.699167967E0,1.169958711E0,-1.249371171E0
2.764129578E1,-3.291721106E0,1.613446593E0,-9.836450219E-1
2.765796244E1,-3.291721106E0,1.613446593E0,-9.836450219E-1
2.767462911E1,-1.128038168E0,4.580416679E0,-7.325795889E-1
2.769129577E1,-1.016860843E0,3.475362539E0,-8.852958083E-1
2.770796244E1,-2.508363426E-1,-1.165224537E-1,-9.793689847E-1
2.772462911E1,-2.508363426E-1,-1.165224537E-1,-9.793689847E-1
2.774129577E1,1.683161497E0,-1.249065757E0,1.330158114E-1
2.775796244E1,1.566486359E0,-1.038928270E0,4.360047281E-1
2.777462910E1,1.621464252E0,-5.264127254E-1,5.520690680E-1
2.779129577E1,1.956218123E0,2.738201320E-1,7.090612650E-1
2.780796244E1,1.956218123E0,2.738201320E-1,7.090612650E-1
2.782462910E1,2.270813465E0,1.852294683E0,2.052963734E0
2.784129577E1,2.162079573E0,2.614654064E0,3.216050386E0
2.785796243E1,2.162079573E0,2.614654064E0,3.216050386E0
2.787462910E1,4.950295389E-1,1.380096197E0,4.485427380E0
2.789129577E1,9.409608245E-1,3.898844421E-1,4.062708855E0
2.790796243E1,1.672165990E0,-5.044215918E-1,3.151909590E0
2.792462910E1,1.672165990E0,-5.044215918E-1,3.151909590E0
2.794129576E1,1.672165990E0,-5.044215918E-1,3.151909590E0
2.795796243E1,1.672165990E0,-5.044215918E-1,3.151909590E0
2.797462910E1,-2.496146262E-1,4.668534100E-1,1.923460484E0
2.799129576E1,-1.909715980E-1,4.167625010E-1,1.782961607E0
2.800796243E1,8.941533417E-2,2.597702444E-1,1.649182200E0
2.802462909E1,6.330850124E-1,-8.984293938E-1,1.336419463E0
2.804129576E1,8.591049314E-1,-1.511126757E0,1.037706494E0
2.805796243E1,7.430406213E-1,-1.608254194E0,9.631810188E-1
2.807462909E1,6.477457285E-1,-1.472642303E0,9.350812435E-1
2.809129576E1,2.494619042E-1,-1.158046961E0,8.434515595E-1
2.810796242E1,-2.654971182E-1,-5.734493136E-1,6.290380359E-1
2.812462909E1,-7.456368208E-1,-7.559451461E-2,9.208786488E-2
2.814129576E1,-9.557743073E-1,-1.409570426E-1,-3.129154742E-1
2.815796242E1,-1.283197880E0,-5.141954422E-1,-9.702059627E-1
2.817462909E1,-1.424307585E0,-1.002276421E0,-1.447291374E0
2.819129575E1,-1.424307585E0,-1.002276421E0,-1.447291374E0
2.820796242E1,-8.464295268E-1,-2.059072495E0,-1.664148331E0
2.822462909E1,-1.915824711E-1,-2.344346285E0,-1.602451086E0
2.824129575E1,-3.546833694E-1,-4.408916533E-1,-1.642768145E0
2.825796242E1,-8.885791898E-1,1.058781385E0,-3.489564955E-1
2.827462908E1,-9.991456866E-1,7.490729094E-1,8.611665964E-1
2.829129575E1,-3.815613985E-1,-1.353523612E0,1.732259750E0
2.830796242E1,-3.815613985E-1,-1.353523612E0,1.732259750E0
2.832462908E1,-3.491855860E-1,-2.061668597E-2,1.708894223E-1
2.834129575E1,-5.526035428E-1,4.601338804E-1,-4.430296719E-1
2.835796241E1,-1.286252141E0,3.941605091E-1,-1.701411128E0
2.837462908E1,-7.486911416E-1,7.857248187E-1,-1.967748165E0
2.839129575E1,-7.486911416E-1,7.857248187E-1,-1.967748165E0
2.840796241E1,6.037634611E-1,-1.113453746E0,-9.317215085E-1
2.842462908E1,6.043743491E-1,-1.757916093E0,-1.417969823E0
2.844129574E1,6.532435417E-1,-1.673616767E0,-1.772271395E0
2.845796241E1,8.957568407E-1,-1.478750944E0,-1.736230373E0
2.847462908E1,9.892191291E-1,-1.472642303E0,-1.658650637E0
2.849129574E1,1.138270140E0,-1.607643366E0,-1.594509840E0
2.850796241E1,1.138270140E0,-1.607643366E0,-1.594509840E0
2.852462907E1,3.569740951E-1,-1.018769741E0,-1.884059668E0
2.854129574E1,-3.595702946E-1,-3.633118272E-1,-1.928652883E0
2.855796241E1,-7.737365961E-1,-7.009673119E-2,-1.449734807E0
2.857462907E1,-3.571268320E-1,-8.801034093E-1,-1.294575214E0
2.859129574E1,-3.571268320E-1,-8.801034093E-1,-1.294575214E0
2.860796240E1,-2.520580888E-1,-1.242957115E0,-1.121089578E0
2.862462907E1,-1.765170097E0,1.400407553E-1,-4.802924395E-1
2.864129574E1,-1.887953997E0,5.609265566E-1,-2.823722363E-1
2.865796240E1,-1.877569199E0,8.174898028E-1,-2.652680278E-1
2.867462907E1,-2.075489521E0,1.427743673E0,-2.267835438E-1
2.869129573E1,-2.074878693E0,1.391091824E0,-3.538434207E-1
2.870796240E1,-2.055330992E0,1.056337953E0,-5.554288030E-1
2.872462907E1,-2.060217857E0,9.359975457E-1,-6.678279042E-1
2.874129573E1,-2.081598043E0,8.156571984E-1,-8.596394658E-1
2.875796240E1,-1.844582558E0,6.910407543E-1,-9.524909258E-1
2.877462906E1,-1.398651242E0,6.085740328E-1,-9.928079844E-1
2.879129573E1,-1.331456184E0,8.730784655E-1,-9.604321718E-1
2.880796240E1,-9.563851953E-1,2.055101871E0,-1.223714828E0
2.882462906E1,3.233765364E-1,2.012952089E0,-1.507156134E0
2.884129573E1,3.233765364E-1,2.012952089E0,-1.507156134E0
2.885796239E1,7.992402315E-1,7.276926637E-1,-1.356272578E0
2.887462906E1,7.186060548E-1,5.426006317E-1,-5.670352578E-1
2.889129573E1,1.487684846E0,1.000138402E0,6.962331533E-1
2.890796239E1,2.146197081E0,6.598866582E-1,1.966831923E0
2.892462906E1,2.117486477E0,4.528035223E-1,2.640004873E0
2.894129572E1,1.495626092E0,5.059487820E-1,4.380969524E0
2.895796239E1,1.495626092E0,5.059487820E-1,4.380969524E0
2.897462906E1,1.495626092E0,5.059487820E-1,4.380969524E0
2.899129572E1,2.002643824E0,-8.978185058E-1,5.209912777E0
2.900796239E1,9.354630709E-1,-1.492800832E0,4.278344154E0
2.902462905E1,1.535561383E-1,9.488257170E-1,2.836703300E0
2.904129572E1,1.535561383E-1,9.488257170E-1,2.836703300E0
2.905796239E1,-3.980547488E-1,2.375805855E0,1.895971537E0
2.907462905E1,-3.980547488E-1,2.375805855E0,1.895971537E0
2.909129572E1,8.041270971E-1,2.090684772E-1,2.190408468E0
2.910796238E1,8.041270971E-1,2.090684772E-1,2.190408468E0
2.912462905E1,1.000825524E0,-3.602575064E-1,1.209359527E0
2.914129572E1,9.159153700E-1,-1.724318504E0,9.558506608E-1
2.915796238E1,9.421825409E-1,-1.788459301E0,9.833396077E-1
2.917462905E1,9.421825409E-1,-1.788459301E0,9.833396077E-1
2.919129571E1,5.622246861E-1,-8.104648590E-1,4.384481907E-1
2.920796238E1,-5.879573524E-3,-1.385135949E-1,9.269873053E-2
2.922462905E1,-4.615846872E-1,1.064431891E-1,-2.194531709E-1
2.924129571E1,-6.784417033E-1,4.780016840E-2,-3.581194878E-1
2.925796238E1,-1.039462805E0,-2.405280024E-1,-6.214022040E-1
2.927462904E1,-1.355890751E0,-6.272054315E-1,-6.818777919E-1
2.929129571E1,-1.518991590E0,-1.357188821E0,-6.134609580E-1
2.930796238E1,-1.269147992E0,-1.750585794E0,-6.623301506E-1
2.932462904E1,-5.617665052E-1,-1.514791965E0,-6.189587116E-1
2.934129571E1,-4.579195082E-1,1.039997265E-1,-2.671006322E-1
2.935796237E1,-4.579195082E-1,1.039997265E-1,-2.671006322E-1
2.935796237E1,-2.141844630E-1,-4.744892120E-1,1.174540281E0
2.939129571E1,-1.628718227E-1,-2.294255495E0,6.980656981E-1
2.940796237E1,-9.722676277E-1,-1.715766430E0,7.823650837E-1
2.942462904E1,-9.722676277E-1,-1.715766430E0,7.823650837E-1
2.944129570E1,-9.563851953E-1,6.770977974E0,-1.629939914E0
2.945796237E1,9.185878932E-2,-6.797397733E-1,-1.477834582E0
2.947462904E1,9.843322635E-1,-1.986379504E0,-1.020907760E0
2.949129570E1,1.039310098E0,-1.443320751E0,-8.889609575E-1
2.950796237E1,1.057025194E0,-1.162933826E0,-8.645263910E-1
2.952462903E1,1.196302295E0,-4.854847789E-1,-1.291520834E0
2.954129570E1,1.196302295E0,-4.854847789E-1,-1.291520834E0
2.955796237E1,1.196302295E0,-4.854847789E-1,-1.291520834E0
2.957462903E1,6.856193542E-1,-4.769326746E-1,-2.154062033E0
2.959129570E1,3.178787529E-1,-2.133597851E0,-1.832136154E0
2.960796236E1,-1.341611743E-1,-2.485455990E0,-2.056323528E0
2.962462903E1,-1.341611743E-1,-2.485455990E0,-2.056323528E0
2.964129570E1,-1.066951752E0,-1.530674458E0,-2.295782566E0
2.965796236E1,-9.179006815E-1,-2.059072495E0,-2.128405571E0
2.967462903E1,-1.095051527E0,-2.547764301E0,-1.982408881E0
2.969129569E1,-2.002796650E0,-1.950338483E0,-1.679419994E0
2.970796236E1,-2.269133568E0,-1.429270864E0,-1.355661631E0
2.972462903E1,-2.405967236E0,-3.999637067E-1,-6.562215090E-1
2.974129569E1,-2.405967236E0,-3.999637067E-1,-6.562215090E-1
2.975796236E1,-2.405967236E0,-3.999637067E-1,-6.562215090E-1
2.977462902E1,-2.626489401E0,2.320827961E0,-8.095485568E-1
2.979129569E1,-2.717508316E0,2.536463261E0,-6.763800383E-1
2.980796236E1,-3.121289968E0,3.041037560E0,-9.030108452E-1
2.982462902E1,-3.025384188E0,3.242012024E0,-1.366657257E0
2.984129569E1,-2.616715670E0,4.014756203E0,-2.231030941E0
2.985796235E1,-2.616715670E0,4.014756203E0,-2.231030941E0
2.987462902E1,2.653443813E-1,7.223475724E-2,-1.000749230E0
2.989129569E1,1.689270139E0,-1.258228779E0,-3.568977416E-1
2.990796235E1,3.671526432E0,-1.012050271E0,9.210313559E-1
2.992462902E1,3.671526432E0,-1.012050271E0,9.210313559E-1
2.994129568E1,3.192608356E0,-1.406668901E0,3.489717722E0
2.995796235E1,2.852356672E0,-9.198096395E-1,4.352869511E0
2.997462902E1,2.444298983E0,3.898844421E-1,5.325977325E0
2.999129568E1,3.122969866E0,-8.727730513E-1,4.824457169E0
3.000796235E1,2.787605047E0,-1.729816318E0,4.722443104E0
3.002462901E1,1.691713691E0,-8.116865754E-1,4.774366379E0
3.004129568E1,3.038288653E-1,3.072802544E0,3.335779905E0
3.005796235E1,-1.115210056E0,5.348273754E0,2.620457172E0
3.007462901E1,-1.865962863E0,1.565799117E0,2.676656723E0
3.009129568E1,-5.538252592E-1,3.727802336E-1,2.742630243E0
3.010796234E1,1.124831080E0,-2.643517256E-1,2.290590286E0
3.012462901E1,8.059597015E-1,-8.781181276E-2,1.357799649E0
3.014129568E1,5.426769853E-1,-8.422298431E-1,9.674571157E-1
3.015796234E1,6.453022957E-1,-1.351691008E0,8.403972387E-1
3.017462901E1,7.015018463E-1,-2.401156664E0,7.634282708E-1
3.019129567E1,5.842158198E-1,-2.181245327E0,7.609847784E-1
3.020796234E1,1.926514804E-1,-1.177594543E0,6.327031851E-1
3.022462901E1,-2.603811212E-2,-5.978838801E-1,5.380191803E-1
3.024129567E1,-2.893208265E-1,-1.348484010E-1,1.660024971E-1
3.025796234E1,-7.774018049E-1,-2.893971801E-1,-5.053378940E-1
3.027462900E1,-7.774018049E-1,-2.893971801E-1,-5.053378940E-1
3.029129567E1,-2.304563761E0,-1.937510371E0,-1.268918872E0
3.030796234E1,-5.324450135E-1,-1.609475970E0,-4.265363216E-1
3.032462900E1,-1.290528178E0,-8.568905592E-1,1.427438259E0
3.034129567E1,-1.290528178E0,-8.568905592E-1,1.427438259E0
3.035796233E1,-1.407203436E0,3.058752775E0,9.880737960E-2
3.037462900E1,-1.206839681E0,-1.152549148E0,2.802342176E-1
3.039129567E1,-7.309760451E-1,2.147953272E0,3.877464235E-1
3.040796233E1,-7.309760451E-1,2.147953272E0,3.877464235E-1
3.042462900E1,8.529962897E-1,1.193171620E0,-1.087491989E0
3.044129566E1,8.529962897E-1,1.193171620E0,-1.087491989E0
3.045796233E1,1.626351118E0,-1.297934890E0,-7.221949100E-1
3.047462900E1,1.449200273E0,-1.308930516E0,-6.574432254E-1
3.049129566E1,9.879974127E-1,-8.862120509E-1,-9.946405888E-1
3.050796233E1,5.988765359E-1,-2.753472924E-1,-1.682474375E0
3.052462899E1,3.936260045E-1,-1.629481763E-1,-1.827249289E0
3.054129566E1,3.300960660E-1,-2.301433086E-1,-1.714239240E0
3.055796233E1,3.148244321E-1,-4.427242577E-1,-1.554803610E0
3.057462899E1,2.940550447E-1,-7.377719283E-1,-1.631772518E0
3.059129566E1,-7.429642975E-2,-9.589049816E-1,-1.915213823E0
3.060796232E1,-2.691622972E-1,-1.252120137E0,-1.991571903E0
3.062462899E1,-3.723984361E-1,-2.401156664E0,-1.860235929E0
3.064129566E1,-5.440514684E-1,-3.660759926E0,-1.695302486E0
3.065796232E1,-8.256601095E-1,-3.485441685E0,-1.590233684E0
3.067462899E1,-1.084055901E0,-2.997360706E0,-1.513875604E0
3.069129565E1,-1.588019371E0,-1.961334109E0,-1.414915562E0
3.070796232E1,-2.916039467E0,-2.417497337E-1,-1.415526390E0
3.072462899E1,-4.509785652E0,2.089310169E0,-1.437517524E0
3.074129565E1,-4.399219036E0,2.548680544E0,-1.478445530E0
3.075796232E1,-3.456043959E0,2.789972067E0,-1.495549679E0
3.077462898E1,-3.090746641E0,3.100902319E0,-1.656207085E0
3.079129565E1,-3.090746641E0,3.100902319E0,-1.656207085E0
3.080796232E1,-3.898920774E0,5.971966743E0,-2.086866856E0
3.082462898E1,-2.072435141E0,7.072745323E0,-1.459508657E0
3.084129565E1,-1.811977625E-1,-5.062541962E-1,-1.066111803E0
3.085796231E1,-1.811977625E-1,-5.062541962E-1,-1.066111803E0
3.087462898E1,3.482769251E0,-1.723707676E0,-2.811505198E-1
3.089129565E1,2.744233608E0,-3.333794475E-1,1.299156666E0
3.090796231E1,2.970253706E0,-8.886555433E-1,1.881921649E0
3.092462898E1,2.970253706E0,-8.886555433E-1,1.881921649E0
3.094129564E1,2.493168354E0,5.468766689E-1,3.681529284E0
3.095796231E1,1.641011834E0,2.221256971E0,5.369348526E0
3.097462898E1,1.984928727E0,6.110175252E-1,5.386452675E0
3.099129564E1,1.984928727E0,6.110175252E-1,5.386452675E0
3.100796231E1,1.201800108E0,-1.038928270E0,5.030929565E0
3.102462897E1,4.064541459E-1,1.891390085E0,3.444513798E0
3.104129564E1,1.071304083E-1,3.878533125E0,2.340070248E0
3.105796231E1,-1.109483168E-1,3.322035313E0,2.347400665E0
3.107462897E1,-4.444804788E-1,9.921970963E-1,2.441473722E0
3.109129564E1,-2.966512144E-1,2.255618125E-1,1.970497012E0
3.110796230E1,2.103665620E-1,4.894554019E-1,1.665675521E0
3.112462897E1,3.270417452E-1,1.571449637E-1,1.506239772E0
3.114129564E1,6.575195789E-1,-1.106734276E0,1.165377259E0
3.115796230E1,6.575195789E-1,-1.106734276E0,1.165377259E0
3.117462897E1,3.844630122E-1,-1.614362955E0,8.239038587E-1
3.119129563E1,1.254563481E-1,-1.057865024E0,8.544471264E-1
3.120796230E1,-1.512653977E-1,-1.079703495E-1,5.673406720E-1
3.122462897E1,-4.304305911E-1,3.544542789E-1,1.525634825E-1
3.124129563E1,-8.439860344E-1,1.070540547E-1,-4.534143806E-1
3.125796230E1,-1.206228852E0,-1.586721241E-1,-8.089376688E-1
3.127462896E1,-1.925216675E0,-1.361464858E0,-1.706297994E0
3.129129563E1,-1.885281354E-1,-1.699883938E0,-1.746004224E0
3.130796230E1,-1.885281354E-1,-1.699883938E0,-1.746004224E0
3.132462896E1,-1.201952815E0,3.275762498E-1,4.683805704E-1
3.134129563E1,-8.164971471E-1,4.068511963E0,-6.734783947E-2
3.135796229E1,-1.432859659E0,-8.898772597E-1,1.391244531E-1
3.137462896E1,-1.432859659E0,-8.898772597E-1,1.391244531E-1
3.139129563E1,-9.795980453E-1,1.756388903E0,6.473639607E-1
3.140796229E1,1.847102344E-1,2.794859171E0,-7.509055138E-1
3.142462896E1,1.942779064E0,8.339831233E-1,-1.320842385E0
3.144129562E1,1.942779064E0,8.339831233E-1,-1.320842385E0
3.145796229E1,2.214613914E0,-1.693775296E0,-3.233001828E-1
3.147462896E1,1.623296738E0,-1.549000382E0,-5.713112950E-1
3.149129562E1,1.097953081E0,-1.071915030E0,-1.290910006E0
3.150796229E1,8.206204772E-1,-6.540834904E-1,-1.756388903E0
3.152462895E1,6.740128994E-1,-5.282453299E-1,-1.777158380E0
3.154129562E1,4.363865256E-1,-4.885390997E-1,-1.618944407E0
3.155796229E1,4.363865256E-1,-4.885390997E-1,-1.618944407E0
3.157462895E1,4.363865256E-1,-4.885390997E-1,-1.618944407E0
3.159129562E1,4.363865256E-1,-4.885390997E-1,-1.618944407E0
3.160796228E1,-2.298378758E-2,-1.472031355E0,-1.856570840E0
3.162462895E1,-3.846157491E-1,-2.362672329E0,-1.551749229E0
3.164129562E1,-3.846157491E-1,-2.362672329E0,-1.551749229E0
3.165796228E1,-9.850957990E-1,-2.694982767E0,-1.273805737E0
3.167462895E1,-1.411479473E0,-2.632674456E0,-1.309846759E0
3.169129561E1,-2.512257814E0,-1.858708858E0,-1.430187106E0
3.170796228E1,-3.512854338E0,-8.562797308E-1,-1.443015337E0
3.172462895E1,-4.296593666E0,6.977602839E-1,-1.389870048E0
3.174129561E1,-3.736430883E0,1.364824653E0,-1.397200465E0
3.175796228E1,-3.736430883E0,1.364824653E0,-1.397200465E0
3.177462894E1,-3.605705738E0,3.452149630E0,-1.211497545E0
3.179129561E1,-3.409007311E0,5.238317966E0,-1.292131782E0
3.180796228E1,-2.495153666E0,7.081297398E0,-1.301905513E0
3.182462894E1,-1.311908484E0,3.325089693E0,-1.282357931E0
3.184129561E1,-6.207913160E-2,1.534797698E-1,-1.143691540E0
3.185796227E1,2.523711443E0,-2.553261995E0,-6.024653912E-1
3.187462894E1,2.670319080E0,-9.876156449E-1,3.113883138E-1
3.189129561E1,2.389932156E0,-6.015490890E-1,9.741765857E-1
3.190796227E1,2.396651506E0,-8.214604259E-1,1.016326308E0
3.192462894E1,2.338619471E0,-5.905535221E-1,1.622304082E0
3.194129560E1,2.372216940E0,3.947713673E-1,2.904509306E0
3.195796227E1,2.020969868E0,2.196822405E0,4.657691002E0
3.197462894E1,1.808999658E0,2.614042997E0,5.270999432E0
3.199129560E1,1.526169300E0,6.110175252E-1,5.296044827E0
3.200796227E1,1.211573958E0,-1.461035848E0,4.572170258E0
3.202462893E1,1.211573958E0,-1.461035848E0,4.572170258E0
3.204129560E1,-2.190713882E-1,1.159574032E0,3.337001562E0
3.205796227E1,-9.384410083E-2,3.657400131E0,2.406043768E0
3.207462893E1,-9.384410083E-2,3.657400131E0,2.406043768E0
3.209129560E1,-1.934150606E-1,3.367392123E-1,2.056018114E0
3.210796226E1,8.781181648E-3,-6.398808211E-2,1.963777542E0
3.212462893E1,3.465894163E-1,-2.851211429E-1,1.997985959E0
3.214129560E1,7.253255844E-1,-1.034041405E0,1.571602345E0
3.215796226E1,7.253255844E-1,-1.034041405E0,1.571602345E0
3.217462893E1,7.173843384E-1,-2.610072374E0,9.405790567E-1
3.219129559E1,4.919752181E-1,-1.858708858E0,8.996511102E-1
3.220796226E1,4.919752181E-1,-1.858708858E0,8.996511102E-1
3.222462893E1,-6.582831740E-1,2.945895493E-1,2.301433086E-1
3.224129559E1,-7.554106712E-1,4.454731345E-1,9.941824526E-2
3.225796226E1,-1.144531488E0,1.418733448E-1,-5.004509687E-1
3.227462892E1,-1.752341986E0,-6.314814687E-1,-1.585957646E0
3.229129559E1,-1.889786601E0,-1.065195441E0,-2.226144075E0
3.230796226E1,1.957058012E-1,-1.709046960E0,-2.268904448E0
3.232462892E1,1.957058012E-1,-1.709046960E0,-2.268904448E0
3.234129559E1,-1.289917350E0,2.573725939E0,-1.224325776E0
3.235796225E1,-1.507996082E0,3.986656189E0,-1.011744738E0
3.237462892E1,-2.240422964E0,1.286023021E0,-5.810851455E-1
3.239129559E1,-1.880012751E0,-9.320269227E-1,5.325213671E-1
3.240796225E1,-1.270369649E0,1.249371171E0,7.029526234E-1
3.242462892E1,-8.219949007E-1,2.014784813E0,5.604684353E-2
3.244129558E1,-8.219949007E-1,2.014784813E0,5.604684353E-2
3.245796225E1,1.442480803E0,-1.725540280E0,-9.402735829E-1
3.247462892E1,1.442480803E0,-1.725540280E0,-9.402735829E-1
3.249129558E1,1.697822332E0,-2.129932880E0,-2.701549530E-1
3.250796225E1,1.594586134E0,-1.332143426E0,-4.900662601E-1
3.252462891E1,1.594586134E0,-1.332143426E0,-4.900662601E-1
3.254129558E1,1.130328894E0,-2.802342176E-1,-1.364213824E0
3.255796225E1,1.038088322E0,-2.851211429E-1,-1.385594010E0
3.257462891E1,8.316160440E-1,-5.398517251E-1,-1.344666123E0
3.259129558E1,8.316160440E-1,-5.398517251E-1,-1.344666123E0
3.260796224E1,8.880446851E-2,-9.747874737E-1,-1.673922181E0
3.262462891E1,-6.391172856E-2,-1.199585676E0,-1.668424487E0
3.264129558E1,-2.141844630E-1,-1.801287532E0,-1.506545305E0
3.265796224E1,-2.141844630E-1,-1.801287532E0,-1.506545305E0
3.267462891E1,-1.897498667E-1,-2.192240953E0,-1.500436664E0
3.269129557E1,-4.243219495E-1,-2.070068121E0,-1.480888963E0
3.270796224E1,-1.606956124E0,-1.535561323E0,-1.321453214E0
3.272462891E1,-1.606956124E0,-1.535561323E0,-1.321453214E0
3.274129557E1,-3.385794401E0,5.083922148E-1,-1.260977626E0
3.275796224E1,-3.096855402E0,6.116283536E-1,-1.303738117E0
3.277462890E1,-2.760268927E0,9.940297008E-1,-1.355050802E0
3.279129557E1,-3.336925268E0,2.429561853E0,-1.375209332E0
3.280796224E1,-3.336925268E0,2.429561853E0,-1.375209332E0
3.282462890E1,-2.882441759E0,2.987892389E0,-1.340390086E0
3.284129557E1,-2.882441759E0,2.987892389E0,-1.340390086E0
3.285796223E1,-1.487837553E0,5.210829258E0,-1.098487616E0
3.287462890E1,-1.487837553E0,5.210829258E0,-1.098487616E0
3.289129557E1,9.507346749E-1,-1.541669965E0,-5.419898033E-1
3.290796223E1,2.215224743E0,-1.087797403E0,3.352120519E-1
3.292462890E1,2.188346624E0,-2.802342176E-1,1.114675522E0
3.294129556E1,2.349615097E0,-1.690568328E-1,1.100014806E0
3.295796223E1,2.717966557E0,2.634354234E-1,1.486081243E0
3.297462890E1,2.717966557E0,2.634354234E-1,1.486081243E0
3.299129556E1,1.785786867E0,2.669631720E0,4.415177822E0
3.300796223E1,1.360014081E0,2.645197153E0,5.121337414E0
3.302462889E1,1.579314470E0,7.956513762E-2,5.152491570E0
3.304129556E1,2.152305603E0,-2.194684505E0,4.316217899E0
3.305796223E1,2.152305603E0,-2.194684505E0,4.316217899E0
3.307462889E1,1.706603467E-1,-2.428187430E-2,3.402975082E0
3.309129556E1,-9.429461360E-1,2.656803608E0,2.057850838E0
3.310796222E1,-1.043128014E0,2.981172800E0,2.054185629E0
3.312462889E1,-1.043128014E0,2.981172800E0,2.054185629E0
3.314129556E1,5.823832154E-1,1.272125840E-1,2.247829676E0
3.315796222E1,3.435350657E-1,-7.976366878E-1,1.640630126E0
3.317462889E1,6.624065042E-1,-1.004109025E0,1.030376196E0
3.319129555E1,6.624065042E-1,-1.004109025E0,1.030376196E0
3.320796222E1,5.322923064E-1,-1.908188820E0,5.398517251E-1
3.322462889E1,2.195295244E-1,-1.231961489E0,3.755291104E-1
3.324129555E1,2.195295244E-1,-1.231961489E0,3.755291104E-1
3.325796222E1,2.195295244E-1,-1.231961489E0,3.755291104E-1
3.327462888E1,-8.885791898E-1,1.058170557E0,-9.361502528E-2
3.329129555E1,-1.214170098E0,8.474221826E-1,-4.967857897E-1
3.330796222E1,-1.424918413E0,1.143844277E-1,-1.293353438E0
3.332462888E1,-1.323514938E0,-5.850557685E-1,-2.399018764E0
3.334129555E1,-4.102720618E-1,-1.343138933E0,-2.355647326E0
3.335796221E1,-4.102720618E-1,-1.343138933E0,-2.355647326E0
3.337462888E1,-4.102720618E-1,-1.343138933E0,-2.355647326E0
3.339129555E1,-4.102720618E-1,-1.343138933E0,-2.355647326E0
3.340796221E1,-1.154916167E0,-4.775435328E-1,1.007163286E0
3.342462888E1,-1.154916167E0,-4.775435328E-1,1.007163286E0
3.344129554E1,-1.217835307E0,3.831649423E-1,9.827287197E-1
3.345796221E1,-1.217835307E0,3.831649423E-1,9.827287197E-1
3.347462888E1,-2.001345754E-1,2.504087448E0,-2.091753721E0
3.349129554E1,-2.001345754E-1,2.504087448E0,-2.091753721E0
3.350796221E1,1.923842311E0,-1.943619013E0,-7.069232464E-1
3.352462887E1,1.725311160E0,-2.306472778E0,-6.482802629E-1
3.354129554E1,1.725311160E0,-2.306472778E0,-6.482802629E-1
3.355796221E1,1.019762397E0,-2.317468166E0,-1.433241487E0
3.357462887E1,9.574542046E-1,-2.360228777E0,-1.818086267E0
3.359129554E1,9.727258086E-1,-2.434143543E0,-1.854127288E0
3.360796220E1,1.168202519E0,-2.372446060E0,-1.865733743E0
3.362462887E1,1.249447584E0,-2.016922712E0,-1.780823588E0
