"Time (s)","Acceleration x (m/s^2)","Acceleration y (m/s^2)","Acceleration z (m/s^2)"
7.090109000E-3,1.088734269E0,3.289233923E0,9.483653069E0
2.143359900E-2,1.172483087E0,3.225524902E0,9.597611427E0
3.810026500E-2,1.142871857E0,3.168097258E0,9.949356079E0
5.476693100E-2,1.142871857E0,3.168097258E0,9.949356079E0
7.143359700E-2,1.142871857E0,3.168097258E0,9.949356079E0
8.810026300E-2,1.142871857E0,3.168097258E0,9.949356079E0
1.047669290E-1,1.142871857E0,3.168097258E0,9.949356079E0
1.214335950E-1,1.142871857E0,3.168097258E0,9.949356079E0
1.381002610E-1,1.142871857E0,3.168097258E0,9.949356079E0
1.547669270E-1,1.088734269E0,2.524427891E0,1.019970608E1
1.714335930E-1,1.185942769E0,2.251646042E0,1.004417229E1
1.881002590E-1,1.437189102E0,2.102393866E0,1.000289631E1
2.047669250E-1,1.437189102E0,2.102393866E0,1.000289631E1
2.214335910E-1,2.085045815E0,1.841576099E0,1.035135078E1
2.381002570E-1,2.085045815E0,1.841576099E0,1.035135078E1
2.547669230E-1,2.085045815E0,1.841576099E0,1.035135078E1
2.714335890E-1,3.184846878E0,1.639083505E0,9.835996628E0
2.881002550E-1,3.275774240E0,1.585544109E0,9.122337341E0
3.047669210E-1,3.236591816E0,1.473978758E0,8.251948357E0
3.214335870E-1,3.038884640E0,1.319342613E0,7.552645683E0
3.381002530E-1,3.038884640E0,1.319342613E0,7.552645683E0
3.547669190E-1,2.925524712E0,1.075274706E0,8.705986023E0
3.714335850E-1,2.925524712E0,1.075274706E0,8.705986023E0
3.881002510E-1,3.893122435E0,1.221835017E0,1.091515923E1
4.047669170E-1,3.893122435E0,1.221835017E0,1.091515923E1
4.214335830E-1,3.652344704E0,1.805085540E0,9.365508080E0
4.381002490E-1,3.652344704E0,1.805085540E0,9.365508080E0
4.547669150E-1,3.652344704E0,1.805085540E0,9.365508080E0
4.714335810E-1,3.652344704E0,1.805085540E0,9.365508080E0
4.881002470E-1,2.687139750E0,1.019342422E0,9.907182693E0
5.047669130E-1,2.427817583E0,4.944169819E-1,9.040981293E0
5.214335790E-1,2.755036116E0,4.043870270E-1,8.748159409E0
5.381002450E-1,2.755036116E0,4.043870270E-1,8.748159409E0
5.547669110E-1,5.460421085E0,1.399801254E0,8.156234741E0
5.714335770E-1,5.460421085E0,1.399801254E0,8.156234741E0
5.881002430E-1,5.460421085E0,1.399801254E0,8.156234741E0
6.047669090E-1,5.021637440E0,-4.004986882E-1,5.225027561E0
6.214335750E-1,5.876772404E0,-1.603191197E-1,1.007139015E1
6.381002410E-1,6.317949295E0,-6.302096844E-1,1.306391430E1
6.547669070E-1,6.317949295E0,-6.302096844E-1,1.306391430E1
6.714335730E-1,6.317949295E0,-6.302096844E-1,1.306391430E1
6.881002390E-1,4.952245712E0,-2.105683982E-1,3.074777126E0
7.047669050E-1,4.488038063E0,-1.977069676E-1,4.100400925E0
7.214335710E-1,4.028017998E0,-6.637091637E-1,3.652344704E0
7.381002370E-1,5.962913990E0,-3.627519131E0,5.604887962E0
7.547669030E-1,5.962913990E0,-3.627519131E0,5.604887962E0
7.714335690E-1,5.962913990E0,-3.627519131E0,5.604887962E0
7.881002350E-1,5.511568069E0,-7.715955734E0,7.411468983E0
8.047669010E-1,5.511568069E0,-7.715955734E0,7.411468983E0
8.214335670E-1,3.436093330E0,-1.253839111E1,6.532405853E0
8.381002330E-1,3.249453068E0,-1.406650734E1,6.135197163E0
8.547668990E-1,3.249453068E0,-1.406650734E1,6.135197163E0
8.714335650E-1,3.249453068E0,-1.406650734E1,6.135197163E0
8.881002310E-1,1.525723577E0,-1.124626637E1,5.703591824E0
9.047668970E-1,3.421736360E-1,-1.036331463E1,4.019941807E0
9.214335630E-1,-1.373480201E0,-1.004746246E1,3.706482172E0
9.381002290E-1,-3.754338741E0,-9.789037704E0,2.206182480E0
9.547668950E-1,-2.289931297E0,-9.425328255E0,8.997012973E-1
9.714335610E-1,-1.753939033E0,-6.790830612E0,-2.878565550E0
9.881002270E-1,-2.055434704E0,-6.410371780E0,-3.208775282E0
1.004766893E0,-4.417150497E0,-5.941378593E0,-5.431707501E-1
1.021433559E0,-7.448856831E0,-7.477570534E0,6.245267391E-1
1.038100225E0,-8.640482903E0,-8.731410027E0,6.508477330E-1
1.054766891E0,-8.219346046E0,-8.647661209E0,1.012163997E0
1.071433557E0,-5.659025669E0,-7.707281590E0,2.136790514E0
1.088100223E0,-3.192025423E0,-6.463014126E0,2.749353170E0
1.104766889E0,-3.515056372E0,-7.829315662E0,1.574477315E0
1.121433555E0,-3.821337700E0,-8.458627701E0,1.119840980E0
1.138100221E0,-3.986442566E0,-6.951149940E0,3.108276606E0
1.154766887E0,-4.979464054E0,-8.348558426E0,-3.737588882E0
1.171433553E0,-1.579262972E0,-7.444071293E0,-6.364908218E-1
1.188100219E0,-1.679761529E0,-8.647661209E0,1.598405480E0
1.204766885E0,-1.679761529E0,-8.647661209E0,1.598405480E0
1.221433551E0,-1.679761529E0,-8.647661209E0,1.598405480E0
1.238100217E0,-1.679761529E0,-8.647661209E0,1.598405480E0
1.254766883E0,-1.679761529E0,-8.647661209E0,1.598405480E0
1.271433549E0,-8.523234367E0,-4.847858906E0,-1.122233868E0
1.288100215E0,-7.503891945E0,-7.032505512E0,-1.497906923E0
1.304766881E0,-9.533005714E0,-5.450850010E0,-9.188438654E-1
1.321433547E0,-9.444471359E0,-5.898307800E0,3.318845034E0
1.338100213E0,-4.893322468E0,-7.018148899E0,3.876372576E0
1.354766879E0,-5.804987907E0,-5.091926575E0,1.205982566E0
1.371433545E0,-5.570491314E0,-4.012763500E0,-6.747759581E-1
1.388100211E0,-6.666403770E0,-4.299902439E0,-1.217946768E0
1.404766877E0,-4.409972191E0,-3.060420275E0,1.363908947E-1
1.421433543E0,-3.866801500E0,-2.742174864E0,-4.857429862E-1
1.438100209E0,-4.242474556E0,-2.177468538E0,-3.206382394E-1
1.454766875E0,-5.228317261E0,-1.689332843E0,1.950150490E0
1.471433541E0,-6.491727829E0,-1.536192179E0,5.807380676E0
1.488100207E0,-6.491727829E0,-1.536192179E0,5.807380676E0
1.504766873E0,-4.642076015E0,6.699903309E-2,2.105683982E-1
1.521433539E0,-4.869394302E0,1.191625714E0,-1.459621787E-1
1.538100205E0,-6.218945980E0,2.254039049E0,-5.503492355E-1
1.554766871E0,-7.439285755E0,4.857429862E-1,2.933600664E0
1.571433537E0,-8.190631866E0,-5.072783828E-1,3.763910055E0
1.588100203E0,-1.004746246E1,-1.837687731E0,4.335794449E0
1.604766869E0,-9.135796547E0,-1.253839016E0,1.395015597E0
1.621433535E0,-9.619147301E0,2.871387079E-2,-1.383051515E0
1.638100201E0,-1.008335495E1,8.111668825E-1,-9.571290612E-1
1.654766867E0,-1.305284786E1,3.629911900E0,2.206182480E0
1.671433533E0,-1.577827263E1,5.134997368E0,5.532206059E0
1.688100199E0,-1.667558098E1,4.852644444E0,5.225924492E0
1.704766865E0,-1.562513161E1,4.766502857E0,5.814558983E0
1.721433531E0,-1.441197109E1,4.094119549E0,4.943571568E0
1.738100197E0,-1.330409431E1,4.510470867E0,4.019941807E0
1.754766863E0,-1.331845093E1,5.362315655E0,3.510270834E0
1.771433529E0,-1.372762394E1,6.171089649E0,3.658625841E0
1.788100195E0,-1.535474300E1,7.853243828E0,4.106083870E0
1.804766861E0,-1.714696693E1,7.767102242E0,2.775674343E0
1.821433527E0,-1.714696693E1,7.767102242E0,2.775674343E0
1.838100193E0,-1.680957985E1,8.736195564E0,1.868794441E0
1.854766859E0,-1.610848236E1,8.829515457E0,1.978864312E0
1.871433525E0,-1.516810226E1,6.920042992E0,4.460221291E0
1.888100191E0,-1.516810226E1,6.920042992E0,4.460221291E0
1.904766857E0,-1.302891922E1,3.220739365E0,5.161318302E0
1.921433523E0,-7.144968510E0,4.945964336E0,3.988835335E0
1.938100189E0,-4.496113777E0,8.886942863E0,1.895115495E0
1.954766855E0,-6.161518097E0,8.252845764E0,-4.067798555E-1
1.971433521E0,-5.709274769E0,8.260024071E0,4.737788737E-1
1.988100187E0,-6.781259537E0,5.422136307E0,5.718846321E-1
2.004766853E0,-6.228517532E0,1.605584025E0,-3.661018610E-1
2.021433519E0,-6.329015732E0,4.630111694E0,-1.016949654E0
2.038100185E0,-7.030112743E0,4.929214478E0,-3.802195072E0
2.054766851E0,-1.089212894E1,2.830709219E0,-5.400600910E0
2.071433517E0,-1.089212894E1,2.830709219E0,-5.400600910E0
2.088100183E0,-9.571290970E0,4.108476639E0,-4.192225456E0
2.104766849E0,-5.465207100E0,2.184647083E0,-5.730810165E0
2.121433515E0,-4.500899315E0,6.532405615E-1,-3.783052683E0
2.138100181E0,-4.304687977E0,1.663011789E0,-5.407779217E-1
2.154766847E0,-4.390829563E0,1.538584948E0,4.402793646E-1
2.171433513E0,-5.496313572E0,-1.229910851E0,2.703889608E-1
2.188100179E0,-3.220739365E0,-9.188438654E-1,-7.417750359E-1
2.204766845E0,-1.115055323E0,9.068797827E-1,-2.072184324E0
2.221433511E0,-1.966900229E0,1.454836130E0,-3.292523861E0
2.238100177E0,-5.807380676E0,3.900300980E0,-3.902693748E0
2.254766843E0,-5.807380676E0,3.900300980E0,-3.902693748E0
2.271433509E0,-1.210528946E1,3.481556892E0,-1.727617979E0
2.288100175E0,-1.171525955E1,1.004985452E0,-3.467200041E0
2.304766841E0,-9.126225471E0,-2.610569477E0,-5.431707501E-1
2.321433507E0,-1.097587776E1,3.984049797E0,-9.667003751E-1
2.338100173E0,-1.046859932E1,7.180860519E0,-9.059226990E0
2.354766839E0,-9.724431038E0,7.444071293E0,-9.573683739E0
2.371433505E0,-6.601797581E0,1.000439167E1,-3.850051641E0
2.388100171E0,-8.461020470E0,8.889336586E0,-5.778666496E0
2.404766837E0,-1.064566803E1,8.647661209E0,-6.999006271E0
2.421433503E0,-1.155494022E1,8.918049812E0,-5.632704735E0
2.438100169E0,-1.205743313E1,8.506484032E0,-5.170889854E0
2.454766835E0,-1.159083271E1,6.683153629E0,-5.644668579E0
2.471433501E0,-1.043509960E1,6.654439926E0,-5.663811207E0
2.488100167E0,-9.690931320E0,6.762116909E0,-6.302694798E0
2.504766833E0,-8.336593628E0,7.401000500E0,-4.067798615E0
2.521433499E0,-6.970292568E0,8.408378601E0,-7.152146816E0
2.538100165E0,-6.970292568E0,8.408378601E0,-7.152146816E0
2.554766831E0,-8.547162056E0,2.727817774E0,-4.651647091E0
2.571433497E0,-7.453642368E0,6.245267391E-1,-1.464407444E0
2.588100163E0,-7.453642368E0,6.245267391E-1,-1.464407444E0
2.604766829E0,-7.831708431E0,1.636690736E0,1.043270707E0
2.621433495E0,-6.565905571E0,7.130611539E-1,1.526620865E0
2.638100161E0,-5.486742496E0,6.436693072E-1,1.052842021E0
2.654766827E0,-7.369893551E0,5.790630579E-1,1.749153376E0
2.671433493E0,-7.587640762E0,-7.896314561E-2,8.327022791E-1
2.688100159E0,-4.565505505E0,6.699903607E-1,-2.036292076E0
2.704766825E0,-3.213560820E0,3.677768469E0,-2.758924484E0
2.721433491E0,-5.737988472E0,4.675575256E0,-2.289931297E0
2.738100157E0,-7.037291527E0,2.723032236E0,-2.143969059E0
2.754766823E0,-6.888936520E0,3.718446493E0,1.071984529E0
2.771433489E0,-9.044869423E0,3.720839262E0,2.553141832E0
2.788100155E0,-1.050688457E1,3.206382275E0,3.251846075E0
2.788100155E0,-1.050688457E1,3.206382275E0,3.251846075E0
2.821433487E0,-8.446663857E0,2.141576290E0,-3.967299938E0
2.838100153E0,-6.833901405E0,1.615155339E0,-4.476971149E0
2.854766819E0,-6.865008354E0,3.948157430E-1,-2.555534601E0
2.871433485E0,-6.195017815E0,2.309073925E0,-6.867401004E-1
2.888100151E0,-7.657032490E0,4.517649174E0,-4.465006828E0
2.904766817E0,-9.348757744E0,6.905686378E0,-4.972285271E0
2.921433483E0,-1.036331463E1,3.031706333E0,-7.058826923E0
2.938100149E0,-1.004028416E1,3.431307554E0,-3.620340586E0
2.954766815E0,-1.001635551E1,3.120240688E0,-6.195017815E0
2.971433481E0,-1.041595650E1,6.532405615E-1,-7.125825882E0
2.988100147E0,-1.179900837E1,5.197210789E0,4.670789719E0
3.004766813E0,-1.211725426E1,8.626125336E0,9.260223508E-1
3.021433479E0,-1.034417248E1,1.140419292E1,-3.806980848E0
3.038100145E0,-1.181815147E1,6.178267956E0,-9.044869542E-1
3.054766811E0,-7.953742504E0,7.697710514E0,4.692325115E0
3.071433477E0,-7.865208149E0,6.908079147E0,2.847458839E0
3.088100143E0,-8.772088051E0,4.096512318E0,-4.553541660E0
3.104766809E0,-8.772088051E0,4.096512318E0,-4.553541660E0
3.121433475E0,-9.738788605E0,4.644468784E0,-6.867401004E-1
3.138100141E0,-9.808179855E0,4.809573650E0,-8.709874153E-1
3.154766807E0,-8.846264839E0,4.223331928E0,-4.402793646E-1
3.171433473E0,-6.759724140E0,4.809573650E0,-1.170090318E0
3.188100139E0,-5.180460930E0,5.517848969E0,-2.395215511E0
3.204766805E0,-5.513063431E0,4.680361271E0,2.871387079E-2
3.221433471E0,-8.451449394E0,-1.722832322E-1,2.170290232E0
3.238100137E0,-1.123669529E1,2.160718918E0,4.565505505E0
3.254766803E0,-1.146879864E1,2.835494757E0,4.424329281E0
3.271433469E0,-1.062413216E1,1.825723648E0,3.996013701E-1
3.288100135E0,-1.003071213E1,7.752745152E-1,2.560320199E-1
3.304766801E0,-7.549355507E0,4.132404804E0,-3.565305769E-1
3.321433467E0,-7.001399040E0,5.278566837E0,-1.674975902E-1
3.338100133E0,-9.446864128E0,2.610569477E0,9.451649189E-1
3.354766799E0,-9.446864128E0,2.610569477E0,9.451649189E-1
3.371433465E0,-8.975478172E0,-2.658426046E0,2.373680115E0
3.388100131E0,-9.973284721E0,-3.247060299E0,3.184846878E0
3.404766797E0,-1.386640739E1,-3.893122435E0,4.017549038E0
3.421433463E0,-1.428754425E1,5.838487148E-1,5.453242779E0
3.438100129E0,-1.338066387E1,-8.111668825E-1,3.440878868E0
3.454766795E0,-1.409372520E1,-4.867001057E0,1.134197950E0
3.471433461E0,-3.629911900E0,9.090332985E0,4.541577339E0
3.488100127E0,-7.881958008E0,-2.172683001E0,-2.100898266E0
3.504766793E0,-4.086941242E0,3.034099102E0,3.749552965E0
3.521433459E0,-5.515456200E0,2.306680918E0,8.398807645E-1
3.538100125E0,-8.092526436E0,8.303094506E-1,-2.392822690E-2
3.554766791E0,-8.334200859E0,1.134197950E0,-9.044869542E-1
3.571433457E0,-7.097112179E0,2.493321180E0,-2.766103029E0
3.588100123E0,-7.525427341E0,2.603390932E0,-2.993421078E0
3.604766789E0,-1.157886887E1,5.469992638E0,7.657032460E-2
3.621433455E0,-1.543370628E1,5.522634506E0,1.557727575E0
3.638100121E0,-1.284227943E1,7.209574699E0,9.595218897E-1
3.654766787E0,-9.717252731E0,7.042077065E0,-3.230310678E-1
3.671433453E0,-7.903493404E0,5.369493961E0,2.560320199E-1
3.688100119E0,-7.903493404E0,5.369493961E0,2.560320199E-1
3.704766785E0,-9.638289452E0,6.477370739E0,-1.674975827E-2
3.721433451E0,-1.028674412E1,7.661818027E0,1.397408366E0
3.738100117E0,-1.329452229E1,4.826323509E0,2.471785784E0
3.754766783E0,-1.597926998E1,1.617548108E0,4.520041943E0
3.771433449E0,-1.597926998E1,1.617548108E0,4.520041943E0
3.788100115E0,-1.756571198E1,3.002992392E0,5.623133183E0
3.804766781E0,-1.306002617E1,9.839286804E0,6.037091732E0
3.821433447E0,-7.886743546E0,7.688138962E0,5.335994720E0
3.838100113E0,-7.496713161E0,4.201796532E0,3.203989506E0
3.854766779E0,-1.227517962E0,4.055834293E0,3.909872293E0
3.871433445E0,-2.141576290E0,7.154539585E0,1.215553880E0
3.888100111E0,-3.663411379E0,5.931807518E0,3.792623997E0
3.904766777E0,-4.938786030E0,5.010570526E0,3.816552162E0
3.921433443E0,-5.197210789E0,4.235296249E0,2.304288149E0
3.938100109E0,-5.197210789E0,4.235296249E0,2.304288149E0
3.938100109E0,-6.867401123E0,1.287338614E0,-4.003192425E0
3.971433441E0,-4.491328239E0,3.830909014E0,2.689532757E0
3.988100107E0,-3.199203968E0,4.984249592E0,7.412964344E0
4.004766773E0,-3.617947817E0,4.438685894E0,7.853243828E0
4.021433439E0,-3.617947817E0,4.438685894E0,7.853243828E0
4.038100105E0,-5.900700569E0,3.294916868E0,6.486942291E0
4.054766771E0,-9.391828537E0,3.158525944E0,5.067998409E0
4.071433437E0,-9.140582085E0,4.943571568E0,4.886143684E0
4.088100103E0,-5.864808083E0,7.458428383E0,1.066720295E1
4.104766769E0,-4.175475597E0,7.233502865E0,1.250010586E1
4.121433435E0,-5.934200287E0,4.493721008E0,7.128218651E0
4.138100101E0,-5.735595703E0,4.046263218E0,6.671189308E0
4.154766767E0,-5.285745144E0,3.383451223E0,8.391629219E0
4.171433433E0,-5.946164131E0,3.158525944E0,8.260024071E0
4.188100099E0,-4.816751957E0,1.954936147E0,7.573283672E0
4.204766765E0,-5.331208706E0,1.251446247E0,6.723831654E0
4.221433431E0,-5.331208706E0,1.251446247E0,6.723831654E0
4.238100097E0,-4.192225456E0,2.431107759E0,5.534598827E0
4.254766763E0,-3.912265062E0,6.503692150E0,8.415556908E0
4.271433429E0,-5.606383324E0,3.890729666E0,9.970891953E0
4.288100095E0,-8.690732002E0,1.739582062E0,7.231110096E0
4.304766761E0,-9.738788605E0,1.555334687E0,6.419943333E0
4.321433427E0,-9.504291534E0,2.038684845E0,6.482156754E0
4.338100093E0,-9.860821724E0,5.235496044E0,1.146879864E1
4.354766759E0,-9.860821724E0,5.235496044E0,1.146879864E1
4.371433425E0,-7.360322475E0,6.745367050E0,5.809773445E0
4.388100091E0,-8.216953278E0,7.149754047E0,3.139383316E0
4.404766757E0,-6.530013084E0,5.816951752E0,2.699103832E0
4.421433423E0,-5.261816978E0,5.682953835E0,3.905086517E0
4.438100089E0,-4.453042984E0,5.438885689E0,5.804987907E0
4.454766755E0,-3.524627686E0,4.615755081E0,3.622733593E0
4.471433421E0,-3.524627686E0,4.615755081E0,3.622733593E0
4.488100087E0,-5.907878876E0,5.228317261E0,1.555334687E0
4.504766753E0,-6.161518097E0,4.450650215E0,1.696511269E0
4.521433419E0,-3.412165165E0,4.297509670E0,-5.659025669E0
4.538100085E0,-3.412165165E0,4.297509670E0,-5.659025669E0
4.554766751E0,-9.980463028E0,3.751945972E0,1.354337573E0
4.571433417E0,-7.980063438E0,5.721239090E0,1.864008784E0
4.588100083E0,-7.781459332E0,5.953342915E0,1.392622828E0
4.604766749E0,-7.960920811E0,4.718646049E0,4.632504463E0
4.621433415E0,-8.501698494E0,6.948757172E0,1.009771109E0
4.638100081E0,-8.729017258E0,6.185446739E0,3.742374659E0
4.654766747E0,-3.555734396E0,3.292523861E0,4.421936035E0
4.671433413E0,-1.170090318E0,2.617748022E0,3.108276606E0
4.688100079E0,6.939185411E-2,2.201396942E0,2.842673302E0
4.704766745E0,1.421336651E0,1.229910851E0,1.107876897E0
4.721433411E0,1.177268744E0,8.063812256E-1,2.105683982E-1
4.738100077E0,1.177268744E0,8.063812256E-1,2.105683982E-1
4.754766743E0,1.667797327E0,5.479564071E-1,-1.454836130E0
4.771433409E0,3.012563705E0,4.120440483E0,-2.443071842E0
4.788100075E0,1.258146191E1,1.871905136E1,-7.716853142E0
4.804766741E0,2.778545570E1,3.662454224E1,-1.319641685E1
4.821433407E0,2.167179489E1,3.754099274E1,-7.219145775E0
4.838100073E0,-7.015756130E0,2.194457626E1,2.024328041E1
4.854766739E0,-5.130211830E0,8.233702660E0,2.443071842E0
4.871433405E0,-1.550549030E0,3.684946775E0,8.135597110E-1
4.888100071E0,4.259224236E-1,3.460021496E0,2.895315289E-1
4.904766737E0,4.486542225E0,6.625725746E0,-2.263610125E0
4.921433403E0,8.662018180E-1,1.136351490E1,-2.679961443E0
4.938100069E0,-1.550549030E0,1.028674412E1,-9.571290612E-1
4.954766735E0,-1.529013634E0,1.027956581E1,4.546363056E-1
4.971433401E0,-8.470591903E-1,1.071506023E1,1.392622828E0
4.988100067E0,-8.470591903E-1,1.071506023E1,1.392622828E0
5.004766733E0,-3.469592929E-1,1.118166065E1,7.465606928E-1
5.021433399E0,-7.178468257E-2,1.083230782E1,1.091127157E0
5.038100065E0,-7.178468257E-2,1.083230782E1,1.091127157E0
5.054766731E0,2.033899277E-1,9.645467758E0,-6.699903607E-1
5.071433397E0,-1.244267747E-1,1.013121128E1,-1.452443361E0
5.088100063E0,-1.517049551E0,1.110269737E1,-2.861815929E0
5.104766729E0,-1.780260086E0,1.197607708E1,-2.254039049E0
5.121433395E0,-7.513462901E-1,1.312463188E1,-7.250252366E-1
5.138100061E0,1.220339537E-1,1.357448292E1,-1.055234790E0
5.154766727E0,2.136790514E0,1.400519085E1,9.427721500E-1
5.171433393E0,4.182653904E0,1.427318668E1,2.689532757E0
5.188100059E0,6.206982136E0,1.411765385E1,1.895115495E0
5.204766725E0,5.979663849E0,1.307677555E1,-1.672582984E0
5.221433391E0,5.178068161E0,1.226321602E1,-3.716053486E0
5.238100057E0,2.263610125E0,1.226800156E1,-6.723831892E-1
5.254766723E0,2.263610125E0,1.226800156E1,-6.723831892E-1
5.271433389E0,-4.498506486E-1,1.040877819E1,6.915257573E-1
5.288100055E0,2.356930256E0,9.458827972E0,-1.732403636E0
5.304766721E0,2.356930256E0,9.458827972E0,-1.732403636E0
5.321433387E0,1.292124271E0,5.429314613E0,-1.292124242E-1
5.338100053E0,9.212366939E-1,4.797609329E0,6.029912829E-1
5.354766719E0,7.250252366E-1,4.654039860E0,7.968099117E-1
5.371433385E0,-9.810572863E-1,5.912664890E0,8.087740541E-1
5.388100051E0,-3.005385160E0,9.116654396E0,2.213361025E0
5.404766717E0,-3.483949661E0,1.010249710E1,1.627119422E0
5.421433383E0,-1.763510346E0,7.523034573E0,8.135597110E-1
5.438100049E0,-4.785645287E-3,4.948357105E0,8.350951076E-1
5.454766715E0,-4.785645287E-3,4.948357105E0,8.350951076E-1
5.471433381E0,-7.657032460E-2,4.359723091E0,1.651047587E0
5.488100047E0,-1.375872970E0,4.323830605E0,2.428714991E0
5.504766713E0,-1.375872970E0,4.323830605E0,2.428714991E0
5.521433379E0,-1.445264935E0,4.051048756E0,3.275774240E0
5.538100045E0,-7.226324677E-1,4.532006264E0,4.699503899E0
5.554766711E0,-4.785645381E-2,6.886543751E0,5.044070244E0
5.571433377E0,-1.797009826E0,1.234217930E1,7.077969551E0
5.588100043E0,-3.426522017E0,1.644108391E1,8.599804878E0
5.604766709E0,-1.115533924E1,2.422014999E1,1.361037540E1
5.621433375E0,-1.581416512E1,1.817109489E1,5.424529076E0
5.638100041E0,-1.581416512E1,1.817109489E1,5.424529076E0
5.654766707E0,-4.536791801E0,4.610969067E0,3.991228104E0
5.671433373E0,-5.120640397E-1,1.007378340E0,1.471585870E0
5.688100039E0,2.902493954E0,1.598405480E0,-3.661018610E-1
5.704766705E0,2.938386202E0,5.142175674E0,-1.375872970E0
5.721433371E0,2.775674343E0,8.394021988E0,-2.256431818E0
5.738100037E0,3.457628727E0,1.705603981E1,-3.036491871E0
5.754766703E0,5.824130535E0,2.291606331E1,7.130611539E-1
5.771433369E0,5.529813290E0,8.185846329E0,2.457428932E1
5.788100035E0,7.731209755E0,8.616554260E0,-4.548755646E0
5.804766701E0,3.297309637E0,7.826922894E0,-5.706882000E0
5.821433367E0,5.455635786E-1,5.709274769E0,-2.249253273E0
5.838100033E0,5.455635786E-1,5.709274769E0,-2.249253273E0
5.854766699E0,-1.280160069E0,6.434299946E0,-1.646261930E0
5.871433365E0,-9.116654396E-1,8.214560509E0,-1.531406522E0
5.888100031E0,-2.225325108E-1,1.036810017E1,-3.756731451E-1
5.904766697E0,-2.225325108E-1,1.036810017E1,-3.756731451E-1
5.921433363E0,8.805587292E-1,1.186122227E1,-7.417750359E-2
5.938100029E0,7.130611539E-1,1.056191921E1,1.284945726E0
5.954766695E0,-1.184447169E0,9.542576790E0,2.533999205E0
5.971433361E0,-3.024527788E0,7.824530125E0,4.527220249E0
5.988100027E0,-1.928615093E0,7.853243828E0,2.684746981E0
6.004766693E0,-6.460621208E-2,8.532805443E0,7.106683254E-1
6.021433359E0,1.873580098E0,9.052047729E0,1.521835208E0
6.038100025E0,1.873580098E0,9.052047729E0,1.521835208E0
6.054766691E0,9.260223508E-1,8.238488197E0,-2.632104978E-2
6.071433357E0,3.060420275E0,8.427521706E0,1.409372568E0
6.088100023E0,3.060420275E0,8.427521706E0,1.409372568E0
6.104766689E0,1.684547186E0,7.817351341E0,-1.840080619E0
6.121433355E0,1.737189293E0,9.681360245E0,-2.105683982E-1
6.138100021E0,-3.972085714E-1,1.004267693E1,-5.168496966E-1
6.154766687E0,-6.628118753E-1,1.071984577E1,-2.201396823E-1
6.171433353E0,-6.197410822E-1,1.135633659E1,2.775674164E-1
6.188100019E0,-7.417750359E-1,1.258624744E1,2.871387079E-2
6.204766685E0,-1.517049551E0,1.202393341E1,-1.323230863E0
6.221433351E0,-1.517049551E0,1.202393341E1,-1.323230863E0
6.238100017E0,-2.734996319E0,1.103091240E1,-5.503492355E-1
6.254766683E0,-2.009970993E-1,1.311745358E1,1.878365755E0
6.271433349E0,-1.603191197E-1,1.318445301E1,1.031306505E0
6.288100015E0,-1.954936147E0,1.372523022E1,-7.489534616E-1
6.304766681E0,-3.050848961E0,1.293799210E1,3.589234054E-1
6.321433347E0,-3.091526747E0,1.038006496E1,5.982056856E-1
6.338100013E0,1.603191197E-1,9.516255379E0,2.663211584E0
6.354766679E0,1.603191197E-1,9.516255379E0,2.663211584E0
6.371433345E0,4.175475597E0,1.325384426E1,-2.227717876E0
6.388100011E0,1.643869162E0,1.270828152E1,-4.115654945E0
6.404766677E0,1.643869162E0,1.270828152E1,-4.115654945E0
6.421433343E0,7.345965385E0,2.477050018E1,5.886343479E0
6.438100009E0,6.898507595E0,2.524188614E1,3.541377544E0
6.454766675E0,7.613961697E0,1.841516304E1,1.177268744E0
6.471433341E0,5.630311489E0,1.001635551E1,-2.354537487E0
6.488100007E0,6.532405615E-1,5.984449387E0,-1.426122308E0
6.504766673E0,-1.021735311E0,6.116054535E0,-3.565305769E-1
6.521433339E0,-2.653640270E0,5.752345562E0,4.546362907E-2
6.538100005E0,-2.653640270E0,5.752345562E0,4.546362907E-2
6.554766671E0,1.299302697E0,4.756931305E0,1.280160069E0
6.571433337E0,1.825723648E0,3.761517286E0,2.273181528E-1
6.588100003E0,2.574677229E0,3.136990547E0,-2.878565550E0
6.604766669E0,2.880958557E0,2.270788670E0,6.963114142E-1
6.621433335E0,2.880958557E0,2.270788670E0,6.963114142E-1
6.638100001E0,3.613162279E0,-7.633104324E-1,2.524427891E0
6.654766667E0,3.778266907E0,-1.636690736E0,1.062413216E0
6.671433333E0,1.509871125E0,-6.771687865E-1,2.225325108E-1
6.688099999E0,-1.718046665E0,1.414158225E0,6.628118753E-1
6.704766665E0,-2.031506538E0,4.086941242E0,1.464407444E0
6.721433331E0,-6.556334019E0,2.331805611E1,2.321277237E1
6.738099997E0,-1.596491241E1,2.791706085E1,5.984449387E0
6.754766663E0,-1.793181229E1,1.992503357E1,4.668396950E0
6.771433329E0,-1.023170948E1,9.396614075E0,-1.213161111E0
6.788099995E0,3.113062143E0,1.067198944E1,5.041677475E0
6.804766661E0,1.313898945E1,1.680957985E1,1.502692604E1
6.821433327E0,1.062413216E1,2.319123650E1,6.912864685E0
6.838099993E0,-3.431307554E0,1.502931881E1,-1.012164021E1
6.854766659E0,-1.512263894E0,7.788637638E0,9.236295223E-1
6.871433325E0,7.130611539E-1,5.692524910E0,-2.392822644E-3
6.888099991E0,1.124626637E0,5.383851051E0,-5.742774606E-1
6.904766657E0,1.533799291E0,5.907878876E0,-7.130611539E-1
6.921433323E0,1.691725612E0,7.501499176E0,-7.178468108E-1
6.938099989E0,2.096112728E0,9.695717812E0,-6.269195080E-1
6.954766655E0,1.825723648E0,1.066002464E1,-1.067198873E0
6.971433321E0,6.245267391E-1,1.070309544E1,-1.775474429E0
6.988099987E0,-2.129612118E-1,9.121439934E0,-6.747759581E-1
7.004766653E0,-1.627119422E0,7.362715244E0,1.677607918E1
7.021433319E0,-1.730010748E0,6.855436802E0,7.262216568E0
7.038099985E0,-1.301695466E0,8.044670105E0,-4.165904045E0
7.054766651E0,-9.140582681E-1,9.523433685E0,3.069991350E0
7.071433317E0,-9.140582681E-1,9.523433685E0,3.069991350E0
7.088099983E0,-1.983649969E0,9.269794464E0,2.689532757E0
7.104766649E0,-1.983649969E0,7.709674358E0,2.957528830E0
7.121433315E0,-1.138983607E0,7.305287361E0,-2.536391973E0
7.138099981E0,-1.138983607E0,7.305287361E0,-2.536391973E0
7.154766647E0,-1.708475351E0,8.025527000E0,-5.264209956E-2
7.171433313E0,-1.689332843E0,6.687939167E0,4.086941242E0
7.188099979E0,-9.499505758E-1,5.491528034E0,1.574477315E0
7.204766645E0,-9.499505758E-1,5.491528034E0,1.574477315E0
7.221433311E0,-1.591227055E0,5.773880959E0,2.656033039E-1
7.238099977E0,-1.071984529E0,8.212167740E0,-3.948157430E-1
7.254766643E0,-1.325623751E0,8.532805443E0,4.067798331E-2
7.271433309E0,-1.158126116E0,8.709874153E0,3.783052683E0
7.288099975E0,-1.162911773E0,8.755337715E0,1.435693622E0
7.304766641E0,-2.746960402E0,8.798408508E0,-6.029912829E-1
7.321433307E0,-3.555734396E0,9.810572624E0,3.180061340E0
7.338099973E0,-3.450450182E0,1.009531879E1,9.571290612E-1
7.354766639E0,-1.473978758E0,1.240439224E1,1.143769264E0
7.371433305E0,1.533799291E0,1.551984787E1,-3.589234129E-2
7.388099971E0,1.031306505E0,1.355055428E1,3.541377485E-1
7.404766637E0,2.751746178E-1,1.225603771E1,-5.431707501E-1
7.421433303E0,5.503492355E-1,1.215075302E1,1.813759565E0
7.438099969E0,7.872386575E-1,1.440957832E1,2.155933142E0
7.454766635E0,3.134597778E0,1.911865234E1,3.084348440E0
7.471433301E0,4.405186653E0,1.856112480E1,4.307080805E-1
7.488099967E0,4.520041943E0,9.432506561E0,-3.158525825E-1
7.504766633E0,6.867401004E-1,2.873780012E0,-8.015955687E-1
7.521433299E0,-6.867401004E-1,2.050648928E0,-6.652047038E-1
7.538099965E0,-6.939185858E-1,3.471985579E0,2.368894368E-1
7.554766631E0,-6.580262184E-1,5.551348686E0,1.052842021E0
7.571433297E0,-6.699903607E-1,5.307280540E0,2.782852650E0
7.588099963E0,-2.246860504E0,4.070191383E0,3.345165968E0
7.604766629E0,-3.000599623E0,3.969692707E0,2.888136864E0
7.621433295E0,-2.141576290E0,6.247660160E0,1.715653777E0
7.638099961E0,1.483550072E-1,9.808179855E0,-1.287338614E0
7.654766627E0,1.143769264E0,1.217468166E1,-2.895315409E0
7.671433293E0,-5.024927258E-1,1.114816093E1,-3.373879790E-1
7.688099959E0,-4.596612453E0,9.475577354E0,7.283751965E0
7.704766625E0,-4.340580463E0,8.501698494E0,8.111668587E0
7.721433291E0,-4.340580463E0,8.501698494E0,8.111668587E0
7.738099957E0,2.333002090E0,1.032742214E1,-8.303094506E-1
7.754766623E0,1.950150490E0,1.236371422E1,-2.199003935E0
7.771433289E0,2.514856577E0,1.655833244E1,3.728017569E0
7.788099955E0,2.514856577E0,1.655833244E1,3.728017569E0
7.804766621E0,-4.462614059E0,1.447418404E1,1.021735311E0
7.821433287E0,3.182454109E-1,9.982855797E0,1.933400750E0
7.838099953E0,8.901300430E-1,8.317451477E0,-1.296909928E0
7.854766619E0,-4.809573591E-1,1.035613632E1,-9.308080077E-1
7.871433285E0,-8.374879509E-2,1.276092339E1,6.149554253E-1
7.888099951E0,2.751746178E-1,1.414875984E1,1.007378340E0
7.904766617E0,7.250252366E-1,1.138744259E1,-1.091127157E0
7.921433283E0,1.129412293E0,9.554540634E0,-1.311266780E0
7.938099949E0,7.298108935E-1,6.781259537E0,-9.595218897E-1
7.954766615E0,1.244267747E-1,6.022734642E0,-1.411765367E-1
7.971433281E0,-8.542376757E-1,7.633104324E0,4.354937077E-1
7.988099947E0,-1.284945726E0,8.183453560E0,5.599204898E-1
8.004766613E0,-1.808973908E0,7.625925541E0,1.232303619E0
8.021433279E0,-2.038684845E0,6.845865726E0,1.909472466E0
8.038099945E0,-2.038684845E0,6.845865726E0,1.909472466E0
8.054766611E0,-3.390629768E0,9.525827408E0,2.356930256E0
8.071433277E0,-3.692125320E0,1.045902824E1,3.239881754E0
8.088099943E0,-1.806581140E0,8.810373306E0,5.460421085E0
8.104766609E0,-1.217946768E0,7.511070251E0,-3.278166950E-1
8.121433275E0,-1.131805062E0,8.685946465E0,-6.675975323E-1
8.138099941E0,-3.349951655E-2,1.147597694E1,-2.220539331E0
8.154766607E0,-1.572084427E0,1.183968639E1,2.586641312E0
8.171433273E0,-1.572084427E0,1.183968639E1,2.586641312E0
8.188099939E0,-5.264210105E-1,1.135633659E1,8.327022791E-1
8.204766605E0,9.188438654E-1,1.436650753E1,-1.718046665E0
8.221433271E0,5.654240131E0,1.830748558E1,-1.270588875E0
8.238099937E0,8.269595146E0,1.727139473E1,-1.021735311E0
8.254766603E0,7.008577347E0,1.305524063E1,-1.741974831E0
8.271433269E0,3.393022537E0,4.426722050E0,5.742774606E-1
8.288099935E0,-7.082754970E-1,-1.627119422E0,5.469992638E0
8.304766601E0,-7.082754970E-1,-1.627119422E0,5.469992638E0
8.321433267E0,-4.352544308E0,1.098305583E0,2.880958557E0
8.338099933E0,-3.366701365E0,3.763910055E0,2.335394859E0
8.354766599E0,0.000000000E0,7.609176159E0,2.383251429E0
8.371433265E0,3.273381472E0,1.160519028E1,-2.036292076E0
8.388099931E0,3.455235958E0,1.337109280E1,-2.469393015E0
8.404766597E0,-8.614161611E-2,1.334237862E1,-1.191625714E0
8.421433263E0,-5.862415314E0,1.172961617E1,9.226723671E0
8.438099929E0,-3.627519131E0,9.040083885E0,3.251846075E0
8.454766595E0,-2.206182480E0,1.071506023E1,-3.278167009E0
8.471433261E0,-2.002792597E0,1.354337597E1,1.076770186E0
8.488099927E0,-2.002792597E0,1.354337597E1,1.076770186E0
8.504766593E0,-2.866601467E0,1.334237862E1,-3.924229145E-1
8.521433259E0,-1.691725612E0,1.325862980E1,9.571290612E-1
8.538099925E0,3.732803464E-1,1.148076344E1,2.201396942E0
8.554766591E0,2.749353170E0,1.443111324E1,-1.919043779E0
8.571433257E0,2.376072884E0,1.408654690E1,-1.564906001E0
8.588099923E0,1.050449133E0,1.063131142E1,4.321437836E0
8.604766589E0,6.819544435E-1,9.049654961E0,-2.177468538E-1
8.621433255E0,2.249253243E-1,7.252645493E0,-1.239482164E0
8.638099921E0,-3.565305769E-1,6.900900364E0,-1.995614052E0
8.654766587E0,-3.565305769E-1,6.900900364E0,-1.995614052E0
8.671433253E0,-1.007378340E0,6.709474564E0,-2.608176708E0
8.688099919E0,-1.007378340E0,6.709474564E0,-2.608176708E0
8.704766585E0,-2.967100143E0,8.504091263E0,-8.614161611E-1
8.721433251E0,-3.127419233E0,1.221535969E1,2.532563400E1
8.738099917E0,-6.747759581E-1,1.026520920E1,-3.354737282E0
8.754766583E0,-6.747759581E-1,1.026520920E1,-3.354737282E0
8.771433249E0,-9.643075466E-1,9.253045082E0,1.263410330E0
8.788099915E0,-2.081755698E-1,1.034177971E1,-2.153540403E-2
8.804766581E0,-7.968099117E-1,1.082752228E1,-2.108076811E0
8.821433247E0,-7.968099117E-1,1.082752228E1,-2.108076811E0
8.838099913E0,-9.284151793E-1,9.238688469E0,-2.038684845E0
8.854766579E0,-3.900300860E-1,1.273460197E1,-1.981257200E0
8.871433245E0,5.848058701E0,1.734078598E1,-7.657032460E-2
8.888099911E0,6.015556335E0,1.468714523E1,-8.398807645E-1
8.904766577E0,4.204189301E0,1.103809071E1,1.842473447E-1
8.921433243E0,1.363908887E0,3.139383316E0,7.116254330E0
8.938099909E0,-2.134397745E0,-9.571290612E-1,6.173482537E-1
8.954766575E0,-3.737588882E0,4.450650215E-1,6.939185858E-1
8.971433241E0,-3.957728624E0,2.141576290E0,2.651247501E0
8.988099907E0,-1.842473388E0,6.640082836E0,1.794617027E-1
9.004766573E0,1.634297848E0,1.189711380E1,-1.868794441E0
9.021433239E0,2.868994236E0,1.519920921E1,-1.777867198E0
9.038099905E0,2.017149448E0,1.602712631E1,2.084148407E0
9.054766571E0,-3.371487141E0,1.266999626E1,7.716853142E0
9.071433237E0,-3.038884640E0,7.542177200E0,4.620540619E0
9.088099903E0,-2.117648125E0,7.609176159E0,1.844866276E0
9.104766569E0,-2.222932339E0,9.767501831E0,-2.983849764E0
9.121433235E0,2.842673302E0,1.164108181E1,-7.243073940E0
9.138099901E0,2.727817893E-1,1.444307709E1,3.852444410E0
9.154766567E0,-4.426721931E-1,1.708953857E1,3.931407690E0
9.171433233E0,-2.672782898E0,1.792702675E1,-4.283152521E-1
9.188099899E0,-2.943171859E-1,1.057388306E1,6.250052929E0
9.204766565E0,-9.499505758E-1,8.102097511E0,-4.307080805E-1
9.221433231E0,-5.144568682E-1,8.243273735E0,-1.739582062E0
9.238099897E0,1.734796405E0,9.291330338E0,-3.326023579E0
9.254766563E0,1.301695466E0,9.119047165E0,-2.426322222E0
9.271433229E0,1.301695466E0,9.119047165E0,-2.426322222E0
9.288099895E0,5.312066078E-1,8.327022552E0,-2.392822644E-3
9.304766561E0,-1.440479279E0,9.135796547E0,1.229910851E0
9.321433227E0,-2.392822742E0,8.520841599E0,7.944171429E-1
9.338099893E0,-2.392822742E0,8.520841599E0,7.944171429E-1
9.354766559E0,-2.780459881E0,8.188239098E0,2.268395901E0
9.371433225E0,-1.194018483E0,9.461220741E0,9.303294182E0
9.388099891E0,-5.766702294E-1,9.269794464E0,-1.763510346E0
9.404766557E0,-2.038684845E0,8.477770805E0,4.307080805E-2
9.421433223E0,-2.364108801E0,8.245666504E0,-2.955136061E0
9.438099889E0,-1.720439434E0,1.022213840E1,1.368694544E0
9.454766555E0,2.177468538E-1,1.224646664E1,6.771687865E-1
9.471433221E0,-3.493520916E-1,1.163390350E1,-1.258624673E0
9.488099887E0,-7.369893789E-1,1.262213898E1,-1.880758643E0
9.504766553E0,1.497906923E0,1.487857151E1,-1.890329838E0
9.521433219E0,6.486942291E0,1.556052589E1,1.031306505E0
9.538099885E0,3.639483213E0,1.114816093E1,9.978070259E-1
9.554766551E0,2.775674343E0,8.520841599E0,2.388036966E0
9.571433217E0,1.519442320E0,2.143969059E0,2.787638426E0
9.588099883E0,-1.619940877E0,2.196611166E0,1.115055323E0
9.604766549E0,-1.619940877E0,2.196611166E0,1.115055323E0
9.621433215E0,-2.122433662E0,4.479363918E0,-1.914258115E-2
9.638099881E0,-9.451649189E-1,6.053841114E0,-1.674975827E-2
9.654766547E0,1.253839016E0,9.930213928E0,3.507878065E0
9.671433213E0,1.871187329E0,1.173440266E1,5.048855543E-1
9.688099879E0,1.304088354E0,1.367019558E1,-1.835294962E0
9.704766545E0,-1.840080619E0,9.980463028E0,1.390229940E0
9.721433211E0,-3.696911097E0,3.917050600E0,1.089452171E1
9.738099877E0,-1.679761529E0,2.117648125E0,8.281558990E0
9.754766543E0,-6.149554253E-1,3.682554007E0,-2.036292076E0
9.771433209E0,1.574477315E0,1.545284843E1,-5.807380676E0
9.788099875E0,2.426322222E0,1.967857361E1,-1.603191197E-1
9.804766541E0,-9.379864931E-1,1.593619919E1,1.631905079E0
9.821433207E0,-3.661018610E0,8.200202942E0,2.632105052E-1
9.838099873E0,-4.211367965E-1,7.554141045E0,3.498306751E0
9.854766539E0,9.403793216E-1,1.436411476E1,-3.732803464E-1
9.871433205E0,3.900300860E-1,1.750828362E1,-1.916650891E0
9.888099871E0,-1.347159147E0,1.893440628E1,4.247260094E0
9.904766537E0,-5.886343718E-1,1.350509071E1,-8.255237937E-1
9.921433203E0,2.871387303E-1,9.966106415E0,-1.682154298E0
9.938099869E0,5.958128572E-1,9.351150513E0,-1.627119422E0
9.954766535E0,9.044869542E-1,8.719446182E0,1.897508383E0
9.971433201E0,-6.436693072E-1,9.628718376E0,1.172004509E1
9.988099867E0,-8.949156404E-1,9.001798630E0,3.584448338E0
1.000476653E1,-1.775474429E0,8.678768158E0,1.027478027E1
1.002143320E1,-7.944171429E-1,7.802994728E0,-2.924029350E0
1.003809987E1,-2.993421078E0,3.416950703E0,-9.772287369E0
1.005476653E1,-2.993421078E0,3.416950703E0,-9.772287369E0
1.007143320E1,-4.450650215E-1,6.084948063E0,5.570491314E0
1.008809986E1,-2.857030153E0,1.058824062E1,-1.445264935E0
1.010476653E1,-8.685946465E-1,1.579502201E1,-1.459621787E-1
1.012143320E1,4.644468784E0,1.600798416E1,-1.361516118E0
1.013809986E1,5.795416355E0,1.300020504E1,-1.686939955E0
1.015476653E1,4.319045067E0,7.657032490E0,-2.847458839E0
1.017143319E1,4.900500774E0,5.886343479E0,-1.091127157E0
1.018809986E1,4.900500774E0,5.886343479E0,-1.091127157E0
1.020476652E1,-1.830509305E0,3.036491871E0,5.379065514E0
1.022143319E1,-3.512663603E0,2.763710260E0,1.045663476E0
1.023809986E1,-3.543770313E0,2.033899307E0,-1.916650891E0
1.025476652E1,-3.029313564E0,3.582055569E0,-2.117648125E0
1.027143319E1,6.723831892E-1,5.548955917E0,3.247060299E0
1.028809986E1,1.289731383E0,4.417150497E0,1.771645927E1
1.030476652E1,-4.433900356E0,9.573683739E0,-1.421336651E0
1.032143319E1,-4.768895626E0,1.565145302E1,-1.297867012E1
1.033809985E1,7.941778183E0,2.488774872E1,8.496912956E0
1.035476652E1,3.993621111E0,2.335394859E1,2.572284460E0
1.037143318E1,3.993621111E0,2.335394859E1,2.572284460E0
1.038809985E1,-3.445664644E0,1.049731255E1,-3.371487141E0
1.040476652E1,-1.363908887E0,7.008577347E0,1.986042857E-1
1.042143318E1,-4.622933388E0,9.978070259E0,-8.518448472E-1
1.043809985E1,-2.981456995E0,1.222732353E1,9.296115875E0
1.045476652E1,-1.976471543E0,1.071027374E1,-1.703689694E0
1.047143318E1,-3.230310678E-1,8.793622971E0,-3.613162279E0
1.048809985E1,-1.363908887E0,1.038006496E1,1.294517040E0
1.050476651E1,-5.659025669E0,1.127019501E1,9.044869542E-1
1.052143318E1,-5.154139996E0,1.216032505E1,2.895315289E-1
1.053809985E1,-4.436293125E0,1.215793228E1,8.628518105E0
1.055476651E1,-4.876572609E0,1.059781170E1,4.783252239E0
1.057143318E1,-4.876572609E0,1.059781170E1,4.783252239E0
1.058809984E1,-3.182454109E0,6.735795975E0,-4.268795490E0
1.060476651E1,2.392822653E-1,8.315058708E0,1.339980662E-1
1.062143318E1,2.129612207E0,1.071266651E1,-3.335594654E0
1.063809984E1,8.614161611E-1,1.151186943E1,-3.491128206E0
1.065476651E1,7.896314561E-2,1.412243938E1,-1.993221283E0
1.067143317E1,7.896314561E-2,1.412243938E1,-1.993221283E0
1.068809984E1,-6.723831892E-1,2.821616554E1,8.032705307E0
1.070476650E1,3.615555048E0,2.824966431E1,-1.545763373E0
1.072143317E1,5.584847927E0,2.485903358E1,-5.757131100E0
1.073809984E1,4.529613495E0,1.459861088E1,-5.996413708E0
1.075476650E1,3.476771355E0,7.877171993E0,1.794616938E0
1.077143317E1,7.178468257E-2,4.850251675E0,1.036092162E0
1.078809984E1,-8.327022791E-1,5.843272686E0,7.585247755E-1
1.080476650E1,1.127019525E0,7.680960655E0,4.867001057E0
1.082143317E1,5.826523304E0,1.104526901E1,1.864008784E0
1.083809983E1,7.054041386E0,1.087537861E1,2.912065268E0
1.085476650E1,6.735795975E0,6.733402729E0,2.610569477E0
1.087143317E1,4.733003139E0,2.143969059E0,1.483550072E0
1.088809983E1,1.509871125E0,-6.723831892E-1,2.971885681E0
1.090476650E1,-1.988435626E0,1.641476393E0,6.245266914E0
1.092143316E1,-6.666403770E0,9.755537987E0,8.997012973E-1
1.093809983E1,-9.042476654E0,1.381615829E1,-1.198086262E1
1.095476650E1,-9.042476654E0,1.381615829E1,-1.198086262E1
1.097143316E1,-7.439285755E0,1.296670628E1,1.473500156E1
1.098809983E1,6.080162525E0,1.810409546E1,1.221775246E1
1.100476649E1,3.287738323E0,1.887219238E1,-5.659025669E0
1.102143316E1,-1.222732425E0,1.197129154E1,-5.462814331E0
1.103809983E1,-1.797009826E0,6.778866768E0,-1.171047401E1
1.105476649E1,3.876372576E-1,3.404986620E0,-7.058826923E0
1.107143316E1,2.053041935E0,3.854837179E0,-1.237089276E0
1.108809982E1,2.565105915E0,7.925028801E0,6.668796539E0
1.110476649E1,1.227517962E0,1.072941685E1,5.615954876E0
1.112143316E1,-2.428714991E0,1.440957832E1,2.440679073E-1
1.113809982E1,7.441678643E-1,1.758724594E1,1.220339537E0
1.115476649E1,7.441678643E-1,1.758724594E1,1.220339537E0
1.117143315E1,5.024927258E-1,8.963513374E0,1.406979680E0
1.118809982E1,4.115654826E-1,5.541777134E0,-9.020941257E-1
1.120476648E1,1.519442320E0,5.441278458E0,-1.875972986E0
1.122143315E1,2.390429735E0,7.374679565E0,-3.062812984E-1
1.123809982E1,1.287338614E0,8.221738815E0,3.852444589E-1
1.125476648E1,-7.441678643E-1,8.714659691E0,-2.512463629E-1
1.127143315E1,6.101697683E-1,8.429914474E0,-2.620140791E0
1.128809982E1,6.101697683E-1,8.429914474E0,-2.620140791E0
1.130476648E1,1.753939033E0,1.027717304E1,7.374679565E0
1.132143315E1,-3.876372576E-1,1.130130100E1,2.377987099E1
1.133809981E1,1.127019525E0,1.085384369E1,2.057827413E-1
1.135476648E1,1.127019525E0,1.085384369E1,2.057827413E-1
1.137143315E1,-2.287538528E0,1.349551964E1,1.543370605E0
1.138809981E1,-7.726424217E0,1.343809223E1,-1.203589797E0
1.140476648E1,-7.726424217E0,1.343809223E1,-1.203589797E0
1.142143314E1,-3.625126362E0,1.069591713E1,-3.687339783E0
1.143809981E1,-2.242074728E0,1.154058361E1,5.958128572E-1
1.145476648E1,-1.962114573E0,1.423490238E1,-2.251646042E0
1.147143314E1,-2.222932339E0,1.831945038E1,-2.847459018E-1
1.148809981E1,-1.629512191E0,1.974078751E1,8.542376757E-1
1.150476647E1,1.914258152E-1,1.808495331E1,1.194018483E0
1.152143314E1,3.349951744E0,1.268435287E1,-4.074976921E0
1.153809980E1,6.589833736E0,9.535398483E0,-5.379065514E0
1.155476647E1,5.994020939E0,8.350951195E0,-5.812166214E0
1.157143314E1,3.416950703E0,4.500899315E0,6.668796539E0
1.158809980E1,1.940579176E0,3.503092289E0,-4.307080805E-2
1.160476647E1,3.371487141E0,3.938585997E0,1.308874011E0
1.162143314E1,3.414557934E0,4.122833252E0,7.872386575E-1
1.163809980E1,2.610569477E0,4.027120590E0,6.915257573E-1
1.165476647E1,1.818545222E0,4.235296249E0,1.670190215E0
1.167143313E1,2.866601467E0,6.061019897E0,3.828516245E0
1.168809980E1,3.541377485E-1,8.078168869E0,7.377072334E0
1.170476646E1,-1.117448211E0,9.473184586E0,-2.474178553E0
1.172143313E1,-8.015955687E-1,9.951749802E0,-4.323830605E0
1.173809980E1,-1.627119422E0,1.409611797E1,9.588040352E0
1.175476646E1,2.057827413E-1,1.782174301E1,1.259821129E1
1.177143313E1,1.004985496E-1,1.275853062E1,-1.797009826E0
1.178809980E1,-4.443471432E0,8.329415321E0,-7.920243144E-1
1.180476646E1,-4.443471432E0,8.329415321E0,-7.920243144E-1
1.182143313E1,-4.433900356E0,1.197846985E1,-1.471585870E0
1.183809979E1,1.280160069E0,9.430113792E0,-2.356930256E0
1.185476646E1,2.277967215E0,8.283951759E0,-2.227717876E0
1.187143313E1,1.593619823E0,8.382058144E0,2.117648125E0
1.187143313E1,1.593619823E0,8.382058144E0,2.117648125E0
1.190476646E1,-4.474578202E-1,9.176474571E0,1.598405480E0
1.192143312E1,-4.474578202E-1,9.176474571E0,1.598405480E0
1.193809979E1,1.203589797E0,6.862615108E0,2.225325108E-1
1.195476646E1,7.585247755E-1,6.204588890E0,-2.368894368E-1
1.197143312E1,3.230310678E-1,6.199803352E0,-1.067198873E0
1.198809979E1,-1.172483116E-1,6.929614544E0,-9.786644578E-1
1.200476645E1,-1.172483116E-1,6.929614544E0,-9.786644578E-1
1.202143312E1,-2.191825628E0,8.690732002E0,-7.298108935E-1
1.203809978E1,-2.675175667E0,1.035135078E1,2.400001049E0
1.205476645E1,-1.950150490E0,1.113858986E1,7.094718933E0
1.207143312E1,-1.624726534E0,1.107159042E1,2.462214470E0
1.208809978E1,-1.864008784E0,1.044467068E1,-9.140582681E-1
1.210476645E1,-2.840280533E0,8.561519623E0,8.975478172E0
1.212143312E1,-1.373480201E0,8.396414757E0,-7.513462901E-1
1.213809978E1,-1.526620865E0,8.200202942E0,1.406979680E0
1.215476645E1,-1.813759565E0,9.044869423E0,6.293123364E-1
1.217143311E1,-1.146162033E0,1.078923702E1,-1.275374413E0
1.218809978E1,1.612762451E0,1.052841949E1,-2.179861546E0
1.220476644E1,2.720639229E0,1.125105190E1,-1.555334777E-1
1.222143311E1,1.629512191E0,1.229671574E1,9.571290761E-2
1.223809978E1,4.189832687E0,1.654636765E1,-1.150947690E0
1.225476644E1,6.460621357E0,1.471346664E1,-1.665404558E0
1.227143311E1,6.175875187E0,1.202393341E1,-1.299302697E0
1.228809978E1,4.357329845E0,7.704888821E0,5.381458282E0
1.230476644E1,-4.067798331E-2,2.187039852E0,5.111069202E0
1.232143311E1,-4.067798331E-2,2.187039852E0,5.111069202E0
1.233809977E1,-2.443071842E0,2.112862349E0,2.713460922E0
1.235476644E1,-2.708675146E0,4.240081787E0,4.864608288E0
1.237143311E1,-2.761317253E0,5.953342915E0,2.952743053E0
1.238809977E1,-6.795616150E-1,8.745766640E0,-3.074777126E0
1.240476644E1,4.618147612E-1,1.046381378E1,-4.922036171E0
1.242143310E1,2.148754835E0,1.338784313E1,-3.852444589E-1
1.243809977E1,2.148754835E0,1.338784313E1,-3.852444589E-1
1.245476644E1,-3.404986620E0,1.051406288E1,1.574477315E0
1.247143310E1,-5.261816978E0,8.903693199E0,4.034298897E0
1.248809977E1,-5.048855782E0,6.345765591E0,4.572684288E0
1.250476643E1,-3.014956474E0,1.089452171E1,1.138983607E0
1.252143310E1,8.327022791E-1,1.535713577E1,-4.893322468E0
1.253809976E1,-1.086341500E0,1.471585941E1,-6.518048763E0
1.255476643E1,-2.354537487E0,1.296670628E1,2.562713146E0
1.257143310E1,-2.969492912E0,1.042074299E1,2.143969059E0
1.258809976E1,-2.969492912E0,1.042074299E1,2.143969059E0
1.260476643E1,2.670390129E0,1.111226845E1,-3.096312523E0
1.262143310E1,2.330609322E0,1.484507179E1,-4.613361835E0
1.263809976E1,2.986242771E0,1.341416359E1,7.046862602E0
1.265476643E1,9.332008362E-1,1.066959572E1,3.680161238E0
1.267143309E1,-4.785645306E-1,7.252645493E0,2.871387303E-1
1.268809976E1,-1.031306505E0,6.766902447E0,-2.512463629E-1
1.270476642E1,-4.857429862E-1,7.561319351E0,-2.289931297E0
1.272143309E1,-5.072783828E-1,7.724031448E0,-2.902493954E0
1.273809976E1,-1.287338614E0,8.745766640E0,-2.557927370E0
1.275476642E1,-3.132204771E0,9.736394882E0,2.962314367E0
1.277143309E1,-1.390229940E0,9.731609344E0,9.600004196E0
1.278809976E1,-6.699903607E-1,8.673981667E0,-4.402793884E0
1.280476642E1,-2.644068956E0,9.090332985E0,-4.761717021E-1
1.282143309E1,-3.017349243E0,1.076770210E1,2.823530734E-1
1.283809975E1,-3.017349243E0,1.076770210E1,2.823530734E-1
1.285476642E1,1.952543259E0,1.227517986E1,3.852444589E-1
1.287143309E1,1.031306505E0,8.941978455E0,-2.849851847E0
1.288809975E1,-9.092725813E-2,9.942177773E0,-3.215953588E0
1.290476642E1,-9.092725813E-2,9.942177773E0,-3.215953588E0
1.292143308E1,3.936193228E0,1.660379601E1,2.550748825E0
1.293809975E1,3.787838221E0,1.182293701E1,8.039883971E-1
1.295476642E1,2.376072884E0,5.118247509E0,2.266003132E0
1.297143308E1,8.901300430E-1,1.019342422E0,2.062613010E0
1.298809975E1,7.417750359E-2,9.571290761E-2,1.952543259E0
1.300476641E1,-1.818545222E0,1.584048629E0,1.935793519E0
1.302143308E1,-2.048256159E0,5.010570526E0,3.538984776E0
1.303809974E1,-3.397808075E-1,8.133204460E0,-2.507678032E0
1.305476641E1,4.546363056E-1,1.015274620E1,-4.029513359E0
1.307143308E1,2.608176768E-1,1.323948765E1,-2.072184324E0
1.308809974E1,-3.806980848E0,1.359601784E1,6.285944939E0
1.310476641E1,-3.806980848E0,1.359601784E1,6.285944939E0
1.312143308E1,-4.024727821E0,1.111705399E1,1.653440475E0
1.313809974E1,-2.009970993E-1,1.350269794E1,1.246660590E0
1.315476641E1,-1.780260086E0,1.039202881E1,-1.878365755E0
1.317143307E1,1.653440475E0,1.446461296E1,-2.732603550E0
1.318809974E1,1.153340459E0,1.547677708E1,-7.010970116E-1
1.320476640E1,-1.124626637E0,1.172243786E1,5.694918036E-1
1.322143307E1,6.675975323E-1,1.005224800E1,1.194018483E0
1.323809974E1,1.239482164E0,1.062173939E1,8.350951076E-1
1.325476640E1,1.067198873E0,1.150229836E1,-7.178467698E-3
1.327143307E1,8.662018180E-1,1.091366386E1,5.407779217E-1
1.328809974E1,6.388836503E-1,9.700503349E0,2.368894368E-1
1.330476640E1,1.148554832E-1,9.166903496E0,6.221338734E-2
1.332143307E1,-1.507478207E-1,7.886743546E0,-1.036092162E0
1.333809973E1,-6.484549642E-1,6.719046116E0,-1.569691658E0
1.335476640E1,-6.484549642E-1,6.719046116E0,-1.569691658E0
1.337143307E1,-3.929014683E0,8.051848412E0,-1.627119422E0
1.338809973E1,-4.713860512E0,9.276973724E0,-2.440679073E-1
1.340476640E1,-1.945364833E0,1.106680489E1,1.559641838E1
1.342143306E1,1.986042857E-1,9.293723106E0,-2.581855536E0
1.343809973E1,-9.092725813E-2,8.803194046E0,-1.148554921E0
1.345476640E1,2.129612118E-1,9.533005714E0,3.065205812E0
1.347143306E1,7.178468108E-1,1.143051338E1,-2.261217356E0
1.348809973E1,2.634497643E0,1.100459099E1,2.775674164E-1
1.350476639E1,1.512263894E0,9.808179855E0,-3.139383316E0
1.352143306E1,1.483550072E0,1.181097221E1,-1.229910851E0
1.353809972E1,5.931807518E0,1.685743523E1,1.361516118E0
1.355476639E1,5.931807518E0,1.685743523E1,1.361516118E0
1.355476639E1,2.859423161E0,1.433540058E1,4.307080805E-1
1.358809972E1,1.706082582E0,6.108876228E0,1.730010748E0
1.360476639E1,-1.435693651E-1,2.158325911E0,2.464607239E0
1.362143306E1,-3.560520172E0,2.285145521E0,2.847458839E0
1.363809972E1,-3.998406649E0,3.230310678E0,1.842473388E0
1.365476639E1,-4.261617184E0,5.656632900E0,-2.500499725E0
1.367143305E1,-1.512263894E0,9.205188751E0,-4.864608288E0
1.368809972E1,-1.512263894E0,9.205188751E0,-4.864608288E0
1.370476639E1,1.129412293E0,1.455075455E1,7.525427341E0
1.372143305E1,-1.464407444E0,1.490249920E1,3.842873096E0
1.373809972E1,-4.421936035E0,1.122712421E1,4.606183529E0
1.375476638E1,-4.421936035E0,1.122712421E1,4.606183529E0
1.377143305E1,-3.617947817E0,7.635497093E0,-2.000399828E0
1.378809972E1,-5.216353536E-1,1.129172993E1,-9.052047729E0
1.380476638E1,1.153340459E0,1.034895802E1,-2.256431818E0
1.382143305E1,-2.684746981E0,1.010728264E1,1.588834286E0
1.383809971E1,-4.180261135E0,1.127976608E1,2.773281336E0
1.385476638E1,-1.363908887E0,9.229117393E0,1.270588875E0
1.387143305E1,1.138983607E0,1.099501991E1,-7.465606928E-1
1.388809971E1,1.392622828E0,1.318684578E1,-3.404986620E0
1.390476638E1,2.356930256E0,1.445743465E1,-4.804787636E0
1.392143304E1,2.014756680E0,1.244507027E1,-1.502692580E0
1.393809971E1,-7.609176040E-1,8.410771370E0,3.699303865E0
1.395476638E1,-7.369893789E-1,7.398607731E0,2.533999205E0
1.397143304E1,-3.708875179E-1,6.855436802E0,-1.639083505E0
1.398809971E1,-6.149554253E-1,6.187839508E0,-1.624726534E0
1.400476637E1,-6.149554253E-1,6.187839508E0,-1.624726534E0
1.402143304E1,-2.062613010E0,8.384450912E0,1.004985452E0
1.403809970E1,-1.864008784E0,1.000439167E1,9.817750931E0
1.405476637E1,-1.610369682E0,9.159725189E0,-3.395415306E0
1.407143304E1,-1.610369682E0,9.159725189E0,-3.395415306E0
1.408809970E1,-4.905286312E0,1.055234814E1,5.508277893E0
1.410476637E1,-2.433500528E0,1.212682533E1,3.373879790E-1
1.412143304E1,2.706282377E0,1.350509071E1,1.304088354E0
1.413809970E1,3.316452265E0,1.003071213E1,-1.818545222E0
1.415476637E1,2.117648125E0,9.312865257E0,-3.507878065E0
1.417143303E1,2.175075769E0,1.110987568E1,-3.036491871E0
1.418809970E1,2.175075769E0,1.110987568E1,-3.036491871E0
1.420476637E1,8.949156404E-1,1.023170948E1,1.088734269E0
1.422143303E1,0.000000000E0,8.894122124E0,7.513462901E-1
1.423809970E1,1.390229940E0,6.415157318E0,1.098305583E0
1.425476636E1,7.441678643E-1,4.149154663E0,2.155933142E0
1.427143303E1,-2.155933142E0,3.273381472E0,2.124826431E0
1.428809970E1,-2.512463808E0,3.378665686E0,1.804188251E0
1.430476636E1,-2.335394859E0,5.807380676E0,-1.617548108E0
1.430476636E1,-2.335394859E0,5.807380676E0,-1.617548108E0
1.433809969E1,-2.335394859E0,5.807380676E0,-1.617548108E0
1.435476636E1,-8.614161611E-1,1.445982742E1,2.641676188E0
1.437143303E1,-4.402793884E0,1.047577763E1,8.898907661E0
1.438809969E1,-4.402793884E0,1.047577763E1,8.898907661E0
1.440476636E1,-2.732603550E0,8.188239098E0,-1.021735311E0
1.442143302E1,-1.131805062E0,9.982855797E0,6.771687865E-1
1.443809969E1,3.893122435E0,1.157169056E1,-4.417150497E0
1.445476636E1,9.762716293E-1,1.134197903E1,-1.890329868E-1
1.447143302E1,-1.265803218E0,9.355937004E0,2.132004976E0
1.448809969E1,-9.643075466E-1,1.265324593E1,2.660818815E0
1.450476635E1,-7.489534616E-1,1.734078598E1,-1.890329868E-1
1.452143302E1,-2.392822644E-3,1.409133244E1,1.945364833E0
1.453809968E1,1.308874011E0,1.235175037E1,1.483550072E-1
1.455476635E1,1.366301775E0,1.067677498E1,-1.873580098E0
1.457143302E1,-2.608176768E-1,1.071266651E1,-1.957328916E0
1.458809968E1,-2.608176768E-1,1.094716358E1,-1.275374413E0
1.460476635E1,5.503492057E-2,1.077727318E1,-6.771687865E-1
1.462143302E1,-4.115654826E-1,8.633303642E0,3.787838221E0
1.463809968E1,-4.115654826E-1,8.633303642E0,3.787838221E0
1.465476635E1,-5.094319344E0,6.206982136E0,4.067798555E-1
1.467143301E1,-6.281159401E0,6.575476646E0,5.467599869E0
1.468809968E1,-3.464807272E0,7.386643410E0,-9.379864931E-1
1.470476635E1,-1.962114573E-1,3.967299938E0,-8.685946465E-1
1.472143301E1,1.765903115E0,4.173082829E0,-3.036491871E0
1.473809968E1,2.411965132E0,5.840879917E0,-8.255237937E-1
1.475476634E1,7.896314561E-2,9.791430473E0,-1.112662554E0
1.477143301E1,1.241874933E0,1.658943939E1,5.264209956E-2
1.478809968E1,4.553541660E0,1.883869362E1,2.170290232E0
1.480476634E1,1.603191137E0,1.482592869E1,2.919243574E-1
1.482143301E1,5.623133183E-1,8.578269005E0,9.571290575E-3
1.483809967E1,-2.057827473E0,4.474578381E0,7.422535896E0
1.485476634E1,-2.057827473E0,4.474578381E0,7.422535896E0
1.487143300E1,-3.309273720E0,4.331008911E0,4.515256405E0
1.488809967E1,-1.495514154E0,6.802794933E0,-4.010370731E0
1.490476634E1,6.221339107E-1,8.252845764E0,-3.493520975E0
1.492143300E1,7.178468108E-1,8.291130066E0,1.186840057E0
1.493809967E1,-1.004985496E-1,8.236095428E0,2.792423964E0
1.495476634E1,-2.383251429E0,7.401000500E0,8.657232285E0
1.497143300E1,-2.383251429E0,7.401000500E0,8.657232285E0
1.498809967E1,-4.716253281E0,1.046381378E1,-1.679761529E0
1.500476633E1,-7.896314859E-1,1.628555107E1,2.608176708E0
1.502143300E1,-7.896314859E-1,1.628555107E1,2.608176708E0
1.502143300E1,1.270588875E0,1.351226902E1,-8.944371223E0
1.505476633E1,-1.689332843E0,1.423729515E1,3.328416348E0
1.507143300E1,-1.942971945E0,1.109551907E1,3.306880951E0
1.508809966E1,2.273181528E-1,1.346919823E1,-1.835294962E0
1.510476633E1,-3.948157430E-1,1.133480072E1,-1.849651933E0
1.512143300E1,-6.005984545E-1,9.025727272E0,2.538784742E0
1.513809966E1,8.350951076E-1,7.341179848E0,-3.349951655E-2
1.515476633E1,-8.494520187E-1,7.884350777E0,-3.292523861E0
1.517143299E1,-8.494520187E-1,7.884350777E0,-3.292523861E0
1.518809966E1,-1.009771109E0,1.098544884E1,-1.966900229E0
1.520476633E1,-8.135597110E-1,1.214596748E1,1.004985496E-1
1.522143299E1,-8.135597110E-1,1.214596748E1,1.004985496E-1
1.523809966E1,-2.129612207E0,8.559126854E0,3.010170937E0
1.525476632E1,-1.940579176E0,7.865208149E0,2.158325911E0
1.527143299E1,3.876372576E-1,6.936792850E0,1.205264759E1
1.528809966E1,3.110669553E-1,8.724231720E0,-5.450850010E0
1.530476632E1,3.110669553E-1,8.724231720E0,-5.450850010E0
1.532143299E1,-1.847259045E0,1.177986622E1,-1.820937991E0
1.533809965E1,6.412764788E-1,1.253839111E1,-1.184447169E0
1.535476632E1,-1.746760458E-1,1.340459251E1,-2.323430777E0
1.537143298E1,-9.643075466E-1,1.564188194E1,-1.557727575E0
1.538809965E1,-1.270588875E0,1.675933075E1,-1.170090318E0
1.540476632E1,-3.596412420E0,2.346880531E1,2.816352367E0
1.542143298E1,-1.093519926E0,2.916372299E1,1.701296926E0
1.543809965E1,3.900300980E0,2.260021019E1,-5.000999570E-1
1.545476632E1,5.398207664E0,1.650808334E1,-2.246860504E0
1.547143298E1,5.709274769E0,9.516255379E0,-3.342773199E0
1.548809965E1,2.213361025E0,6.498906136E0,-2.464607239E0
1.550476631E1,1.048056364E0,1.931007862E0,-3.924229145E0
1.552143298E1,8.470591903E-1,2.909672260E0,-1.775474429E0
1.553809964E1,4.814359188E0,7.085147858E0,2.395215511E0
1.555476631E1,6.771687984E0,9.693324089E0,3.761517286E0
1.557143298E1,7.551748276E0,9.253045082E0,4.857429981E0
1.558809964E1,6.652047157E0,4.553541660E0,5.158925533E0
1.560476631E1,2.605783939E0,3.804588020E-1,4.328616142E0
1.562143298E1,-2.342573404E0,1.603191137E0,4.639683247E0
1.563809964E1,-3.366701365E0,3.622733593E0,4.737788677E0
1.565476631E1,-2.567498684E0,8.178668022E0,3.225524902E0
1.567143297E1,-2.438286304E0,1.481875038E1,3.005385160E0
1.568809964E1,-3.778266907E0,1.471825218E1,-1.129412293E0
1.570476631E1,-4.170690060E0,1.269153118E1,-4.728217602E0
1.572143297E1,-7.700103283E0,7.688138962E0,-7.121040344E0
1.573809964E1,8.470591903E-1,8.410771370E0,2.169811630E1
1.575476630E1,8.470591903E-1,8.410771370E0,2.169811630E1
1.577143297E1,2.179861546E0,2.364587402E1,-1.277049446E1
1.578809964E1,1.976471543E0,1.736471367E1,3.792623997E0
1.580476630E1,-6.652047038E-1,6.908079147E0,-5.831308842E0
1.582143297E1,-4.642075896E-1,4.790431023E0,-5.166104317E0
1.583809963E1,1.411765367E-1,5.048855782E0,-2.981456995E0
1.585476630E1,1.749153376E0,7.499105930E0,6.838686943E0
1.587143296E1,-8.374879509E-2,1.046859932E1,-2.847459018E-1
1.587143296E1,-8.374879509E-2,1.046859932E1,-2.847459018E-1
1.590476630E1,5.742774159E-2,1.378265858E1,1.232303619E0
1.592143296E1,-1.667797327E0,1.202871990E1,-3.684946895E-1
1.593809963E1,-8.877372146E-1,9.793823242E0,3.684946895E-1
1.595476630E1,-3.326023519E-1,8.240880966E0,1.698904037E-1
1.597143296E1,-1.866401732E-1,7.707281590E0,-9.571290761E-2
1.598809963E1,9.068797827E-1,7.953742504E0,1.555334687E0
1.600476629E1,8.805587292E-1,8.913264275E0,8.135596663E-2
1.602143296E1,8.805587292E-1,8.913264275E0,8.135596663E-2
1.603809962E1,1.794616938E0,8.238488197E0,7.968099117E-1
1.605476629E1,2.110469580E0,8.401200294E0,-5.407779217E-1
1.607143296E1,4.098905087E0,5.965306759E0,-1.100698471E0
1.608809962E1,4.098905087E0,5.965306759E0,-1.100698471E0
1.608809962E1,1.584048629E0,8.389236450E0,6.675975323E-1
1.612143296E1,-9.499505758E-1,1.013360405E1,-2.153540403E-1
1.613809962E1,9.523434043E-1,1.017188931E1,3.996013701E-1
1.615476629E1,9.284151793E-1,9.932606697E0,4.378865361E-1
1.617143295E1,-3.828516230E-2,9.245866776E0,1.052841991E-1
1.618809962E1,-1.818545163E-1,9.990034103E0,-2.105683982E-1
1.620476628E1,-6.532405615E-1,1.099023438E1,8.398807645E-1
1.622143295E1,-9.738788009E-1,1.151426220E1,1.646261930E0
1.623809962E1,-2.842673302E0,1.328973675E1,2.009970903E0
1.625476628E1,-2.842673302E0,1.328973675E1,2.009970903E0
1.627143295E1,-3.340380430E0,1.327777290E1,1.670190215E0
1.628809962E1,-2.201396942E0,1.253839111E1,3.278166950E-1
1.630476628E1,-1.174875975E0,1.151904774E1,-1.069591761E0
1.632143295E1,-5.278566837E0,1.131805134E1,-4.543970108E0
1.633809961E1,-5.278566837E0,1.131805134E1,-4.543970108E0
1.635476628E1,-2.945564747E0,1.256710434E1,2.392822742E0
1.637143295E1,-1.435693540E-2,1.086341476E1,-4.371686935E0
1.638809961E1,1.962114573E0,1.187318611E1,-4.225724697E0
1.640476628E1,1.962114573E0,1.187318611E1,-4.225724697E0
1.642143294E1,1.840080619E0,1.664686775E1,-2.048256159E0
1.643809961E1,2.940778971E0,2.052084732E1,1.540977836E0
1.645476628E1,5.828916073E0,1.878126526E1,3.802195072E0
1.647143294E1,5.828916073E0,1.878126526E1,3.802195072E0
1.648809961E1,5.314459324E0,9.798608780E0,-4.173082829E0
1.650476627E1,1.261017561E0,6.362515450E0,-3.921836376E0
1.652143294E1,1.261017561E0,6.362515450E0,-3.921836376E0
1.653809960E1,-5.084748268E0,1.032263660E1,-1.792224169E0
1.655476627E1,-4.426722050E0,9.267401695E0,-7.944171429E-1
1.657143294E1,-2.823530734E-1,7.683353424E0,-2.261217356E0
1.658809960E1,2.926422119E0,7.365108013E0,-1.753939033E0
1.660476627E1,6.496513367E0,6.077769279E0,3.206382394E-1
1.662143294E1,7.915457249E0,5.005784988E0,1.371087432E0
1.663809960E1,7.881958008E0,2.469393015E0,3.974478483E0
1.665476627E1,4.766502857E0,-8.398807645E-1,5.929414749E0
1.667143293E1,1.363908887E0,-3.445664644E-1,5.285745144E0
1.668809960E1,1.198804140E0,7.752745152E-1,4.761716843E0
1.670476626E1,9.451649189E-1,3.218346357E0,1.969292998E0
1.672143293E1,1.122233868E0,5.151747227E0,7.298108935E-1
1.673809960E1,7.920243144E-1,6.374479294E0,-1.203589797E0
1.675476626E1,-7.417750359E-1,1.031785107E1,-4.364508629E0
1.677143293E1,-4.754538536E0,1.425404453E1,1.557488251E1
1.678809960E1,-4.754538536E0,1.425404453E1,1.557488251E1
1.680476626E1,-6.967899323E0,1.181336498E1,-5.113461971E0
1.682143293E1,-4.015156269E0,5.319244862E0,6.369693756E0
1.683809959E1,-4.469792843E0,1.825723648E0,1.113858986E1
1.685476626E1,-2.313859463E0,8.329415321E0,-7.755138397E0
1.687143292E1,2.679961324E-1,1.399083424E1,-9.580862045E0
1.688809959E1,9.382257462E0,2.839084053E1,3.926621914E0
1.690476626E1,5.359922647E-1,1.640758514E1,-2.660818815E0
1.692143292E1,-4.280759811E0,9.188439369E0,3.215953588E0
1.693809959E1,-4.137190342E0,7.298109055E0,2.646461725E0
1.695476626E1,9.451649189E-1,8.080561638E0,2.153540373E0
1.697143292E1,1.292124271E0,9.896714211E0,-2.041077614E0
1.698809959E1,-4.809573591E-1,9.738788605E0,-1.062413216E0
1.700476625E1,-1.194018483E0,9.834501266E0,-6.221339107E-1
1.702143292E1,-2.751746178E-1,1.066241741E1,3.732803464E-1
1.703809958E1,1.167697430E0,1.076530933E1,-2.823530734E-1
1.705476625E1,1.390229940E0,9.420542717E0,-1.926222205E0
1.707143292E1,3.852444589E-1,8.456234932E0,-1.926222205E0
1.708809958E1,-1.390229940E0,7.968099594E0,-6.628118753E-1
1.710476625E1,-3.287738323E0,8.654839516E0,1.357448292E1
1.712143292E1,-9.140582681E-1,9.477970123E0,-9.116654396E-1
1.713809958E1,-1.725225091E0,9.475577354E0,-1.928615093E0
1.715476625E1,-3.031706333E0,1.102134132E1,1.816152334E0
1.717143291E1,-3.235096216E0,1.293081379E1,1.426122308E0
1.718809958E1,-2.227717876E0,1.510110378E1,9.236295223E-1
1.720476625E1,-4.618147612E-1,1.591466331E1,2.136790514E0
1.722143291E1,1.818545163E-1,1.336152172E1,-1.914258152E-1
1.723809958E1,1.473978758E0,1.080598736E1,-2.270788670E0
1.725476624E1,1.473978758E0,1.080598736E1,-2.270788670E0
1.727143291E1,6.285944939E0,1.002114105E1,7.800601721E-1
1.728809958E1,5.412564754E0,9.487542152E0,-7.680960894E-1
1.730476624E1,3.704089403E0,8.848658562E0,-1.722832322E-1
1.732143291E1,3.933800459E0,7.752745152E0,7.106683254E-1
1.733809957E1,2.524427891E0,2.754138947E0,3.854837179E0
1.735476624E1,-1.990828395E0,-1.282552958E0,5.091926575E0
1.737143291E1,-4.969892502E0,-2.076970100E0,7.271788120E0
1.738809957E1,-4.699503899E0,9.523434043E-1,5.730810165E0
1.740476624E1,-5.190032482E0,5.201996326E0,-3.249453068E0
1.742143290E1,-3.038884640E0,1.154776192E1,-6.187839508E0
1.743809957E1,-6.675975323E-1,1.894397736E1,-5.757131100E0
1.745476624E1,-1.105484009E0,2.318645096E1,1.544806290E1
1.747143290E1,-1.933400750E0,1.611087418E1,2.340180635E0
1.748809957E1,-3.780659676E0,7.764709473E0,3.098705292E0
1.750476623E1,-4.867001057E0,7.243073940E0,1.079162955E0
1.752143290E1,-4.658825874E0,7.496713161E0,-2.486142635E0
1.753809956E1,1.138983607E0,1.196172047E1,-5.584847927E0
1.755476623E1,1.138983607E0,1.196172047E1,-5.584847927E0
1.757143290E1,-3.227917671E0,9.975677490E0,1.665404558E0
1.758809956E1,-2.467000246E0,8.061419487E0,3.474378586E0
1.760476623E1,7.465606928E-1,8.855836868E0,1.086341500E0
1.762143290E1,8.255237937E-1,1.274178028E1,-3.153740168E0
1.763809956E1,1.773081541E0,1.359362507E1,4.785645381E-2
1.765476623E1,2.210968018E0,1.306241894E1,2.770888567E0
1.767143289E1,2.392822690E-2,1.086102200E1,1.308874011E0
1.768809956E1,-5.910272002E-1,9.020941734E0,4.402793646E-1
1.770476622E1,-3.661018610E-1,8.714659691E0,-1.619940877E0
1.772143289E1,-5.862415433E-1,8.559126854E0,-2.277967215E0
1.773809956E1,-2.306680918E0,8.102097511E0,-2.297109842E0
1.775476622E1,-4.673182487E0,8.322237015E0,1.793659782E1
1.777143289E1,-4.673182487E0,8.322237015E0,1.793659782E1
1.778809956E1,-1.952543259E0,6.541976929E0,-3.711267948E0
1.780476622E1,-4.077369690E0,5.431707382E0,3.931407690E0
1.782143289E1,-2.622533560E0,4.972285271E0,-7.680960894E-1
1.783809955E1,-2.622533560E0,4.972285271E0,-7.680960894E-1
1.785476622E1,2.141576290E0,8.391629219E0,-4.328616142E0
1.787143288E1,2.072184324E0,1.121515942E1,-4.960321426E0
1.788809955E1,2.962314367E0,1.692443466E1,-2.392822653E-1
1.790476622E1,4.400400639E0,2.020260239E1,2.036292076E0
1.792143288E1,1.586441398E0,1.730010796E1,2.333002090E0
1.793809955E1,8.039883971E-1,9.164510727E0,3.354737282E0
1.795476622E1,-5.886343718E-1,2.821137905E0,6.965506554E0
1.797143288E1,-2.055434704E0,1.033699393E0,4.472185612E0
1.798809955E1,-2.596212626E0,-1.421336651E0,-6.508477330E-1
1.800476621E1,-1.476371527E0,3.259024382E0,-4.101297855E0
1.802143288E1,-1.476371527E0,3.259024382E0,-4.101297855E0
1.803809954E1,1.950150490E0,6.910471916E0,-3.414557934E0
1.805476621E1,1.514656782E0,7.697710514E0,3.517449379E0
1.807143288E1,1.514656782E0,7.697710514E0,3.517449379E0
1.808809954E1,-1.136351490E1,1.232542896E1,-3.263810158E0
1.810476621E1,-8.429914474E0,1.768295860E1,1.220339537E-1
1.812143288E1,1.686939955E0,2.197089767E1,-1.935793519E0
1.813809954E1,7.274180651E-1,1.088734341E1,-8.327022791E-1
1.815476621E1,8.063812256E-1,9.841679573E0,-2.823530734E-1
1.817143287E1,7.082754970E-1,9.611968994E0,3.766302824E0
1.818809954E1,-1.174875975E0,1.124626637E1,-8.422735929E-1
1.820476621E1,-3.397808075E0,1.316530991E1,-3.692125320E0
1.822143287E1,-3.397808075E0,1.316530991E1,-3.692125320E0
1.823809954E1,-7.106683254E-1,9.300901413E0,1.844866276E0
1.825476620E1,3.086741269E-1,7.728816986E0,-1.514656782E0
1.827143287E1,-2.170290232E0,7.678567886E0,6.544369698E0
1.828809954E1,-3.713660717E0,7.812565804E0,2.304288149E0
1.830476620E1,-4.046263218E0,7.477570534E0,-4.091726840E-1
1.832143287E1,-3.019742250E0,5.544169903E0,-1.390229940E0
1.833809953E1,-2.632104874E0,4.778466702E0,2.177468538E-1
1.835476620E1,-2.632104874E0,4.778466702E0,2.177468538E-1
1.837143287E1,6.891329288E-1,1.493360615E1,-1.703689694E0
1.838809953E1,4.261617184E0,1.884108543E1,-2.199003935E0
1.840476620E1,4.261617184E0,1.884108543E1,-2.199003935E0
1.842143286E1,3.914657831E0,1.417508125E1,3.026920557E0
1.843809953E1,1.339980721E0,1.205025482E1,3.723232031E0
1.845476620E1,2.254039049E0,5.840879917E0,1.576870084E0
1.847143286E1,-3.254238665E-1,2.600998163E0,6.652047038E-1
1.848809953E1,-1.703689694E0,2.179861546E0,1.160519004E0
1.850476619E1,-2.237289190E0,3.201596737E0,7.417750359E-2
1.852143286E1,-2.481357098E0,5.407779217E0,-2.033899307E0
1.853809952E1,-1.411765337E0,6.352943897E0,-3.445664644E-1
1.855476619E1,-2.586641312E0,6.764509678E0,3.672982693E0
1.857143286E1,-8.461020470E0,1.064327526E1,2.096112728E0
1.858809952E1,-6.190232277E0,1.661576080E1,2.639283419E0
1.860476619E1,-1.505085468E0,1.652004814E1,-2.629712105E0
1.862143286E1,-8.709874153E-1,1.174397373E1,-3.948157430E-1
1.863809952E1,-3.589234054E-1,7.441678524E0,-4.814359188E0
1.865476619E1,1.701296926E0,9.655039787E0,-2.333002090E0
1.867143285E1,1.701296926E0,9.655039787E0,-2.333002090E0
1.868809952E1,-3.302095234E-1,1.995135498E1,7.183253765E0
1.870476618E1,-3.349951744E0,1.616591072E1,9.427721500E-1
1.872143285E1,-5.862415433E-1,1.220578861E1,-2.215753794E0
1.873809952E1,1.464407444E0,1.119601727E1,-6.149554253E-1
1.875476618E1,7.609176040E-1,1.038006496E1,-5.264209956E-2
1.877143285E1,-9.571290612E-1,7.087540627E0,3.555734396E0
1.878809952E1,-2.828316450E0,6.398407936E0,1.392622828E0
1.880476618E1,-4.610969067E0,5.929414749E0,7.082754970E-1
1.882143285E1,-6.001199245E0,5.029713154E0,5.407779217E-1
1.883809951E1,-5.666203976E0,5.642275810E0,-1.624726534E0
1.885476618E1,-5.312066078E-1,7.716853142E0,3.455235958E0
1.887143284E1,3.443271875E0,9.942177773E0,-2.763710260E0
1.888809951E1,3.337987661E0,9.738788605E0,-6.608976364E0
1.890476618E1,3.515056372E0,1.176311588E1,-1.270588875E0
1.892143284E1,2.299502611E0,1.426122284E1,-2.220539331E0
1.893809951E1,1.316052437E0,1.381137276E1,2.823530674E0
1.895476618E1,1.009771109E0,1.228714466E1,4.307080746E0
1.897143284E1,-1.722832322E-1,7.085147858E0,3.172882795E0
1.898809951E1,-3.132204771E0,2.366501570E0,3.223132133E0
1.900476617E1,-3.469592810E0,-2.943171859E-1,1.165304661E0
1.902143284E1,-3.830909014E0,9.451649189E-1,-6.317051649E-1
1.903809950E1,-1.138983607E0,4.376472473E0,-1.598405480E0
1.905476617E1,8.111668825E-1,6.276373863E0,1.229671574E1
1.907143284E1,2.026720762E0,1.032981491E1,2.007338905E1
1.908809950E1,-3.629911900E0,1.338544941E1,-1.012403297E1
1.910476617E1,9.236295223E-1,1.774756622E1,-3.589233875E0
1.912143284E1,-2.505285263E0,1.823570061E1,2.931207657E0
1.913809950E1,-6.190232277E0,1.852762604E1,5.704489231E0
1.915476617E1,-2.708675146E0,1.163629627E1,1.902294040E0
1.917143283E1,-2.744567633E0,9.899106979E0,-1.387837082E-1
1.918809950E1,-2.213361025E0,1.300977707E1,5.670989752E-1
1.920476617E1,-1.203589797E0,1.382333660E1,4.905286431E-1
1.922143283E1,-1.112662554E0,1.139462185E1,-2.876172781E0
1.923809950E1,-2.179861546E0,9.269794464E0,9.257830620E0
1.925476616E1,-1.849651933E0,7.051648140E0,-1.380658627E0
1.927143283E1,-4.481756687E0,5.773880959E0,-1.000199914E0
1.928809950E1,-8.157132149E0,6.104090691E0,5.120640278E0
1.930476616E1,-4.771288395E0,5.950950146E0,1.292124242E-1
1.932143283E1,-1.359123230E0,4.230510235E0,-2.177468538E0
1.933809949E1,-4.067798331E-2,5.089533806E0,-4.682754040E0
1.935476616E1,2.301895380E0,9.559326172E0,-4.823930264E0
1.937143283E1,2.756531715E0,1.222732353E1,2.321037948E-1
1.938809949E1,1.033699393E0,1.611805344E1,2.565105915E0
1.940476616E1,6.987041831E-1,1.631187248E1,2.746960402E0
1.942143282E1,2.208575249E0,1.420379543E1,4.759324074E0
1.943809949E1,2.208575249E0,1.420379543E1,4.759324074E0
1.945476616E1,5.790630579E-1,2.531606436E0,1.674975872E0
1.947143282E1,-2.435893536E0,2.464607358E-1,3.005385160E0
1.948809949E1,-6.185446739E0,-6.735795975E0,2.249253273E0
1.950476615E1,-5.221138954E0,1.447657704E0,6.053841114E-1
1.952143282E1,-3.608376503E0,5.187639713E0,6.939185411E-2
1.953809948E1,-1.682154298E0,9.571290970E0,8.566305041E-1
1.955476615E1,-1.682154298E0,9.571290970E0,8.566305041E-1
1.957143282E1,2.574677229E0,2.554816818E1,-5.194818020E0
1.958809948E1,2.574677229E0,2.554816818E1,-5.194818020E0
1.960476615E1,5.450850010E0,1.553899002E1,-3.230310678E0
1.962143282E1,-3.931407690E0,2.164068794E1,-6.494120598E0
1.963809948E1,-1.152383423E1,1.413201046E1,1.619223022E1
1.965476615E1,-1.152383423E1,1.413201046E1,1.619223022E1
1.967143281E1,4.761717021E-1,9.178867340E0,-4.711467743E0
1.968809948E1,4.153940201E0,1.023410225E1,-4.871787071E0
1.970476614E1,4.153940201E0,1.023410225E1,-4.871787071E0
1.972143281E1,-1.428515077E0,1.321316624E1,2.983849764E0
1.973809948E1,-7.417750359E-1,1.381615829E1,2.682354212E0
1.975476614E1,2.579462767E0,1.095194912E1,-3.304488182E0
1.977143281E1,2.579462767E0,1.095194912E1,-3.304488182E0
1.978809948E1,-3.134597778E0,6.972685337E0,3.704089403E0
1.980476614E1,-6.173482537E-1,1.154776192E1,8.425128937E0
1.982143281E1,-6.173482537E-1,1.154776192E1,8.425128937E0
1.983809947E1,-4.955535889E0,8.398807526E0,9.635896683E0
1.985476614E1,-4.441078663E0,7.128218651E0,4.560719967E0
1.987143280E1,-3.098705292E0,7.958528042E0,4.204189301E0
1.988809947E1,-3.783052683E0,6.025127411E0,7.640282631E0
1.990476614E1,-5.845665932E0,5.156532764E0,1.890329838E0
1.992143280E1,-3.811766386E0,5.560919762E0,-2.048256159E0
1.993809947E1,-4.881358147E-1,8.195417404E0,-1.338784313E1
1.995476614E1,-2.218146563E0,1.740299988E1,3.041277647E0
1.997143280E1,-5.754738331E0,2.103291130E1,3.866801500E0
1.998809947E1,-3.651447296E0,1.895594025E1,-2.347358942E0
2.000476613E1,-2.577069998E0,1.729771423E1,-3.359523058E0
2.002143280E1,-2.333002090E0,1.955414581E1,1.217946768E0
2.003809947E1,-8.135596663E-2,1.925743675E1,3.038884699E-1
2.005476613E1,1.253839016E0,1.802273941E1,-2.321038008E0
2.007143280E1,2.038684845E0,1.499103355E1,-5.168497086E0
2.008809946E1,2.038684845E0,1.499103355E1,-5.168497086E0
2.008809946E1,1.392622828E0,1.290209961E1,-6.013163090E0
2.012143280E1,-2.586641312E0,1.048774147E1,1.406979680E0
2.013809946E1,-4.015156269E0,1.266760349E1,-1.844866276E0
2.015476613E1,-2.514856577E0,9.399007797E0,-3.708875179E-1
2.017143279E1,-2.514856577E0,9.399007797E0,-3.708875179E-1
2.018809946E1,2.907279491E0,6.637690067E0,-2.299502611E0
2.020476613E1,4.579862595E0,5.888736725E0,1.512263894E0
2.022143279E1,4.151547432E0,8.106883049E0,7.657032460E-2
2.023809946E1,4.527220249E0,8.985049248E0,-5.024927482E-2
2.023809946E1,4.527220249E0,8.985049248E0,-5.024927482E-2
2.027143279E1,4.666004181E0,6.635297298E0,3.696911097E0
2.028809946E1,4.666004181E0,6.635297298E0,3.696911097E0
2.030476612E1,3.053241730E0,2.378465652E0,3.326023579E0
2.032143279E1,-2.816352367E0,3.976871252E0,3.440878868E0
2.033809945E1,-8.094919205E0,7.161718369E0,5.594419479E0
2.035476612E1,-8.094919205E0,7.161718369E0,5.594419479E0
2.037143278E1,-8.738588333E0,9.408578873E0,-1.423729420E0
2.038809945E1,-6.896114826E0,8.571090698E0,-6.116054535E0
2.040476612E1,-6.896114826E0,8.571090698E0,-6.116054535E0
2.042143278E1,-5.795416355E0,5.570491314E0,-1.277767301E0
2.043809945E1,-5.187639713E0,5.931807518E0,-8.949156404E-1
2.045476612E1,-1.627119422E0,1.311745358E1,7.680960894E-1
2.047143278E1,2.112862349E0,2.942453957E1,5.453242779E0
2.048809945E1,1.088016415E1,3.543291855E1,1.200000572E1
2.050476611E1,5.558526993E0,1.992742729E1,1.028913707E-1
2.052143278E1,2.476571321E0,4.730610371E0,-7.637889862E0
2.053809944E1,1.454836130E0,3.103491068E0,-4.895715237E0
2.055476611E1,1.454836130E0,3.103491068E0,-4.895715237E0
2.057143278E1,8.805587292E-1,4.302295208E0,2.177468538E-1
2.058809944E1,9.236295223E-1,7.570890903E0,6.269195080E-1
2.060476611E1,-6.963114142E-1,1.110987568E1,1.172483087E0
2.062143278E1,-6.364908218E-1,1.046381378E1,-5.814558864E-1
2.063809944E1,4.618147612E-1,9.942177773E0,-2.201396942E0
2.065476611E1,1.045663476E0,8.595019341E0,-4.216153622E0
2.067143277E1,1.045663476E0,8.595019341E0,-4.216153622E0
2.067143277E1,1.086341500E0,6.946363926E0,-1.584048629E0
2.070476610E1,-9.332008362E-1,7.489534855E0,2.043231201E1
2.072143277E1,-1.194018483E0,7.977670670E0,-2.797209740E0
2.073809944E1,-4.144368649E0,1.004267693E1,-4.120440483E0
2.075476610E1,-4.144368649E0,1.004267693E1,-4.120440483E0
2.077143277E1,-2.555534601E0,9.418149948E0,7.178468257E-2
2.078809944E1,-1.804188251E0,7.106683254E0,2.469393015E0
2.080476610E1,-1.127019525E0,6.001199245E0,2.057827413E-1
2.082143277E1,-1.127019525E0,6.001199245E0,2.057827413E-1
2.083809943E1,-3.876372576E-1,7.424928665E0,-1.710868239E0
2.085476610E1,-1.083948612E0,9.975677490E0,-3.278166950E-1
2.087143276E1,-2.007578135E0,9.982855797E0,-5.431707501E-1
2.088809943E1,-1.782652855E0,9.432506561E0,1.028913707E-1
2.090476610E1,-1.409372568E0,9.269794464E0,8.183453679E-1
2.092143276E1,-9.714859724E-1,9.942177773E0,1.127019525E0
2.093809943E1,-2.024327993E0,9.710074425E0,1.983649969E0
2.095476610E1,-2.921636343E0,8.465806961E0,1.555334687E0
2.097143276E1,-3.388236761E0,6.398407936E0,1.141376376E0
2.098809943E1,-3.254238844E0,6.209374905E0,2.146361828E0
2.100476609E1,-1.653440475E0,7.209574699E0,-1.864008784E0
2.102143276E1,-4.187439680E-1,7.575676441E0,-2.909672260E0
2.103809943E1,2.447857618E0,8.228917122E0,-5.599204898E-1
2.105476609E1,3.144168854E0,8.169096947E0,-1.756331801E0
2.107143276E1,3.144168854E0,8.169096947E0,-1.756331801E0
2.108809942E1,3.261417150E0,1.537867069E1,-1.957328916E0
2.110476609E1,7.563712597E0,2.398326111E1,5.249852657E0
2.112143276E1,3.730410576E0,1.518006706E1,3.495913982E0
2.113809942E1,3.730410576E0,1.518006706E1,3.495913982E0
2.115476609E1,8.350951076E-1,8.829515576E-1,1.935793519E0
2.117143275E1,-7.657032609E-1,-2.557927370E0,-3.613162339E-1
2.118809942E1,-2.529213428E0,4.508078098E0,1.032024384E1
2.120476609E1,-8.087740541E-1,1.039442158E1,5.245067120E0
2.122143275E1,8.542376757E-1,1.267238903E1,-2.991028428E-1
2.123809942E1,3.689732552E0,1.621615982E1,-6.544369698E0
2.125476608E1,3.689732552E0,1.621615982E1,-6.544369698E0
2.127143275E1,3.689732552E0,1.621615982E1,-6.544369698E0
2.128809942E1,-7.800601959E0,5.991627693E0,6.616154671E0
2.130476608E1,-1.094716358E1,2.641676188E0,1.320838094E0
2.132143275E1,-2.672782898E0,1.327777290E1,2.057827413E-1
2.133809941E1,-2.672782898E0,1.327777290E1,2.057827413E-1
2.135476608E1,2.199003935E0,1.423250866E1,-2.335394859E0
2.137143274E1,-1.983649969E0,6.388836384E0,2.991028428E-1
2.138809941E1,-5.240281820E-1,5.149354458E0,2.859423161E0
2.140476608E1,-5.240281820E-1,5.149354458E0,2.859423161E0
2.142143274E1,-9.427721500E-1,1.823809433E1,-2.914458036E0
2.143809941E1,-4.187439680E-1,1.766381645E1,5.252245903E0
2.145476608E1,-4.187439680E-1,1.766381645E1,5.252245903E0
2.147143274E1,-9.332008362E-1,9.824930191E0,-8.662018180E-1
2.148809941E1,-6.125625968E-1,8.719446182E0,-1.251446247E0
2.150476607E1,-5.288137794E-1,8.927620888E0,-2.057827473E0
2.152143274E1,-5.407779217E-1,9.427721024E0,-2.615355253E0
2.153809940E1,-2.196611166E0,9.573683739E0,-4.498506486E-1
2.155476607E1,-4.091726780E0,1.106919765E1,1.023888779E1
2.157143274E1,-4.091726780E0,1.106919765E1,1.023888779E1
2.158809940E1,-2.457428932E0,6.999006271E0,1.622333765E0
2.160476607E1,-2.706282377E0,6.470192432E0,-7.417750359E-2
2.162143274E1,2.632105052E-1,6.518048763E0,-2.072184324E0
2.163809940E1,2.129612118E-1,9.576076508E0,-3.436093330E0
2.165476607E1,2.129612118E-1,9.576076508E0,-3.436093330E0
2.167143273E1,-3.110669553E-1,1.207657623E1,-2.201396823E-1
2.168809940E1,3.419343472E0,1.263171101E1,-3.780659735E-1
2.170476606E1,3.546163082E0,1.233021545E1,-3.637090325E-1
2.172143273E1,1.895115495E0,1.047338486E1,1.158126116E0
2.173809940E1,2.057827473E0,9.255437851E0,2.282752752E0
2.175476606E1,2.486142635E0,6.044270039E0,4.321437836E0
2.177143273E1,2.486142635E0,6.044270039E0,4.321437836E0
2.178809940E1,-3.785445452E0,-1.172483116E-1,5.532206059E0
2.180476606E1,-2.402393818E0,3.783052683E0,5.570491314E0
2.182143273E1,-2.402393818E0,3.783052683E0,5.570491314E0
2.183809939E1,3.771088600E0,1.142572784E1,-2.481357098E0
2.185476606E1,3.771088600E0,1.142572784E1,-2.481357098E0
2.187143273E1,7.178467698E-3,1.134676456E1,-1.828116536E0
2.188809939E1,-8.374878883E0,1.030110168E1,-1.526620865E0
2.190476606E1,-1.290927792E1,9.097511292E0,7.616354465E0
2.192143272E1,-4.206582069E0,1.488335705E1,7.812565804E0
2.193809939E1,-4.304687977E0,1.754178238E1,3.141776085E0
2.195476606E1,4.082155228E0,1.122233772E1,-6.029912829E-1
2.197143272E1,4.771288395E0,9.375079155E0,-6.604190350E0
2.198809939E1,4.771288395E0,9.375079155E0,-6.604190350E0
2.200476605E1,-2.914458036E0,1.468714523E1,1.522792339E1
2.202143272E1,-3.694518089E0,1.247617722E1,-2.560320199E-1
2.203809939E1,-3.694518089E0,1.247617722E1,-2.560320199E-1
2.205476605E1,3.589234054E-1,1.098066330E1,-1.933400750E0
2.207143272E1,-3.326023519E-1,8.566305161E0,-2.890529871E0
2.208809938E1,-3.326023519E-1,8.566305161E0,-2.890529871E0
2.210476605E1,-8.135597229E0,4.934000492E0,4.398007870E0
2.212143272E1,-5.424529076E0,5.091926575E0,-3.498306751E0
2.213809938E1,-2.536391973E0,5.022534847E0,-8.781659007E-1
2.215476605E1,-1.770688742E-1,4.161118507E0,3.340380430E0
2.217143271E1,3.388236761E0,8.702695847E0,-3.560520172E0
2.218809938E1,5.029713154E0,1.020299530E1,-3.546163082E0
2.220476605E1,5.548955917E0,1.224885941E1,-6.168696880E0
2.222143271E1,4.960321426E0,1.559881115E1,-4.546363056E-1
2.223809938E1,4.960321426E0,1.559881115E1,-4.546363056E-1
2.225476604E1,-3.881158352E0,1.461775398E1,3.448057413E0
2.227143271E1,-1.418943882E0,5.438885689E0,1.103091240E0
2.228809938E1,2.751746178E-1,5.144568682E-1,8.374879509E-2
2.230476604E1,5.886343718E-1,5.472385406E0,-2.091326952E0
2.232143271E1,1.186840057E0,6.104090691E0,-3.108276606E0
2.233809937E1,1.296909928E0,5.218746185E0,-2.079362869E0
2.235476604E1,1.296909928E0,5.218746185E0,-2.079362869E0
2.237143270E1,-4.189832687E0,1.023888779E1,-5.558526993E0
2.238809937E1,-7.475177765E0,1.349791241E1,-1.292842102E1
2.240476604E1,-1.043749237E1,2.444268417E1,3.078366280E1
2.242143270E1,-1.043749237E1,2.444268417E1,3.078366280E1
2.243809937E1,2.191825628E0,4.577469826E0,3.426522017E0
2.245476604E1,2.141576290E0,9.805787086E0,-4.979464054E0
2.247143270E1,-8.279166222E-1,1.700100517E1,2.864208698E0
2.248809937E1,-8.279166222E-1,1.700100517E1,2.864208698E0
2.250476603E1,-7.089933395E0,9.200403214E0,-9.068797827E-1
2.252143270E1,-3.316452265E0,9.413364410E0,-1.354337573E0
2.253809936E1,-7.561319470E-1,1.034417248E1,2.629712105E0
2.255476603E1,-7.561319470E-1,1.034417248E1,2.629712105E0
2.257143270E1,-3.677768469E0,9.078369141E0,-9.858429432E-1
2.258809936E1,-2.730210543E0,7.336394310E0,-5.027320385E0
2.260476603E1,-3.445664644E-1,7.018148899E0,3.306880951E0
2.262143270E1,-3.445664644E-1,7.018148899E0,3.306880951E0
2.263809936E1,1.789831281E0,1.177747345E1,-3.340380430E0
2.265476603E1,2.600998163E0,1.444786358E1,-5.623133183E0
2.267143269E1,3.567698479E0,1.672822380E1,-6.125625968E-1
2.268809936E1,3.567698479E0,1.672822380E1,-6.125625968E-1
2.270476602E1,2.258824587E0,1.359601784E1,3.445664644E-1
2.272143269E1,3.948157430E-1,3.845266104E0,-2.567498684E0
2.273809936E1,1.397408366E0,-2.069791555E0,7.872386575E-1
2.275476602E1,1.397408366E0,-2.069791555E0,7.872386575E-1
2.277143269E1,-4.474578202E-1,-1.866401732E-1,1.122473145E1
2.278809936E1,2.823530734E-1,2.450250387E0,-1.696511269E0
2.280476602E1,1.890329868E-1,6.216553211E0,-5.072783947E0
2.282143269E1,1.890329868E-1,6.216553211E0,-5.072783947E0
2.283809935E1,-1.385444283E0,1.593859196E1,-3.634697676E0
2.285476602E1,-4.945964336E0,2.778545570E1,1.375633717E1
2.287143269E1,1.280160069E0,2.506720924E1,-4.924428940E0
2.288809935E1,1.280160069E0,2.506720924E1,-4.924428940E0
2.290476602E1,-6.407979012E0,9.961320877E0,3.299702406E0
2.292143268E1,-4.063013077E0,1.472782326E1,1.282552958E0
2.293809935E1,-2.246860504E0,1.297149181E1,-2.428714991E0
2.295476602E1,-2.246860504E0,1.297149181E1,-2.428714991E0
2.297143268E1,-2.053041935E0,8.884550095E0,4.115654826E-1
2.298809935E1,-2.036292076E0,6.848258495E0,3.692125320E0
2.300476601E1,-2.036292076E0,6.848258495E0,3.692125320E0
2.302143268E1,-3.433700562E0,6.482156754E0,-1.660618901E0
2.303809935E1,-3.522234917E0,5.192425251E0,-2.536391973E0
2.305476601E1,-8.949156404E-1,3.469592810E0,-1.497906923E0
2.307143268E1,5.503492355E-1,3.287738323E0,3.134597540E-1
2.308809934E1,9.858429432E-1,8.027919769E0,-2.380858421E0
2.310476601E1,1.036092162E0,1.028913784E1,-5.087141037E0
2.312143268E1,2.165504456E0,1.741735649E1,-2.758924484E0
2.313809934E1,3.029313564E0,1.605344772E1,3.775874138E0
2.315476601E1,3.029313564E0,1.605344772E1,3.775874138E0
2.317143267E1,8.135596663E-2,5.922235966E0,3.077169895E0
2.318809934E1,-2.098505497E0,1.782652855E0,3.464807272E0
2.320476600E1,-1.988435626E0,1.227517962E0,1.440479279E0
2.322143267E1,-1.732403636E0,2.220539331E0,3.086741269E-1
2.323809934E1,-1.148554921E0,3.771088600E0,-1.320838094E0
2.325476600E1,2.440679073E-1,8.985049248E0,2.637847710E1
2.327143267E1,2.167897224E0,1.298345566E1,1.399801254E0
2.328809934E1,1.402194023E0,1.248574829E1,-4.441078663E0
2.330476600E1,-2.435893536E0,1.418225956E1,-1.233260822E1
2.332143267E1,-4.321437836E0,2.275095749E1,5.056034088E0
2.333809933E1,-4.931607246E0,1.697707748E1,1.036092162E0
2.335476600E1,-4.615755081E0,1.234457207E1,-4.354937077E0
2.337143266E1,-8.638089895E-1,9.042476654E0,2.450250387E0
2.338809933E1,-1.363908887E0,1.334237862E1,-6.340979934E-1
2.340476600E1,-1.363908887E0,1.334237862E1,-6.340979934E-1
2.342143266E1,-3.572484255E0,1.063131142E1,-2.007578135E0
2.343809933E1,-3.541377544E0,1.088016415E1,1.986042857E-1
2.345476600E1,-2.900100946E0,1.189950657E1,3.622733593E0
2.347143266E1,-4.603790760E0,1.068873882E1,1.648654819E0
2.348809933E1,-4.977071285E0,9.468399048E0,3.790230989E0
2.350476599E1,-3.364308596E0,7.482356548E0,3.797409534E0
2.352143266E1,-2.608176708E0,6.317051888E0,1.008814049E1
2.353809932E1,-3.574877024E0,5.178068161E0,-5.831308842E0
2.355476599E1,-4.536791801E0,3.455235958E0,-7.274180889E0
2.357143266E1,-4.929214716E-1,6.250052929E0,-2.900100946E0
2.358809932E1,-4.929214716E-1,6.250052929E0,-2.900100946E0
2.360476599E1,-4.929214716E-1,6.250052929E0,-2.900100946E0
2.362143266E1,-1.830509305E0,2.525863647E1,3.749552965E0
2.363809932E1,-1.830509305E0,2.525863647E1,3.749552965E0
2.365476599E1,-1.617548108E0,2.913740158E1,-7.034898400E-1
2.367143265E1,-1.617548108E0,2.913740158E1,-7.034898400E-1
2.368809932E1,9.308080077E-1,1.617308807E1,-6.685546398E0
2.370476598E1,3.897907972E0,1.078205872E1,-6.723831654E0
2.372143265E1,6.620940208E0,9.590433121E0,-2.845066071E0
2.373809932E1,6.620940208E0,9.590433121E0,-2.845066071E0
2.375476598E1,5.977271080E0,8.008777618E0,-4.582255363E0
2.377143265E1,5.199603558E0,5.178068161E0,3.093919754E0
2.378809932E1,5.199603558E0,5.178068161E0,3.093919754E0
2.380476598E1,6.324230194E0,3.428914785E0,8.104490280E0
2.382143265E1,2.766103029E0,6.484549642E-1,3.302095175E0
2.383809931E1,3.852444589E-1,6.295516491E0,1.363191032E1
2.385476598E1,-3.397808075E-1,1.402911949E1,4.819144726E0
2.387143265E1,-1.172483116E-1,1.583809280E1,-2.486142635E0
2.388809931E1,-3.759124279E0,1.527817249E1,-8.513663292E0
2.390476598E1,-1.008096218E1,8.427521706E0,-3.122633457E0
2.392143264E1,-1.854437590E0,1.356491184E1,8.580661774E0
2.393809931E1,-3.732803345E0,1.633340645E1,6.510870457E0
2.395476598E1,-2.785245657E0,2.037967110E1,-4.682754040E0
2.397143264E1,7.130611539E-1,1.422293758E1,2.163111687E0
2.398809931E1,1.028913707E-1,7.884350777E0,-8.250452042E0
2.400476597E1,-9.786644578E-1,6.259624004E0,-8.480163574E0
2.402143264E1,3.684946895E-1,6.599404812E0,-6.214160442E0
2.403809931E1,3.684946895E-1,6.599404812E0,-6.214160442E0
2.405476597E1,6.029912829E-1,1.315095329E1,2.031506538E0
2.407143264E1,-1.316052437E0,1.295474148E1,1.435693540E-2
2.408809930E1,4.570291340E-1,1.281595802E1,-2.086541414E0
2.410476597E1,1.277767301E0,1.028913784E1,-1.172483116E-1
2.412143264E1,1.277767301E0,1.028913784E1,-1.172483116E-1
2.413809930E1,-1.167697430E0,6.049055576E0,1.220339537E-1
2.415476597E1,8.422735929E-1,6.008377552E0,-2.232503414E0
2.417143263E1,8.422735929E-1,6.008377552E0,-2.232503414E0
2.418809930E1,-2.895315289E-1,8.405985832E0,2.981456995E0
2.420476596E1,-5.503492057E-2,8.812766075E0,6.089733601E0
2.422143263E1,1.648654819E0,6.793223381E0,-5.647061348E0
2.423809930E1,1.648654819E0,6.793223381E0,-5.647061348E0
2.425476596E1,1.648654819E0,6.793223381E0,-5.647061348E0
2.427143263E1,-1.892722726E0,1.103809071E1,-1.275374413E0
2.428809930E1,-5.742774487E0,1.041595650E1,8.595019341E0
2.430476596E1,-2.670390129E0,1.228475189E1,-7.944171429E-1
2.432143263E1,-2.670390129E0,1.228475189E1,-7.944171429E-1
2.433809929E1,-5.012963295E0,1.172004509E1,4.070191383E0
2.435476596E1,-4.242474556E0,1.094237804E1,3.945764542E0
2.437143262E1,-4.242474556E0,1.094237804E1,3.945764542E0
2.438809929E1,-1.301695466E0,8.329415321E0,-1.627119333E-1
2.440476596E1,-5.240281820E-1,8.181060791E0,-6.518048763E0
2.442143262E1,-2.321038008E0,1.124387360E1,-4.603790760E0
2.443809929E1,-2.830709219E0,1.544327736E1,3.586841106E0
2.445476596E1,-1.012163997E0,1.412483215E1,-6.747759581E-1
2.447143262E1,6.364908218E-1,1.153819084E1,-3.371487141E0
2.448809929E1,-1.194018483E0,1.302891922E1,-1.146162033E0
2.450476595E1,-1.040877819E0,1.849891281E1,1.569691658E0
2.452143262E1,4.091726840E-1,2.088934135E1,2.864208698E0
2.453809928E1,3.098705292E0,1.880519295E1,2.009970993E-1
2.455476595E1,3.098705292E0,1.880519295E1,2.009970993E-1
2.457143262E1,1.663011789E0,8.745766640E0,-1.203589797E0
2.458809928E1,-3.852444589E-1,7.310073376E0,2.411965132E0
2.460476595E1,-8.973084688E-1,1.076052380E1,2.665604353E0
2.462143262E1,-9.332008660E-2,1.019103146E1,-1.100698411E-1
2.463809928E1,-9.332008660E-2,1.019103146E1,-1.100698411E-1
2.465476595E1,2.502892494E0,6.541976929E0,-1.107876897E0
2.467143261E1,4.453042984E0,3.795016766E0,-6.460621208E-2
2.468809928E1,4.845465660E0,1.627119422E0,1.677368641E0
2.470476595E1,4.845465660E0,1.627119422E0,1.677368641E0
2.472143261E1,1.914258122E0,7.010970116E-1,2.455035925E0
2.473809928E1,1.842473447E-1,1.418943882E0,2.902493954E0
2.475476594E1,1.842473447E-1,1.418943882E0,2.902493954E0
2.477143261E1,-4.067798331E-2,6.228517532E0,2.706282377E0
2.478809928E1,-1.507478207E-1,7.944170952E0,1.804188251E0
2.480476594E1,-4.474578202E-1,1.172004509E1,-2.270788670E0
2.482143261E1,-3.038884699E-1,1.311506081E1,-4.874179840E0
2.483809927E1,-3.038884699E-1,1.311506081E1,-4.874179840E0
2.485476594E1,-3.555734396E0,1.072941685E1,1.349073410E1
2.487143261E1,-3.555734396E0,1.072941685E1,1.349073410E1
2.488809927E1,-3.826123476E0,3.404986620E0,2.404786825E0
2.490476594E1,-3.826123476E0,3.404986620E0,2.404786825E0
2.492143260E1,-6.053841114E0,1.512263894E0,-5.096712112E-1
2.493809927E1,-4.716253281E0,1.456032562E1,-2.304288149E0
2.495476594E1,1.739582062E0,2.752942467E1,-1.818545163E-1
2.497143260E1,-1.981257200E0,1.835294914E1,1.674975902E-1
2.498809927E1,-2.785245657E0,1.529252911E1,-6.173482537E-1
2.500476593E1,-6.580262184E-1,9.382257462E0,-1.375872970E0
2.502143260E1,-6.580262184E-1,9.382257462E0,-1.375872970E0
2.503809927E1,3.022135019E0,7.343572617E0,1.753939033E0
2.505476593E1,1.543370605E0,8.434700012E0,-1.581655741E0
2.507143260E1,7.657032460E-2,9.396614075E0,-2.727817893E-1
2.508809926E1,7.657032460E-2,9.396614075E0,-2.727817893E-1
2.510476593E1,3.780659735E-1,1.122233772E1,2.285145521E0
2.512143260E1,1.478764415E0,1.109551907E1,1.107876897E0
2.513809926E1,6.029912829E-1,9.116654396E0,-8.925228715E-1
2.515476593E1,-4.474578202E-1,8.413164139E0,-1.648654819E0
2.517143259E1,-1.763510346E0,8.415556908E0,5.958128452E0
2.518809926E1,-2.306680918E0,9.135796547E0,7.635497093E0
2.520476592E1,-3.527020693E0,8.609375954E0,1.624726534E0
2.522143259E1,-5.211567879E0,8.204988480E0,2.397608280E0
2.523809926E1,-4.761716843E0,9.212367058E0,-2.780459881E0
2.525476592E1,-4.563112736E0,9.037691116E0,-4.878965378E0
2.527143259E1,-1.962114573E0,9.075976372E0,2.392822653E-1
2.528809926E1,-1.962114573E0,9.075976372E0,2.392822653E-1
2.530476592E1,1.052841991E-1,1.057388306E1,-2.849851847E0
2.532143259E1,8.709874153E-1,1.452204037E1,-6.029912829E-1
2.533809925E1,6.618547440E0,1.629512215E1,1.682154298E0
2.535476592E1,6.618547440E0,1.629512215E1,1.682154298E0
2.537143258E1,1.466800332E0,8.621339798E0,-8.303094506E-1
2.538809925E1,1.940579176E0,7.523034573E0,6.625725746E0
2.540476592E1,1.359123230E0,2.007578135E0,1.813759565E0
2.542143258E1,1.359123230E0,2.007578135E0,1.813759565E0
2.543809925E1,-5.431707501E-1,2.995813847E0,5.032105923E0
2.545476592E1,1.706082582E0,6.482156754E0,3.639483213E0
2.547143258E1,1.873580098E0,1.018863869E1,-1.272981644E0
2.548809925E1,1.873580098E0,1.018863869E1,-1.272981644E0
2.550476591E1,-2.411965132E0,1.009053326E1,9.439684868E0
2.552143258E1,-7.116254330E0,8.312665939E0,3.457628727E0
2.553809924E1,-7.116254330E0,8.312665939E0,3.457628727E0
2.555476591E1,-4.055834293E0,1.276570892E1,-1.471107388E1
2.557143258E1,-5.154139996E0,1.004746246E1,1.239482164E0
2.558809924E1,-3.524627686E0,8.757730484E0,3.424129248E0
2.560476591E1,-3.524627686E0,8.757730484E0,3.424129248E0
2.562143258E1,-7.896314859E-1,2.150190353E1,-3.936193228E0
2.563809924E1,-8.925228715E-1,1.366062450E1,5.690132141E0
2.565476591E1,9.092725813E-2,7.901100159E0,5.910272002E-1
2.567143257E1,-1.607976794E0,8.702695847E0,-2.093719721E0
2.568809924E1,-1.347159147E0,1.020060253E1,-2.538784742E0
2.570476591E1,-5.407779217E-1,1.057866859E1,-3.134597778E0
2.572143257E1,2.679961324E-1,9.815358162E0,-1.904686809E0
2.573809924E1,-5.886343718E-1,9.427721024E0,7.412964344E0
2.575476590E1,-2.199003935E0,9.492327690E0,1.135155106E1
2.577143257E1,-5.091926575E0,8.334200859E0,1.746760488E0
2.578809924E1,-6.793223381E0,7.774280548E0,4.558327198E0
2.580476590E1,-6.793223381E0,7.774280548E0,4.558327198E0
2.582143257E1,-2.727817774E0,6.137589931E0,-2.120040894E0
2.583809923E1,8.494520187E-1,5.123033047E0,-1.186840057E0
2.585476590E1,2.763710260E0,9.482755661E0,-2.397608280E0
2.587143257E1,2.763710260E0,9.482755661E0,-2.397608280E0
2.588809923E1,1.347159147E0,1.285902882E1,-1.998006940E0
2.590476590E1,5.458028316E0,1.914497375E1,2.854637384E0
2.592143256E1,2.785245657E0,1.718525314E1,8.255237937E-1
2.593809923E1,2.043470621E0,9.894321442E0,6.802794933E0
2.595476590E1,5.527420044E-1,3.543770313E0,9.913464546E0
2.597143256E1,-3.455235958E0,-1.466800332E0,1.170090318E0
2.598809923E1,-3.007778168E0,2.952743053E0,1.129412293E0
2.600476589E1,-7.657032609E-1,6.644868374E0,-1.500299811E0
2.602143256E1,6.053841114E-1,8.520841599E0,-3.141776085E0
2.603809922E1,6.053841114E-1,8.520841599E0,-3.141776085E0
2.605476589E1,-2.895315289E-1,7.130611420E0,2.234896421E0
2.607143256E1,-2.895315289E-1,7.130611420E0,2.234896421E0
2.608809922E1,-1.324188042E1,7.877171993E0,-1.296909928E0
2.610476589E1,-4.292723656E0,1.658704567E1,6.788437843E0
2.612143256E1,-1.325623751E0,1.874537277E1,-2.189432621E0
2.613809922E1,-1.325623751E0,1.874537277E1,-2.189432621E0
2.615476589E1,1.868794441E0,8.303094864E0,-1.533799291E0
2.617143255E1,2.471785784E0,9.322437286E0,-2.323430777E0
2.618809922E1,8.398807645E-1,1.512742519E1,1.387837172E0
2.620476588E1,-3.335594654E0,1.470389557E1,8.176275253E0
2.622143255E1,-3.184846878E0,1.059063339E1,-2.416750938E-1
2.623809922E1,-1.854437590E0,1.074138069E1,-6.005984545E-1
2.625476588E1,-6.628118753E-1,1.235892868E1,-6.867401004E-1
2.627143255E1,-9.308080077E-1,1.122951698E1,-1.220339537E0
2.628809922E1,-3.828516245E0,7.817351341E0,5.474778175E0
2.630476588E1,-4.285545349E0,7.496713161E0,6.340979934E-1
2.632143255E1,-3.555734396E0,7.470392227E0,-3.421736360E-1
2.633809921E1,-3.555734396E0,7.470392227E0,-3.421736360E-1
2.635476588E1,1.746760458E-1,1.100937653E1,9.236295700E0
2.637143254E1,3.244667530E0,1.473500156E1,-2.373680115E0
2.638809921E1,5.371886730E0,1.123908806E1,-1.694118381E0
2.640476588E1,5.235496044E0,1.005703354E1,-4.321437836E0
2.642143254E1,4.469792843E0,8.614161491E0,-5.194818020E0
2.643809921E1,1.031306505E0,7.874779224E0,5.790630579E-1
2.645476588E1,-9.571290761E-2,1.005224800E1,7.092326164E0
2.647143254E1,-1.529013634E0,1.026999474E1,5.154139996E0
2.648809921E1,-2.321038008E0,5.151747227E0,3.397808075E0
2.650476587E1,-1.904686809E0,2.510071039E0,9.858429432E-1
2.652143254E1,-1.904686809E0,2.510071039E0,9.858429432E-1
2.653809920E1,-1.203589797E0,4.931607246E0,-3.524627686E0
2.655476587E1,-1.153340459E0,6.039484501E0,-4.067798615E0
2.657143254E1,-3.156133175E0,8.664410591E0,-1.004985496E-1
2.658809920E1,-1.777867198E0,1.524706554E1,3.706482172E0
2.660476587E1,-1.591227055E0,1.696750450E1,-8.817551613E0
2.662143254E1,-1.387837172E0,1.391187096E1,8.456234932E0
2.663809920E1,-2.139183521E0,1.082991505E1,-1.130608654E1
2.665476587E1,-1.603191137E0,1.646501350E1,4.453042984E0
2.667143253E1,-2.940778971E0,1.526860142E1,3.495913982E0
2.668809920E1,-8.087740541E-1,1.195932770E1,6.125625968E-1
2.670476587E1,-8.327022791E-1,1.031545830E1,-2.416750938E-1
2.672143253E1,-6.340979934E-1,1.105005455E1,-1.402194023E0
2.673809920E1,-8.901300430E-1,1.162433243E1,-2.155933142E0
2.675476586E1,-6.652047038E-1,1.080120182E1,-1.380658627E0
2.677143253E1,-1.430907965E0,9.355937004E0,4.067798331E-2
2.678809920E1,-1.265803218E0,9.494720459E0,2.392822644E-3
2.680476586E1,-1.234696507E0,1.059063339E1,2.392822690E-2
2.682143253E1,-4.007977962E0,1.047577763E1,1.026042366E1
2.683809919E1,-4.007977962E0,1.047577763E1,1.026042366E1
2.685476586E1,-5.149354458E0,8.116454124E0,4.220939159E0
2.687143253E1,-3.117847919E0,6.620940208E0,1.237089276E0
2.688809919E1,-1.677368641E0,4.744967461E0,-3.661018610E-1
2.690476586E1,1.648654819E0,6.226124287E0,-1.998006940E0
2.692143252E1,2.129612207E0,7.278966427E0,-2.409572363E0
2.693809919E1,5.503492057E-2,8.262416840E0,-2.718246460E0
2.695476586E1,-9.379864931E-1,1.304566860E1,1.234696507E0
2.697143252E1,1.052842021E0,1.735274887E1,4.785645381E-2
2.698809919E1,2.100898266E0,1.722353745E1,5.718846321E-1
2.700476585E1,1.907079697E0,1.442872047E1,7.824530005E-1
2.702143252E1,9.954141974E-1,1.056191921E1,4.713860750E-1
2.703809918E1,9.954141974E-1,1.056191921E1,4.713860750E-1
2.705476585E1,3.756731451E-1,1.971685886E0,-1.074377418E0
2.707143252E1,-5.670989752E-1,2.727817893E-1,1.866401732E-1
2.708809918E1,-2.871387079E-2,4.331008911E0,4.886143684E0
2.710476585E1,-2.871387079E-2,4.331008911E0,4.886143684E0
2.712143252E1,9.595218897E-1,8.085348129E0,-1.330409408E0
2.713809918E1,6.963114142E-1,7.453642368E0,-1.828116536E0
2.715476585E1,-3.146561861E0,6.769295216E0,1.142094231E1
2.717143251E1,-4.362115860E0,9.090332985E0,5.335994720E0
2.718809918E1,-4.019941807E0,1.780260086E1,-7.231110096E0
2.720476584E1,4.450650215E-1,1.938664818E1,-1.083948612E1
2.722143251E1,-4.268795490E0,9.255437851E0,4.764110088E0
2.723809918E1,-4.268795490E0,9.255437851E0,4.764110088E0
2.725476584E1,-1.902294040E0,6.276373863E0,2.354537487E0
2.727143251E1,-1.629512191E0,1.263649654E1,-1.674975872E0
2.728809918E1,-1.062413216E0,1.964986038E1,-3.182454109E0
2.730476584E1,-1.062413216E0,1.964986038E1,-3.182454109E0
2.732143251E1,-4.161118507E0,1.389751434E1,7.680960655E0
2.733809917E1,-8.614161611E-1,1.074138069E1,1.737189293E0
2.735476584E1,-2.321037948E-1,9.042476654E0,3.900300860E-1
2.737143250E1,-1.789831281E0,8.760123253E0,1.079641533E1
2.738809917E1,-3.534198999E0,9.932606697E0,-7.178468257E-2
2.740476584E1,-9.178867340E0,7.185646534E0,8.535198212E0
2.742143250E1,-6.175875187E0,4.977071285E0,-6.314659119E0
2.743809917E1,-3.376272678E0,3.483949661E0,-4.481756687E0
2.745476584E1,2.036292076E0,2.227717876E0,-2.672782898E0
2.747143250E1,2.244467735E0,5.154139996E0,-1.768295884E0
2.748809917E1,-3.115455151E0,1.287817192E1,3.017349243E0
2.750476583E1,-6.111268997E0,2.068116570E1,3.517449379E0
2.752143250E1,-2.565105915E0,2.520360184E1,1.718046665E0
2.753809917E1,5.575276852E0,1.602712631E1,9.714859724E-1
2.755476583E1,9.870393753E0,1.067916775E1,-2.612962246E0
2.757143250E1,6.084948063E0,9.145368576E0,-3.273381472E0
2.758809916E1,2.254039049E0,4.553541660E0,3.364308596E0
2.760476583E1,8.255237937E-1,1.954936147E0,3.594019651E0
2.762143250E1,4.498506486E-1,2.081755638E0,1.837687731E0
2.763809916E1,8.374879509E-2,1.375872970E0,1.586441398E0
2.765476583E1,6.843472719E-1,-5.982056856E-1,1.964507341E0
2.767143249E1,-2.330609322E0,8.389236450E0,2.955614471E1
2.768809916E1,1.914258152E-1,1.622573090E1,-7.278966427E0
2.770476583E1,-2.163111687E0,2.154497528E1,-1.686700630E1
2.772143249E1,-1.277288723E1,1.791745567E1,4.524827480E0
2.773809916E1,-8.262416840E0,6.917650223E0,2.298545456E1
2.775476582E1,7.077969551E0,1.303849030E1,-1.345723438E1
2.777143249E1,9.851250648E0,1.497189140E1,-1.142572784E1
2.778809916E1,3.945764542E0,1.210768223E1,-1.444786358E1
2.780476582E1,1.349551916E0,1.053081226E1,3.462414265E0
2.782143249E1,-1.016710377E1,1.877169418E1,8.255237937E-1
2.783809915E1,-8.678768158E0,2.061895180E1,7.207181931E0
2.785476582E1,-1.411765367E-1,1.992264175E1,-7.322037220E-1
2.787143249E1,1.794616938E0,1.326102352E1,-1.012163997E0
2.788809915E1,1.292124271E0,9.126225471E0,-1.627119422E0
2.790476582E1,7.250252366E-1,8.123632431E0,-1.337587833E0
2.792143248E1,2.344966233E-1,7.841279984E0,-9.044869542E-1
2.793809915E1,4.905286431E-1,9.516255379E0,-1.339980662E-1
2.795476582E1,3.924229145E-1,1.070070267E1,4.235295951E-1
2.797143248E1,2.584248483E-1,1.169611740E1,4.007977962E0
2.798809915E1,1.062413216E0,9.183652878E0,3.747160196E0
2.800476581E1,1.292124242E-1,7.341179848E0,2.378465652E0
2.802143248E1,-3.469592929E-1,6.355337143E0,2.309073925E0
2.803809914E1,-1.488335729E0,6.104090691E0,-3.684946895E-1
2.805476581E1,-2.383251429E0,7.635497093E0,-3.833301783E0
2.807143248E1,-6.238088608E0,1.103809071E1,1.497906971E1
2.808809914E1,-5.704489231E0,5.477170944E0,2.624447823E1
2.810476581E1,6.747759581E-1,9.700503349E0,1.229910851E0
2.812143248E1,7.417750359E-2,1.284227943E1,-1.424447346E1
2.813809914E1,-1.509871125E0,1.755613899E1,-1.592423439E1
2.815476581E1,-2.385644197E0,1.768295860E1,-7.456035137E0
2.817143247E1,-8.291130066E0,1.435454273E1,2.135115623E1
2.818809914E1,-5.254638672E0,1.259821129E1,-1.904686809E0
2.820476580E1,-2.050648928E0,1.286381435E1,-1.885544300E0
2.822143247E1,-1.653440475E0,1.411286831E1,-1.356730461E0
2.823809914E1,-2.218146563E0,1.504846191E1,3.708875179E-1
2.825476580E1,1.292124242E-1,1.490249920E1,5.982056633E-2
2.827143247E1,1.292124242E-1,1.490249920E1,5.982056633E-2
2.828809914E1,6.850651264E0,1.405543995E1,5.324030399E0
2.830476580E1,4.309473515E0,9.023334503E0,-6.532405853E0
2.832143247E1,1.579262972E0,4.922036171E0,-6.005984545E-1
2.833809913E1,1.579262972E0,4.922036171E0,-6.005984545E-1
2.835476580E1,2.663211584E0,4.780859470E0,1.799402595E0
2.837143246E1,2.292324066E0,3.713660717E0,1.617548108E0
2.838809913E1,2.230110645E0,3.479164124E0,1.244267821E0
2.840476580E1,2.230110645E0,3.479164124E0,1.244267821E0
2.842143246E1,2.706282377E0,5.809773445E0,2.203789711E0
2.843809913E1,-5.359922647E-1,8.274380684E0,6.544369698E0
2.845476580E1,-2.921636343E0,1.178704453E1,1.360319710E1
2.847143246E1,-6.317051649E-1,1.267238903E1,2.124826431E0
2.848809913E1,-8.973084688E-1,1.133001518E1,-5.398207664E0
2.850476579E1,-1.974078655E0,5.970092297E0,-4.307080746E0
2.852143246E1,-4.067798331E-2,6.108876228E0,6.826723099E0
2.853809913E1,-1.459621787E-1,1.066481018E1,-1.579262912E-1
2.855476579E1,-7.704889178E-1,2.370330048E1,-4.642076015E0
2.857143246E1,-7.704889178E-1,2.370330048E1,-4.642076015E0
2.858809912E1,2.129612118E-1,9.846465111E0,-2.139183521E0
2.860476579E1,-3.804588020E-1,7.077969551E0,-4.390829563E0
2.862143246E1,-1.347159147E0,4.536791801E0,-5.637490273E0
2.863809912E1,-5.024927258E-1,5.132604599E0,-3.550948858E0
2.865476579E1,8.422735929E-1,8.255238533E0,5.120640397E-1
2.867143245E1,1.418943882E0,1.058824062E1,9.518648148E0
2.868809912E1,-2.122433662E0,1.088734341E1,-1.251446247E0
2.870476579E1,2.344966233E-1,1.032263660E1,8.422735929E-1
2.872143245E1,-2.871387079E-2,8.013563156E0,1.406979680E0
2.873809912E1,-2.249253243E-1,7.154539585E0,7.848458290E-1
2.875476578E1,-8.183453679E-1,6.570691109E0,-1.904686809E0
2.877143245E1,8.374879360E-1,8.405985832E0,-1.313659668E0
2.878809912E1,-3.014956415E-1,9.540184021E0,-8.446664214E-1
2.880476578E1,-1.036092162E0,9.712467194E0,-1.950150490E0
2.882143245E1,3.182454109E-1,1.063370419E1,-2.287538528E0
2.883809911E1,3.182454109E-1,1.063370419E1,-2.287538528E0
2.885476578E1,-2.026720762E0,1.020060253E1,2.624926329E0
2.887143245E1,-4.491328239E0,1.032981491E1,8.240880966E0
2.888809911E1,-4.137190342E0,1.205264759E1,2.871387243E0
2.890476578E1,-4.137190342E0,1.205264759E1,2.871387243E0
2.892143244E1,-2.244467735E0,9.822537422E0,5.546562672E0
2.893809911E1,-2.251646042E0,9.430113792E0,4.319045067E0
2.895476578E1,-1.335195065E0,1.141854954E1,7.824530005E-1
2.897143244E1,-2.411965132E0,1.307438278E1,5.228317261E0
2.898809911E1,-2.639283419E0,1.181336498E1,-8.140382767E0
2.900476577E1,-3.249453068E0,1.114337540E1,-1.356251907E1
2.902143244E1,-2.153540403E-2,1.225125217E1,-5.240281820E-1
2.903809910E1,-1.816152334E0,1.334477234E1,4.941178799E0
2.905476577E1,1.081555843E0,1.647937012E1,2.543570518E0
2.907143244E1,2.890529871E0,1.773081589E1,3.687339783E0
2.908809910E1,5.087141037E0,1.560598946E1,-1.004985496E-1
2.910476577E1,5.087141037E0,1.560598946E1,-1.004985496E-1
2.912143244E1,1.942971945E0,7.197610378E0,-8.853443712E-2
2.913809910E1,-1.909472466E0,8.877371788E0,5.335994363E-1
2.915476577E1,-2.203789711E0,9.212367058E0,-3.780659735E-1
2.917143243E1,-1.730010748E0,7.640282631E0,9.260223508E-1
2.918809910E1,-2.146361828E0,5.795416355E0,1.519442320E0
2.920476576E1,-2.467000246E0,3.280559778E0,3.220739365E0
2.922143243E1,-9.068797827E-1,3.596412420E0,3.570091486E0
2.923809910E1,3.053241730E0,3.998406649E0,2.890529871E0
2.925476576E1,4.811966419E0,3.366701365E0,1.076770186E0
2.927143243E1,4.460221291E0,3.483949661E0,-6.771687865E-1
2.928809910E1,1.150947690E0,4.206582069E0,4.402793646E-1
2.930476576E1,-1.258624673E0,5.304887772E0,1.359123230E0
2.932143243E1,-1.964507341E0,6.484549522E0,1.320838094E0
2.933809909E1,-2.409572363E0,9.229117393E0,6.987041831E-1
2.935476576E1,-8.279166222E-1,1.199522018E1,5.479564071E-1
2.937143243E1,-8.279166222E-1,1.199522018E1,5.479564071E-1
2.938809909E1,-1.938186288E-1,1.188036442E1,6.530013084E0
2.940476576E1,-4.785645287E-3,8.145168304E0,-7.513462901E-1
2.942143242E1,-4.785645287E-3,8.145168304E0,-7.513462901E-1
2.943809909E1,-3.471985579E0,8.183453679E-1,3.828516245E0
2.945476576E1,-5.558526993E0,2.512463629E-1,3.230310678E0
2.947143242E1,-1.027238750E1,1.548156261E0,3.732803464E-1
2.948809909E1,-1.027238750E1,1.548156261E0,3.732803464E-1
2.950476575E1,4.273581028E0,1.685982895E1,-1.023410225E1
2.952143242E1,6.838686943E0,1.874058723E1,-9.109476089E0
2.953809909E1,4.984249592E0,1.707518196E1,4.900500774E0
2.955476575E1,4.984249592E0,1.707518196E1,4.900500774E0
2.957143242E1,-1.607976794E0,1.396212006E1,3.055634499E0
2.958809908E1,-2.268395901E0,1.361755371E1,4.429114819E0
2.960476575E1,-1.890329868E-1,1.015274620E1,2.902493954E0
2.962143242E1,4.857429862E-1,7.274180889E0,-1.021735311E0
2.963809908E1,-9.116654396E-1,6.788437843E0,-2.143969059E0
2.965476575E1,-1.916650891E0,7.970492363E0,-2.569891453E0
2.967143241E1,-2.330609322E0,1.074377346E1,-2.823530674E0
2.968809908E1,-7.585247755E-1,1.177986622E1,-2.098505497E0
2.970476575E1,-2.476571321E0,1.206700420E1,1.101416302E1
2.972143241E1,-3.294916868E0,1.226800156E1,1.224168110E1
2.973809908E1,-3.357130051E0,1.039681435E1,-1.375872970E0
2.975476574E1,-5.058426857E0,8.882157326E0,9.504291534E0
2.977143241E1,-3.577269793E0,8.743373871E0,6.649653912E0
2.978809908E1,4.450650215E-1,1.028913784E1,-2.376072884E0
2.980476574E1,1.574477315E0,1.275374508E1,6.987041831E-1
2.982143241E1,-1.124626637E0,1.114337540E1,-7.322037220E-1
2.983809907E1,-2.172683001E0,1.109073257E1,-9.260223508E-1
2.985476574E1,-2.854637384E0,1.250728416E1,9.092726111E-1
2.987143240E1,2.895315289E-1,1.689093590E1,5.072783828E-1
2.988809907E1,5.154139996E0,1.425404453E1,5.958128572E-1
2.990476574E1,4.962714195E0,1.036331463E1,1.162911773E0
2.992143240E1,4.962714195E0,1.036331463E1,1.162911773E0
2.993809907E1,1.861616015E0,3.900300980E0,-2.392822653E-1
2.995476574E1,1.861616015E0,3.900300980E0,-2.392822653E-1
2.997143240E1,9.882357717E-1,4.721039295E0,3.460021496E0
2.998809907E1,-8.087740541E-1,5.498706341E0,2.622533560E0
3.000476573E1,-1.887937069E0,5.008177757E0,2.311466694E0
3.002143240E1,-7.322037220E-1,5.943771362E0,-2.316252232E0
3.003809906E1,-3.134597540E-1,7.178467751E0,-3.840480328E0
3.005476573E1,-1.234696507E0,8.752944946E0,-2.232503414E0
3.007143240E1,-4.199403763E0,8.903693199E0,6.431907177E0
3.008809906E1,-6.795616150E0,1.048056316E1,8.774480820E0
3.010476573E1,-5.417350292E0,1.061695385E1,4.383651257E0
3.012143240E1,-4.460221291E0,1.413201046E1,-1.674975902E-1
3.013809906E1,-4.460221291E0,1.413201046E1,-1.674975902E-1
3.015476573E1,-7.680960894E-1,1.068395329E1,2.632104978E-2
3.017143239E1,2.919243574E-1,1.128455162E1,-8.614161611E-2
3.018809906E1,-2.141576290E0,1.157647610E1,4.594219327E-1
3.020476572E1,-3.828516304E-1,1.171525955E1,1.904686809E0
3.022143239E1,9.308080077E-1,1.454836178E1,-2.065006018E0
3.023809906E1,2.177468538E0,1.535713577E1,3.493520916E-1
3.025476572E1,4.977070987E-1,1.226321602E1,2.263610125E0
3.027143239E1,4.977070987E-1,1.226321602E1,2.263610125E0
3.028809906E1,-1.091127157E0,9.456435204E0,-2.991028428E-1
3.030476572E1,-7.322037220E-1,9.042476654E0,-1.182054400E0
3.032143239E1,-9.308080077E-1,8.382058144E0,-3.192025423E0
3.033809905E1,-2.670390129E0,7.960920811E0,-3.239881754E0
3.035476572E1,-3.866801500E0,7.697710514E0,5.747560024E0
3.037143239E1,-2.486142635E0,7.752745152E0,5.458028316E0
3.038809905E1,-2.725425005E0,5.651846886E0,-1.708475351E0
3.040476572E1,-2.529213428E0,5.434100151E0,2.450250387E0
3.042143238E1,-1.323230863E0,7.925028801E0,2.938386202E0
3.043809905E1,-5.455635786E-1,1.043509960E1,-5.278566837E0
3.045476572E1,7.465606928E-1,1.000678444E1,-3.603590965E0
3.047143238E1,7.465606928E-1,1.000678444E1,-3.603590965E0
3.048809905E1,2.402393818E0,1.032742214E1,-2.902493954E0
3.050476571E1,4.141975880E0,1.249771309E1,5.982056633E-2
3.052143238E1,2.000399828E0,1.598405552E1,6.865008354E0
3.053809905E1,2.991028428E-1,1.377308750E1,3.699303865E0
3.055476571E1,6.699903607E-1,9.269794464E0,2.900100946E0
3.057143238E1,-2.469393015E0,1.184447169E0,2.486142635E0
3.058809904E1,-2.469393015E0,1.184447169E0,2.486142635E0
3.060476571E1,7.489534616E-1,6.017949104E0,-2.904886723E0
3.062143238E1,8.685946465E-1,6.053841114E0,-1.615155339E0
3.063809904E1,-1.148554832E-1,5.331208706E0,-1.069591761E0
3.065476571E1,-1.148554832E-1,5.331208706E0,-1.069591761E0
3.067143237E1,-9.772287369E0,6.764509678E0,9.714859724E-1
3.068809904E1,-7.922635555E0,8.015955925E0,-3.728017569E0
3.070476571E1,-2.170290232E0,2.097787666E1,2.536391914E-1
3.072143237E1,-3.804588020E-1,1.730967903E1,-6.472585201E0
3.073809904E1,-1.201196909E0,6.620940208E0,2.773281336E0
3.075476570E1,-5.216353536E-1,5.575276852E0,9.451649189E-1
3.077143237E1,-5.216353536E-1,5.575276852E0,9.451649189E-1
3.078809904E1,6.939185411E-2,1.720439529E1,-4.632504463E0
3.080476570E1,6.939185411E-2,1.720439529E1,-4.632504463E0
3.082143237E1,-2.696711063E0,1.644826317E1,1.625205231E1
3.083809903E1,-8.374879360E-1,9.030512810E0,-7.345965505E-1
3.085476570E1,-8.877372146E-1,5.929414749E0,-1.540977836E0
3.087143236E1,-8.877372146E-1,5.929414749E0,-1.540977836E0
3.088809903E1,-1.789831281E0,7.908278942E0,-3.543770313E0
3.090476570E1,-2.155933142E0,1.075573826E1,1.035613632E1
3.092143236E1,-2.512463808E0,9.559326172E0,2.421536446E0
3.093809903E1,-1.986042738E0,8.762516975E0,-4.632504463E0
3.095476570E1,-3.644268990E0,7.147361279E0,5.144568682E-1
3.097143236E1,-3.644268990E0,7.726424217E0,1.529013634E0
3.098809903E1,-3.644268990E0,7.726424217E0,1.529013634E0
3.100476569E1,6.795616150E-1,1.121994495E1,-1.847259045E0
3.102143236E1,2.533999205E0,1.187797165E1,-3.397808075E-1
3.103809902E1,9.978070259E-1,1.144247818E1,-2.682354212E0
3.105476569E1,5.201996326E0,1.427797318E1,1.280160069E0
3.107143236E1,5.429314613E0,1.558445358E1,1.548156261E0
3.108809902E1,2.352144718E0,1.512024593E1,9.403793216E-1
3.110476569E1,3.261417150E0,7.726424217E0,3.620340586E0
3.112143236E1,-1.859223247E0,2.359323025E0,2.847458839E0
3.113809902E1,-3.594019651E0,1.619940877E0,2.679961443E0
3.115476569E1,-4.165904045E0,3.110669374E0,2.153540403E-1
3.117143235E1,-4.108476639E0,5.903093338E0,-1.873580098E0
3.118809902E1,-1.816152334E0,1.173679543E1,-3.158525944E0
3.120476568E1,-1.119840980E0,1.378026581E1,-1.672582984E0
3.122143235E1,-1.737189293E0,1.423968792E1,4.271188259E0
3.123809902E1,-3.062813044E0,7.951349735E0,1.880758643E0
3.125476568E1,-4.065405846E0,4.788038254E0,7.556533813E0
3.127143235E1,-4.512863636E0,3.139383316E0,5.948556900E0
3.128809902E1,-6.209374905E0,4.917250633E0,-3.785445452E0
3.130476568E1,-6.209374905E0,4.917250633E0,-3.785445452E0
3.132143235E1,3.555734396E0,1.054516983E1,-3.077169895E0
3.133809901E1,2.557927370E0,1.075813103E1,2.225325108E-1
3.135476568E1,3.732803464E-1,1.358883953E1,6.472585201E0
3.137143235E1,3.732803464E-1,1.358883953E1,6.472585201E0
3.138809901E1,-1.990828395E0,1.474935913E1,6.156732559E0
3.140476568E1,-1.615155339E0,1.165783215E1,2.823530674E0
3.142143234E1,-1.287338614E0,9.552147865E0,-1.892722726E0
3.143809901E1,8.566305041E-1,9.367900848E0,-1.062413216E0
3.145476568E1,8.566305041E-1,9.367900848E0,-1.062413216E0
3.147143234E1,5.766702294E-1,1.066481018E1,-2.900100946E0
3.148809901E1,6.675975323E-1,1.105244732E1,-2.297109842E0
3.150476567E1,-1.016949654E0,1.124387360E1,-1.962114573E-1
3.152143234E1,-2.378465652E0,1.109073257E1,8.590233326E-1
3.153809901E1,-3.586841106E0,9.250652313E0,1.782174301E1
3.155476567E1,-5.000999570E-1,7.144968510E0,2.234896421E0
3.157143234E1,-5.000999570E-1,7.144968510E0,2.234896421E0
3.158809900E1,-2.019542217E0,4.847858906E0,2.132004976E0
3.160476567E1,-2.519642353E0,5.826523304E0,-4.835894585E0
3.162143234E1,1.804188251E0,1.107159042E1,1.361516118E0
3.163809900E1,8.853443861E-1,1.227039433E1,-1.060020447E0
3.165476567E1,-9.858429432E-1,1.094237804E1,-8.901300430E-1
3.167143233E1,-8.853443861E-1,1.129651546E1,1.048056364E0
3.168809900E1,-8.853443861E-1,1.129651546E1,1.048056364E0
3.170476567E1,6.843472719E-1,9.887143135E0,-9.786644578E-1
3.172143233E1,-8.614161611E-2,9.219545364E0,-3.589234054E-1
3.173809900E1,1.014556766E0,9.985248566E0,1.849651933E0
3.175476566E1,1.182054400E0,1.149751282E1,2.349751949E0
3.177143233E1,1.182054400E0,1.149751282E1,2.349751949E0
3.178809900E1,-1.347159147E0,3.091526747E0,3.763910055E0
3.180476566E1,-1.531406492E-1,6.477370739E0,-2.254039049E0
3.182143233E1,1.265803218E0,7.637889862E0,-2.392822742E0
3.183809899E1,1.265803218E0,7.637889862E0,-2.392822742E0
3.185476566E1,-3.591626883E0,5.020142078E0,1.694118500E1
3.187143232E1,-3.730410576E0,4.656432629E0,4.137190342E0
3.188809899E1,-3.730410576E0,4.656432629E0,4.137190342E0
3.190476566E1,1.854437590E0,1.333759308E1,-1.234217930E1
3.192143232E1,3.093919754E0,1.243071365E1,-5.290530682E0
3.193809899E1,-8.805587292E-1,1.223450184E1,3.297309637E0
3.195476566E1,-8.805587292E-1,1.223450184E1,3.297309637E0
3.197143232E1,-2.553141832E0,1.235892868E1,3.797409534E0
3.198809899E1,-1.682154298E0,1.428036594E1,-1.459621787E-1
3.200476565E1,-1.198804140E0,1.585723591E1,-2.572284460E0
3.202143232E1,-3.158525944E0,1.194497108E1,1.330409408E0
3.203809899E1,-3.158525944E0,1.194497108E1,1.330409408E0
3.205476565E1,-6.245267391E-1,9.494720459E0,3.806980848E0
3.207143232E1,-2.720639229E0,9.343972206E0,4.902893543E0
3.208809898E1,-4.027120590E0,9.360722542E0,4.130012035E0
3.210476565E1,-5.175675392E0,8.434700012E0,4.780859470E0
3.212143232E1,-5.900700569E0,6.764509678E0,5.024927482E-2
3.213809898E1,-3.381058455E0,4.163511276E0,-4.321437836E0
3.213809898E1,-3.381058455E0,4.163511276E0,-4.321437836E0
3.217143231E1,4.689932466E-1,5.108676434E0,-8.590233326E-1
3.218809898E1,-1.986042738E0,1.222253799E1,5.240281820E-1
3.220476564E1,-3.278166950E-1,1.893201256E1,2.043470621E0
3.222143231E1,-3.278166950E-1,1.893201256E1,2.043470621E0
3.223809898E1,6.166304111E0,1.590509224E1,-8.638089895E-1
3.225476564E1,7.704888821E0,1.244267750E1,-2.132004976E0
3.227143231E1,2.684746981E0,8.451449394E0,-7.082754970E-1
3.228809898E1,2.684746981E0,8.451449394E0,-7.082754970E-1
3.230476564E1,-1.134197950E0,-9.762716293E-1,6.869793892E0
3.232143231E1,-2.502892494E0,-2.313859463E0,3.215953588E0
3.233809897E1,-4.419543266E0,4.273581028E0,2.186561394E1
3.235476564E1,-9.882357717E-1,1.263171101E1,5.912664890E0
3.237143230E1,4.402793646E-1,1.715653801E1,-5.828916073E0
3.238809897E1,-5.814558864E-1,2.019302940E1,-6.754938126E0
3.240476564E1,-1.376351547E1,1.106680489E1,9.779465675E0
3.242143230E1,4.498506486E-1,9.559326172E0,7.456035137E0
3.243809897E1,4.194618225E0,1.533320713E1,-1.010488987E1
3.245476564E1,8.855836868E0,1.463211060E1,-7.987242222E0
3.247143230E1,1.129412293E0,8.712266922E0,-9.717252731E0
3.248809897E1,1.129412293E0,8.712266922E0,-9.717252731E0
3.250476563E1,-5.474778175E0,1.861137390E1,1.696511269E1
3.252143230E1,-5.599205017E0,2.703171730E1,-1.313659668E0
3.253809896E1,2.828316450E0,1.650569153E1,-8.470591903E-1
3.255476563E1,2.828316450E0,1.650569153E1,-8.470591903E-1
3.257143230E1,1.457229018E0,8.264809608E0,-7.106683254E-1
3.258809896E1,3.110669367E-2,8.130811691E0,-1.517049551E0
3.260476563E1,1.148554832E-1,8.922835350E0,2.225325108E-1
3.262143230E1,1.148554832E-1,8.922835350E0,2.225325108E-1
3.263809896E1,1.148554832E-1,8.922835350E0,2.225325108E-1
3.265476563E1,1.433300734E0,9.915857315E0,2.756531715E0
3.267143229E1,-1.485942841E0,6.776473522E0,-2.411965132E0
3.268809896E1,-2.402393818E0,6.498906136E0,-4.587040901E0
3.270476562E1,-3.412165165E0,4.019941807E0,-8.059026718E0
3.272143229E1,-3.218346357E0,5.505885124E0,8.903693199E0
3.273809896E1,-3.218346357E0,5.505885124E0,8.903693199E0
3.275476562E1,-2.194218397E0,1.335434341E1,4.563591385E1
3.277143229E1,2.476571321E0,1.081555843E1,-1.546959877E1
3.278809896E1,6.149554253E-1,1.082034397E1,-1.838884163E1
3.280476562E1,-9.571290761E-2,1.246899891E1,-6.039484501E0
3.282143229E1,-1.866401672E0,1.433540058E1,9.906286001E-1
3.283809895E1,-6.551548481E0,1.639562035E1,1.022213840E1
3.285476562E1,-2.316252232E0,1.636929893E1,-4.314259052E0
3.287143229E1,-2.021935225E0,1.696511269E1,-2.411965132E0
3.288809895E1,-2.565105915E0,1.722592926E1,-7.393822074E-1
3.290476562E1,-1.557727575E0,1.607258987E1,-5.551348329E-1
3.292143228E1,-2.919243574E-1,1.279442310E1,-6.364908218E-1
3.293809895E1,2.124826431E0,1.033220863E1,-2.560320199E-1
3.295476562E1,3.890729666E0,9.489934921E0,6.484549642E-1
3.297143228E1,5.347958565E0,6.295516491E0,-7.417750359E-2
3.298809895E1,1.232303619E0,4.091726780E0,-6.699903488E0
3.300476561E1,1.232303619E0,4.091726780E0,-6.699903488E0
3.302143228E1,3.125026464E0,7.697710514E0,-2.033899277E-1
3.303809894E1,2.086541414E0,7.735995770E0,2.943171859E-1
3.305476561E1,2.091326952E0,5.900700569E0,-2.009970993E-1
3.307143228E1,2.091326952E0,5.900700569E0,-2.009970993E-1
3.308809894E1,4.192225456E0,5.826523304E0,-5.335994363E-1
3.310476561E1,3.050848961E0,4.967499733E0,1.172483116E-1
3.312143228E1,2.416750908E0,4.890929699E0,2.632105052E-1
3.313809894E1,-3.038884699E-1,6.979863644E0,4.007977962E0
3.315476561E1,-1.830509305E0,7.965706348E0,5.115854740E0
3.317143227E1,-1.914258122E0,1.046620655E1,2.828316450E0
3.318809894E1,-1.914258122E0,1.046620655E1,2.828316450E0
3.320476560E1,-3.120240688E0,1.312223911E1,1.358166122E1
3.322143227E1,-2.737389088E0,1.132522964E1,7.013363361E0
3.323809894E1,6.699903309E-2,1.667318726E1,-3.060420275E0
3.325476560E1,-1.682154298E0,2.744328308E1,5.599204898E-1
3.327143227E1,-2.289931297E0,2.386362076E1,2.904886723E0
3.328809894E1,-1.124626622E-1,9.556933403E0,-3.160918713E0
3.330476560E1,-1.844866276E0,4.498506546E0,-7.542177200E0
3.332143227E1,-6.101697683E-1,3.905086517E0,-5.108676434E0
3.332143227E1,-6.101697683E-1,3.905086517E0,-5.108676434E0
3.335476560E1,6.412764788E-1,7.948956966E0,-1.828116536E0
3.337143226E1,6.412764788E-1,7.948956966E0,-1.828116536E0
3.338809893E1,8.805587292E-1,1.685025787E1,4.608576298E0
3.340476560E1,-9.284151793E-1,1.503410435E1,1.148554832E-1
3.342143226E1,-1.239482164E0,9.829715729E0,-2.914458036E0
3.342143226E1,-1.239482164E0,9.829715729E0,-2.914458036E0
3.345476560E1,-1.239482164E0,9.829715729E0,-2.914458036E0
3.347143226E1,6.482156754E0,4.295116425E0,-6.558726788E0
3.348809893E1,5.481956482E0,4.613361835E0,7.099504948E0
3.350476559E1,5.481956482E0,4.613361835E0,7.099504948E0
3.352143226E1,-1.296909928E0,1.047099209E1,-1.191625714E0
3.353809892E1,-3.144168854E0,1.000199890E1,-3.373879790E-1
3.355476559E1,-4.383651257E0,1.085862923E1,1.363908887E0
3.357143226E1,-4.383651257E0,1.085862923E1,1.363908887E0
3.358809892E1,-7.824530005E-1,8.944371223E0,-1.698904037E-1
3.360476559E1,-6.340979934E-1,8.647661209E0,-6.077769399E-1
3.362143226E1,-2.160718918E0,1.194018459E1,1.098305583E0
3.363809892E1,-4.910071850E0,1.176790142E1,2.706282377E0
3.365476559E1,-4.910071850E0,1.176790142E1,2.706282377E0
3.367143225E1,-1.473978758E0,1.029153061E1,6.245267391E-1
3.368809892E1,-1.835294962E0,1.152622700E1,1.359123230E0
3.370476559E1,-5.003392220E0,1.295234871E1,1.371087432E0
3.372143225E1,-5.003392220E0,1.295234871E1,1.371087432E0
3.373809892E1,-7.489534855E0,1.372283745E1,4.567898273E0
3.375476558E1,2.009970993E-1,1.071506023E1,-3.318845034E0
3.377143225E1,2.009970993E-1,1.071506023E1,-3.318845034E0
3.378809892E1,5.383850932E-1,1.182054424E1,-1.256231904E0
3.380476558E1,-2.823530734E-1,1.442393494E1,1.677368641E0
3.382143225E1,9.858429432E-1,1.873580170E1,3.852444410E0
3.383809891E1,5.324030399E0,1.792463493E1,6.245266914E0
3.385476558E1,7.530212879E0,1.553181171E1,3.335594654E0
3.387143224E1,6.252445698E0,1.024128056E1,-3.278167009E0
3.388809891E1,6.252445698E0,1.024128056E1,-3.278167009E0
3.390476558E1,-2.926422119E0,1.042792130E1,2.036292076E0
3.392143224E1,-4.132404804E0,1.068156052E1,1.093519926E0
3.393809891E1,-5.666203976E0,8.611768723E0,6.436693072E-1
3.395476558E1,-3.388236761E0,6.326622963E0,2.019542217E0
3.397143224E1,-8.949156404E-1,5.848058701E0,2.124826431E0
3.398809891E1,3.828516304E-1,6.120840549E0,1.344766378E0
3.400476557E1,2.031506538E0,6.051448345E0,-4.019941986E-1
3.402143224E1,3.787838221E0,3.629911900E0,2.031506538E0
3.403809891E1,3.914657831E0,6.221339107E-1,7.633104324E-1
3.405476557E1,3.663411379E0,5.934200287E-1,7.393822074E-1
3.407143224E1,2.165504456E0,8.087740541E-1,-5.264209956E-2
3.408809890E1,3.684946895E-1,1.040877819E0,6.412764788E-1
3.410476557E1,-1.122233868E0,4.235296249E0,3.208775282E0
3.412143224E1,-1.478764415E0,6.967899323E0,4.268795490E0
3.413809890E1,-1.622333765E0,1.013360405E1,-3.828516230E-2
3.415476557E1,-1.622333765E0,1.013360405E1,-3.828516230E-2
3.417143223E1,-8.949156404E-1,1.194497108E1,-2.940778971E0
3.418809890E1,-2.380858421E0,1.211007500E1,8.676374435E0
3.420476556E1,-2.679961443E0,1.060020447E1,7.865208149E0
3.422143223E1,-2.421536446E0,7.436892986E0,5.034498692E0
3.423809890E1,4.091726840E-1,7.463213921E0,4.761717021E-1
3.425476556E1,-7.298108935E-1,1.194497108E1,-5.376672268E0
3.427143223E1,-4.168296814E0,1.760878181E1,-3.340380430E0
3.428809890E1,-6.491727829E0,1.404826164E1,2.225325108E0
3.430476556E1,-6.491727829E0,1.404826164E1,2.225325108E0
3.432143223E1,-2.210968018E0,8.595019341E0,6.005984545E-1
3.433809889E1,1.208375454E0,1.084666538E1,4.902893543E0
3.435476556E1,1.208375454E0,1.084666538E1,4.902893543E0
3.437143222E1,-1.746760458E-1,1.294038486E1,6.812366009E0
3.438809889E1,-3.326023519E-1,1.161236858E1,6.795616150E0
3.440476556E1,-8.566305041E-1,1.083470058E1,-1.569691658E0
3.442143222E1,1.141376376E0,1.049252701E1,-7.728816867E-1
3.443809889E1,1.141376376E0,1.049252701E1,-7.728816867E-1
3.445476556E1,1.083948612E0,7.365108013E0,-4.570291340E-1
3.447143222E1,-7.417750359E-2,5.501099110E0,-2.297109663E-1
3.448809889E1,-2.366501570E0,6.441478729E0,-4.307080805E-2
3.450476555E1,-3.479164124E0,7.341179848E0,2.392822644E-3
3.452143222E1,-3.479164124E0,7.341179848E0,2.392822644E-3
3.453809889E1,-1.062413216E0,1.156690502E1,9.748359680E0
3.455476555E1,-1.062413216E0,1.156690502E1,9.748359680E0
3.457143222E1,-2.021935225E0,1.055234814E1,-3.014956415E-1
3.458809888E1,-3.302095175E0,9.674181938E0,7.410571575E0
3.460476555E1,-3.864408493E0,7.712067604E0,1.421336651E0
3.462143222E1,-3.763910055E0,9.489934921E0,-2.715853691E0
3.463809888E1,-3.065205812E0,9.413364410E0,-4.101297855E0
