"Time (s)","Gyroscope x (rad/s)","Gyroscope y (rad/s)","Gyroscope z (rad/s)"
3.466219200E-2,3.300960660E-1,1.389717404E-2,7.269290686E-1
4.900568200E-2,1.462257504E-1,2.386954129E-1,8.177952170E-1
6.567234800E-2,0.000000000E0,0.000000000E0,0.000000000E0
8.233901400E-2,0.000000000E0,0.000000000E0,0.000000000E0
9.900568000E-2,0.000000000E0,0.000000000E0,0.000000000E0
1.156723460E-1,0.000000000E0,0.000000000E0,0.000000000E0
1.323390120E-1,0.000000000E0,0.000000000E0,0.000000000E0
1.490056780E-1,4.482220486E-2,-2.664897591E-2,1.352683663E0
1.656723440E-1,4.482220486E-2,-2.664897591E-2,1.352683663E0
1.823390100E-1,6.268999726E-2,2.493091822E-1,1.488524795E0
1.990056760E-1,6.268999726E-2,2.493091822E-1,1.488524795E0
2.156723420E-1,6.268999726E-2,2.493091822E-1,1.488524795E0
2.323390080E-1,6.925679743E-2,3.636936247E-1,1.536324978E0
2.490056740E-1,2.160170525E-1,3.227656782E-1,1.505018115E0
2.656723400E-1,6.322450638E-1,2.645808160E-1,1.320078731E0
2.823390060E-1,6.322450638E-1,2.645808160E-1,1.320078731E0
2.990056720E-1,7.448732257E-1,7.987056673E-2,1.152549148E0
3.156723380E-1,7.448732257E-1,7.987056673E-2,1.152549148E0
3.323390040E-1,4.994583130E-1,-2.740492225E-1,1.138041139E0
3.490056700E-1,2.757290900E-1,-3.371210098E-1,1.236619353E0
3.656723360E-1,2.757290900E-1,-3.371210098E-1,1.236619353E0
3.823390020E-1,2.757290900E-1,-3.371210098E-1,1.236619353E0
3.990056680E-1,2.757290900E-1,-3.371210098E-1,1.236619353E0
4.156723340E-1,2.757290900E-1,-3.371210098E-1,1.236619353E0
4.323390000E-1,-2.359465137E-2,4.528798759E-1,1.567708135E0
4.490056660E-1,1.404988952E-2,1.857792437E-1,1.604589105E0
4.656723320E-1,1.404988952E-2,1.857792437E-1,1.604589105E0
4.823389980E-1,1.404988952E-2,1.857792437E-1,1.604589105E0
4.990056640E-1,1.604283601E-1,-4.756345749E-1,2.036241293E0
5.156723300E-1,1.604283601E-1,-4.756345749E-1,2.036241293E0
5.323389960E-1,1.924224049E-1,-9.485966563E-1,2.488892078E0
5.490056620E-1,1.924224049E-1,-9.485966563E-1,2.488892078E0
5.656723280E-1,1.924224049E-1,-9.485966563E-1,2.488892078E0
5.823389940E-1,1.924224049E-1,-9.485966563E-1,2.488892078E0
5.990056600E-1,1.924224049E-1,-9.485966563E-1,2.488892078E0
6.156723260E-1,-7.865647674E-1,-9.050725102E-1,2.348775148E0
6.323389920E-1,-7.865647674E-1,-9.050725102E-1,2.348775148E0
6.490056580E-1,-4.266127050E-1,9.670752883E-1,2.786154270E0
6.656723240E-1,-3.182605505E-1,9.894482493E-1,2.904051065E0
6.823389900E-1,-3.182605505E-1,9.894482493E-1,2.904051065E0
6.990056560E-1,-2.214155674E0,-2.613737583E-1,3.628384113E0
7.156723220E-1,-2.214155674E0,-2.613737583E-1,3.628384113E0
7.323389880E-1,-3.577453136E0,-2.976667643E0,4.553844452E0
7.490056540E-1,-3.577453136E0,-2.976667643E0,4.553844452E0
7.656723200E-1,-3.002400398E0,-1.182405114E0,5.252444267E0
7.823389860E-1,-3.002400398E0,-1.182405114E0,5.252444267E0
7.990056520E-1,-3.002400398E0,-1.182405114E0,5.252444267E0
8.156723180E-1,-3.520184755E0,-6.598866582E-1,7.059611320E0
8.323389840E-1,-3.467879295E0,-6.908116937E-1,7.746834278E0
8.490056500E-1,-3.584325552E0,-5.169443488E-1,8.029436111E0
8.656723160E-1,-3.980394840E0,4.360047355E-2,7.998281479E0
8.823389820E-1,-3.980394840E0,4.360047355E-2,7.998281479E0
8.990056480E-1,-3.980394840E0,4.360047355E-2,7.998281479E0
9.156723140E-1,-3.980394840E0,4.360047355E-2,7.998281479E0
9.323389800E-1,-3.506974697E0,1.186528444E0,4.266127110E0
9.490056460E-1,-3.506974697E0,1.186528444E0,4.266127110E0
9.656723120E-1,-3.648084402E0,1.002047300E0,3.107316494E0
9.823389780E-1,-3.753153324E0,-9.017891437E-2,2.098778725E0
9.990056440E-1,-3.579056740E0,-1.047404051E0,1.134223223E0
1.015672310E0,-3.412901640E0,-5.666534305E-1,3.462076187E-1
1.032338976E0,-3.355480194E0,-2.990946770E-1,1.574503928E-1
1.049005642E0,-3.018282890E0,-2.312886715E-1,3.077231348E-1
1.065672308E0,-3.018282890E0,-2.312886715E-1,3.077231348E-1
1.082338974E0,-3.018282890E0,-2.312886715E-1,3.077231348E-1
1.082338974E0,-2.197280645E0,-4.151589870E-1,7.060069442E-1
1.115672306E0,-1.789833784E0,-3.192532063E-1,-2.825249545E-2
1.132338972E0,-1.789833784E0,-3.192532063E-1,-2.825249545E-2
1.149005638E0,-2.199113220E-1,1.171256900E0,4.396699369E-1
1.165672304E0,1.667660922E-1,8.758273721E-2,8.294016719E-1
1.182338970E0,-2.443459183E-1,-1.773722291E0,1.060308576E0
1.199005636E0,-2.443459183E-1,-1.773722291E0,1.060308576E0
1.215672302E0,-2.443459183E-1,-1.773722291E0,1.060308576E0
1.232338968E0,-2.443459183E-1,-1.773722291E0,1.060308576E0
1.249005634E0,-2.443459183E-1,-1.773722291E0,1.060308576E0
1.265672300E0,-2.443459183E-1,-1.773722291E0,1.060308576E0
1.282338966E0,-1.485623121E0,-4.524217248E-1,4.016435891E-2
1.299005632E0,-1.227838159E0,-5.275580883E-1,3.058905303E-1
1.315672298E0,-6.817250848E-1,-1.566639066E0,9.973894954E-1
1.332338964E0,-6.817250848E-1,-1.566639066E0,9.973894954E-1
1.349005630E0,7.910698652E-1,3.504836559E-2,1.724929452E0
1.365672296E0,1.110552192E0,9.910517335E-1,1.646738768E0
1.382338962E0,8.429933786E-1,8.468876481E-1,1.506850719E0
1.399005628E0,6.316341758E-1,3.871355578E-2,1.555109024E0
1.415672294E0,6.316341758E-1,3.871355578E-2,1.555109024E0
1.432338960E0,1.025031090E0,-1.592066288E-1,1.258839607E0
1.449005626E0,1.549153090E0,-1.255708933E0,1.399949312E0
1.465672292E0,1.549153090E0,-1.255708933E0,1.399949312E0
1.482338958E0,2.767828226E0,-1.310075879E0,2.018755436E0
1.499005624E0,3.331656456E0,-1.141477227E0,2.271042585E0
1.515672290E0,3.299891472E0,-1.851912975E0,2.243553638E0
1.532338956E0,3.299891472E0,-1.851912975E0,2.243553638E0
1.549005622E0,3.040884972E0,-2.956967354E0,2.214232206E0
1.565672288E0,3.480096579E0,-2.821966171E0,2.703534842E0
1.582338954E0,4.109287262E0,-1.859854221E0,3.464061499E0
1.599005620E0,4.049422741E0,-8.097776175E-1,4.023002625E0
1.615672286E0,3.684736252E0,-4.365392327E-1,4.123795509E0
1.632338952E0,2.817308426E0,-8.867465854E-1,4.252687931E0
1.649005618E0,2.817308426E0,-8.867465854E-1,4.252687931E0
1.665672284E0,3.195433617E0,-1.823202252E0,4.576446056E0
1.682338950E0,3.462381601E0,-1.352225542E0,4.380358696E0
1.699005616E0,3.564395905E0,-6.607266068E-1,3.939314365E0
1.715672282E0,3.564395905E0,-6.607266068E-1,3.939314365E0
1.732338948E0,2.406807184E0,5.151880980E-1,3.248426199E0
1.749005614E0,1.933387041E0,5.738310814E-1,3.214217663E0
1.765672280E0,1.315802693E0,5.946004987E-1,3.330893040E0
1.782338946E0,1.052520037E0,7.833577394E-1,3.361436129E0
1.799005612E0,1.052520037E0,7.833577394E-1,3.361436129E0
1.815672278E0,8.802561760E-1,1.626351118E0,2.498284340E0
1.832338944E0,1.136819363E0,1.747913241E0,1.800065756E0
1.849005610E0,1.026863694E0,2.110766888E0,7.066178322E-1
1.865672276E0,9.743293524E-1,2.255541801E0,1.837175786E-1
1.882338942E0,9.505056143E-1,2.962312460E0,-7.160862088E-1
1.899005608E0,9.505056143E-1,2.962312460E0,-7.160862088E-1
1.915672274E0,-1.015868187E0,5.139434338E0,-1.033888608E-1
1.932338940E0,-1.053741693E0,5.102171898E0,-1.937968582E-1
1.949005606E0,-6.976075768E-1,4.403953075E0,-1.341611743E0
1.965672272E0,-6.640099883E-1,3.447949886E0,-1.890779257E0
1.982338938E0,-6.640099883E-1,3.447949886E0,-1.890779257E0
1.999005604E0,6.719512343E-1,2.308076143E0,-1.776547551E0
2.015672270E0,6.945532560E-1,2.250654936E0,-8.498656154E-1
2.032338936E0,7.635809481E-2,2.575024128E0,-1.039233685E0
2.049005602E0,-2.700022459E-1,2.292804480E0,-2.099694967E0
2.065672268E0,-5.821541548E-1,2.318460941E0,-2.096029758E0
2.082338934E0,-2.547306120E-1,2.516381025E0,-1.910326838E0
2.099005600E0,3.194822669E-1,1.708207011E0,-1.606727123E0
2.115672266E0,-1.795942485E-1,7.949641347E-1,-1.245095134E0
2.132338932E0,-4.593703151E-1,3.032180071E-1,-9.799798131E-1
2.149005598E0,-5.229002237E-1,-9.995274991E-2,-1.495549679E0
2.165672264E0,-2.901607752E-1,7.414371520E-2,-1.671478748E0
2.182338930E0,-5.711585879E-1,7.350993752E-1,-5.309942365E-1
2.199005596E0,-5.039634705E-1,8.230639100E-1,-4.108065739E-2
2.215672262E0,-1.258381456E-1,5.371792316E-1,8.964440972E-2
2.232338928E0,-1.258381456E-1,5.371792316E-1,8.964440972E-2
2.249005594E0,-1.258381456E-1,5.371792316E-1,8.964440972E-2
2.265672260E0,1.478292793E-1,-1.161635756E0,-4.839576185E-1
2.282338926E0,3.579667509E-1,-6.289616227E-1,-2.854265571E-1
2.299005592E0,-1.631008983E-1,-5.025126338E-1,5.593994260E-1
2.315672258E0,-1.631008983E-1,-5.025126338E-1,5.593994260E-1
2.332338924E0,-2.571740746E-1,1.115668178E0,2.176358461E0
2.349005590E0,-1.199738383E0,1.165759087E0,1.490357399E0
2.365672256E0,-1.965762854E0,1.364519149E-1,1.331532478E0
2.382338922E0,-1.528383732E0,3.716348708E-1,8.733839393E-1
2.399005588E0,-1.425147533E0,4.492146969E-1,6.620246768E-1
2.415672254E0,-1.436143041E0,2.702313066E-1,2.063195854E-1
2.432338920E0,-1.436143041E0,2.702313066E-1,2.063195854E-1
2.449005586E0,-9.046907425E-1,7.668643594E-1,-1.876882017E-1
2.465672252E0,-9.718858600E-1,1.278158188E0,-5.047270060E-1
2.482338918E0,-6.725621223E-1,1.531056166E0,-8.584177494E-1
2.482338918E0,-9.718858600E-1,1.278158188E0,-5.047270060E-1
2.515672250E0,-1.887572110E-1,1.231732488E0,-1.111926556E0
2.532338916E0,8.888082504E-1,4.156171381E-1,-1.340390086E0
2.549005582E0,1.433699608E0,-2.054032870E-2,-1.295796871E0
2.565672248E0,1.433699608E0,-2.054032870E-2,-1.295796871E0
2.582338914E0,-4.593703151E-1,3.966803253E-1,-6.061306000E-1
2.599005580E0,-4.593703151E-1,3.966803253E-1,-6.061306000E-1
2.615672246E0,-1.532048821E0,1.248454899E-1,-1.620166063E0
2.632338912E0,-1.532048821E0,1.248454899E-1,-1.620166063E0
2.649005578E0,-1.426980138E0,-7.034871578E-1,-1.605505347E0
2.665672244E0,-1.420260668E0,-7.429642975E-2,-1.582292438E0
2.682338910E0,-1.420260668E0,-7.429642975E-2,-1.582292438E0
2.699005576E0,-6.120865345E-1,-1.565340906E-2,-7.228057384E-1
2.715672242E0,-4.361574650E-1,-3.070359230E-1,-6.556106210E-1
2.732338908E0,-4.538725317E-1,-8.971312642E-1,-5.761982203E-1
2.749005574E0,-6.823359728E-1,-1.431638002E0,2.000582218E-2
2.765672240E0,-6.823359728E-1,-1.431638002E0,2.000582218E-2
2.782338906E0,6.291907281E-2,-9.062942863E-1,8.964440972E-2
2.799005572E0,1.115439057E0,1.150716543E-1,3.248273432E-1
2.815672238E0,1.507614255E0,9.305761456E-1,2.930623889E-1
2.832338904E0,1.507614255E0,9.305761456E-1,2.930623889E-1
2.849005570E0,-6.438514590E-1,4.260018170E-1,4.734201822E-3
2.865672236E0,-1.664606571E0,3.138317913E-2,1.030834317E-1
2.882338902E0,-9.492838383E-1,2.109774202E-1,-9.728021920E-2
2.899005568E0,-9.492838383E-1,2.109774202E-1,-9.728021920E-2
2.915672234E0,-6.988292933E-1,-1.097265854E-1,-7.166970968E-1
2.932338900E0,-7.849612236E-1,-1.082834125E0,-6.733257174E-1
2.949005566E0,-7.849612236E-1,-1.082834125E0,-6.733257174E-1
2.965672232E0,-1.991419196E0,-1.672318697E0,-9.103412628E-1
2.982338898E0,-2.914435863E0,-2.095648050E0,-1.071609497E0
2.999005564E0,-2.612057686E0,-1.087721109E0,-9.787580967E-1
3.015672230E0,-1.683543324E0,-3.400225937E-1,-1.283579588E0
3.032338896E0,-1.422093153E0,-6.527853608E-1,-1.464395642E0
3.049005562E0,-1.403767228E0,-1.509217739E0,-7.221949100E-1
3.065672228E0,-1.032972336E0,-9.288962483E-1,-6.250674129E-1
3.082338894E0,-1.032972336E0,-9.288962483E-1,-6.250674129E-1
3.099005560E0,-3.414734006E-1,-1.734626889E0,-9.347758293E-1
3.115672226E0,-9.065233469E-1,-1.935601354E0,-6.812669635E-1
3.132338892E0,-7.929024696E-1,-1.776776552E0,-5.004509687E-1
3.149005558E0,-7.929024696E-1,-1.776776552E0,-5.004509687E-1
3.165672224E0,-6.285798550E-1,-9.606612325E-1,-3.672824502E-1
3.182338890E0,-2.388481349E-1,-8.531489968E-1,-3.501782417E-1
3.199005556E0,1.838703007E-1,-1.614286542E0,-5.798633695E-1
3.215672222E0,-1.710421443E-1,-1.062064767E0,-5.438223481E-1
3.232338888E0,-5.277871490E-1,-6.185769439E-1,-3.526217043E-1
3.249005554E0,-1.398880333E-1,-3.278053105E-1,1.379027218E-1
3.265672220E0,7.244856358E-1,-3.974438906E-1,8.153517842E-1
3.282338886E0,7.244856358E-1,-3.974438906E-1,8.153517842E-1
3.299005552E0,2.235765159E-1,-2.819904685E-1,1.431103468E0
3.315672218E0,1.065348148E0,-1.022358537E0,1.407279730E0
3.332338884E0,1.065348148E0,-1.022358537E0,1.407279730E0
3.349005550E0,1.535103202E0,-4.487565458E-1,5.539016128E-1
3.349005550E0,1.535103202E0,-4.487565458E-1,5.539016128E-1
3.382338882E0,1.132543325E0,2.054796368E-1,8.837686181E-1
3.399005548E0,-2.425133139E-1,8.511636853E-1,2.057087123E-1
3.415672214E0,-2.425133139E-1,8.511636853E-1,2.057087123E-1
3.432338880E0,-1.352454662E0,1.830379963E0,1.941022873E-1
3.449005546E0,-1.905898094E0,2.972697020E0,5.838339925E-1
3.465672212E0,-1.905898094E0,2.972697020E0,5.838339925E-1
3.482338878E0,-1.386052132E0,2.728351116E0,3.040579557E-1
3.499005544E0,-1.494786143E0,1.900018573E0,4.738783538E-1
3.515672210E0,-1.207679629E0,1.840764642E0,4.127918780E-1
3.532338876E0,-1.132543325E0,1.685605049E0,2.814559340E-1
3.549005542E0,-1.117271662E0,1.944000840E0,6.210967898E-1
3.565672208E0,-1.160032272E0,2.017304659E0,8.287907839E-1
3.582338874E0,-1.308472395E0,1.333746910E0,8.446732759E-1
3.599005540E0,-1.717140913E0,3.856847584E-1,8.597921580E-2
3.615672206E0,-1.675602078E0,1.016326249E-1,-3.941605091E-1
3.632338872E0,-1.253494501E0,1.505018175E-1,-5.731438994E-1
3.649005538E0,-6.750055552E-1,2.622900605E-1,2.448040545E-1
3.665672204E0,-6.750055552E-1,2.622900605E-1,2.448040545E-1
3.682338870E0,-5.094612241E-1,-3.314704895E-1,5.312996507E-1
3.699005536E0,-7.293725610E-1,-1.701029301E0,6.944005489E-1
3.715672202E0,-9.089667797E-1,-2.429180145E0,7.628173828E-1
3.732338868E0,-7.916807532E-1,-2.387641430E0,4.830413163E-1
3.749005534E0,-7.757982612E-1,-2.434067011E0,5.196931958E-1
3.765672200E0,-1.133154154E0,-2.461555958E0,4.060723484E-1
3.782338866E0,-1.133154154E0,-2.461555958E0,4.060723484E-1
3.799005532E0,-7.635809779E-1,-1.510439515E0,7.988584042E-1
3.815672198E0,-7.220421433E-1,-9.093486071E-1,2.105956376E-1
3.832338864E0,-1.067791581E0,-1.188895553E-1,-1.008690476E0
3.849005530E0,-1.883296132E0,-6.466767192E-1,-2.317773581E0
3.865672196E0,-2.684750795E0,-1.497611403E0,-3.006829262E0
3.882338862E0,-2.890001297E0,-2.142684460E0,-3.322646141E0
3.899005528E0,-2.890001297E0,-2.142684460E0,-3.322646141E0
3.915672194E0,-1.119104266E0,-1.777998328E0,-2.286008835E0
3.932338860E0,-1.826485693E-1,-1.671707869E0,-1.207832336E0
3.949005526E0,-6.817250848E-1,-1.889786601E0,-5.145008564E-1
3.965672192E0,-1.664606571E0,-1.815261006E0,9.876156449E-1
3.982338858E0,-1.861915827E0,-1.572747707E0,1.778685570E0
3.999005524E0,-9.914335608E-1,-7.157044411E-1,2.200793028E0
4.015672190E0,-3.316995800E-1,-5.770381689E-1,2.481790781E0
4.032338856E0,-3.316995800E-1,-5.770381689E-1,2.481790781E0
4.049005522E0,1.573587656E0,-1.317406297E0,3.218493700E0
4.065672188E0,1.573587656E0,-1.317406297E0,3.218493700E0
4.082338854E0,6.579013467E-1,-2.040670156E0,2.578918457E0
4.099005520E0,2.791652083E-1,-1.208672285E0,1.333975911E0
4.115672186E0,2.791652083E-1,-1.208672285E0,1.333975911E0
4.132338852E0,-6.597339362E-2,3.777435124E-1,5.001455545E-1
4.149005518E0,9.896009415E-2,1.450803829E-3,3.052796721E-1
4.165672184E0,5.351175666E-1,-1.738673896E-1,-2.756527364E-1
4.182338850E0,5.351175666E-1,-1.738673896E-1,-2.756527364E-1
4.199005516E0,6.267472506E-1,2.024253160E-1,-5.316050649E-1
4.215672182E0,3.035998046E-1,2.836703360E-1,-5.389354229E-1
4.232338848E0,3.585776389E-1,-1.091157198E-1,-4.546361268E-1
4.249005514E0,2.791652083E-1,-2.716057599E-1,-5.761982203E-1
4.265672180E0,1.459966749E-1,-9.750928730E-2,-7.753401399E-1
4.282338846E0,-5.803215504E-1,7.393754721E-1,-1.210275888E0
4.299005512E0,-1.321300507E0,1.500512958E0,-1.149800181E0
4.315672178E0,-1.321300507E0,1.500512958E0,-1.149800181E0
4.332338844E0,-6.108647585E-1,1.122998595E0,-9.361502528E-2
4.349005510E0,-3.316995800E-1,1.267773509E0,3.260490894E-1
4.365672176E0,-3.316995800E-1,1.267773509E0,3.260490894E-1
4.382338842E0,7.586940527E-1,2.418642759E0,1.418275356E0
4.399005508E0,8.387173414E-1,2.143753529E0,1.578932762E0
4.415672174E0,8.368847370E-1,1.182252407E0,1.817780852E0
4.432338840E0,1.210734010E0,5.970439911E-1,1.850156665E0
4.449005506E0,1.210734010E0,5.970439911E-1,1.850156665E0
4.465672172E0,2.696968079E0,3.826304376E-1,1.726151109E0
4.482338838E0,3.502698660E0,-5.135082006E-1,1.628412843E0
4.499005504E0,3.502698660E0,-5.135082006E-1,1.628412843E0
4.515672170E0,2.769050121E0,-3.290270567E-1,1.034652233E0
4.532338836E0,2.162461281E0,-9.563851953E-1,9.155336022E-1
4.549005502E0,2.162461281E0,-9.563851953E-1,9.155336022E-1
4.565672168E0,2.174678594E-1,4.278344214E-1,1.806174397E0
4.582338834E0,2.174678594E-1,4.278344214E-1,1.806174397E0
4.599005500E0,2.174678594E-1,4.278344214E-1,1.806174397E0
4.615672166E0,1.152701855E0,2.201403975E-1,2.955821991E0
4.632338832E0,1.152701855E0,2.201403975E-1,2.955821991E0
4.649005498E0,1.611461282E0,2.240270138E0,4.559952736E0
4.665672164E0,1.909563303E0,2.718577385E0,4.839118004E0
4.682338830E0,2.287688494E0,3.157789230E0,5.057196617E0
4.699005496E0,2.397033453E0,3.441841125E0,4.998553753E0
4.715672162E0,2.397033453E0,3.441841125E0,4.998553753E0
4.732338828E0,2.132529020E0,3.454058647E0,4.543459415E0
4.749005494E0,1.753181934E0,3.395415545E0,4.427395344E0
4.765672160E0,1.753181934E0,3.395415545E0,4.427395344E0
4.782338826E0,1.124602079E0,2.328845501E0,4.088975906E0
4.799005492E0,1.124602079E0,2.328845501E0,4.088975906E0
4.815672158E0,-1.282205224E0,-3.036379814E0,-2.081368923E0
4.832338824E0,-1.282205224E0,-3.036379814E0,-2.081368923E0
4.849005490E0,9.279035926E-1,-5.287798047E-1,-3.096015453E0
4.865672156E0,2.777602196E0,3.191997528E0,-3.275762498E-1
4.882338822E0,2.777602196E0,3.191997528E0,-3.275762498E-1
4.899005488E0,2.541197538E0,3.150458813E0,6.388118267E-1
4.915672154E0,1.437975645E0,2.316017389E0,5.453495383E-1
4.932338820E0,1.437975645E0,2.316017389E0,5.453495383E-1
4.949005486E0,-8.985821009E-1,1.095738709E-1,7.231112123E-1
4.965672152E0,-8.985821009E-1,1.095738709E-1,7.231112123E-1
4.982338818E0,-7.391463965E-2,1.523344070E-1,1.041371703E0
4.999005484E0,3.976729810E-1,4.602102637E-1,8.874338269E-1
5.015672150E0,6.487383842E-1,1.081459761E0,6.626355648E-1
5.032338816E0,6.487383842E-1,1.081459761E0,6.626355648E-1
5.049005482E0,6.487383842E-1,1.081459761E0,6.626355648E-1
5.065672148E0,6.487383842E-1,1.081459761E0,6.626355648E-1
5.082338814E0,-2.541197538E-1,1.838932037E0,3.645335436E-1
5.099005480E0,-2.541197538E-1,1.838932037E0,3.645335436E-1
5.115672146E0,-1.453858137E0,1.034423113E0,3.222311661E-2
5.132338812E0,-1.894291639E0,9.629519582E-1,-6.134609580E-1
5.149005478E0,-2.040899277E0,3.948477209E-1,-1.625053048E0
5.165672144E0,-2.040899277E0,3.948477209E-1,-1.625053048E0
5.182338810E0,-2.040899277E0,3.948477209E-1,-1.625053048E0
5.199005476E0,-2.011577606E0,1.282434225E0,-3.122893572E0
5.215672142E0,-2.011577606E0,1.282434225E0,-3.122893572E0
5.232338808E0,-2.907716274E0,-2.322278738E0,-1.414304733E0
5.249005474E0,-2.422078848E0,-1.941710114E0,-1.790597439E0
5.265672140E0,-2.422078848E0,-1.941710114E0,-1.790597439E0
5.282338806E0,-2.393979073E0,3.136408806E0,-9.170607328E-1
5.299005472E0,-2.393979073E0,3.136408806E0,-9.170607328E-1
5.315672138E0,-2.393979073E0,3.136408806E0,-9.170607328E-1
5.332338804E0,-1.455079913E0,1.619020700E0,-1.421635032E0
5.349005470E0,-1.455079913E0,1.619020700E0,-1.421635032E0
5.365672136E0,-1.555872560E0,1.333136082E0,-1.091768026E0
5.382338802E0,-9.016364217E-1,1.596647799E-1,-7.026472092E-1
5.399005468E0,-1.704312712E-1,-2.593884468E-1,-7.209731340E-1
5.415672134E0,-3.219257295E-1,1.431714296E-1,-1.032514215E0
5.432338800E0,-4.025598764E-1,1.474474818E-1,-8.950695992E-1
5.449005466E0,-1.240055487E-1,-3.107011020E-1,-4.149298966E-1
5.465672132E0,2.272416949E-1,-8.922443390E-1,-1.711948514E-1
5.482338798E0,2.272416949E-1,-8.922443390E-1,-1.711948514E-1
5.499005464E0,8.130609989E-1,-1.005254388E0,1.055268943E-1
5.515672130E0,1.100778341E0,-1.134146810E0,4.384481907E-1
5.532338796E0,1.228449106E0,-1.454239964E0,7.316632867E-1
5.549005462E0,1.228449106E0,-1.454239964E0,7.316632867E-1
5.565672128E0,1.459355950E0,-1.666820884E0,7.499892116E-1
5.582338794E0,1.062293887E0,-1.263650179E0,2.869537175E-1
5.599005460E0,3.323104382E-1,5.958222151E-1,-1.137582898E0
5.615672126E0,-4.673115611E-1,1.978820086E0,-2.020893335E0
5.632338792E0,-5.839866996E-1,2.396880686E-1,-1.276249290E0
5.649005458E0,-5.839866996E-1,2.396880686E-1,-1.276249290E0
5.665672124E0,-4.306596816E-1,-8.562033176E-1,1.550069451E-1
5.682338790E0,-4.306596816E-1,-8.562033176E-1,1.550069451E-1
5.699005456E0,4.990765154E-1,-2.361755967E-1,1.843284518E-1
5.715672122E0,8.704823256E-1,-5.128973126E-1,5.849030241E-2
5.732338788E0,8.704823256E-1,-5.128973126E-1,5.849030241E-2
5.749005454E0,1.218675256E0,-7.554106712E-1,1.519068003E0
5.765672120E0,1.679878116E0,-1.043128014E0,1.708436131E0
5.782338786E0,2.247982502E0,2.195677042E0,1.487913847E0
5.799005452E0,2.889390290E-1,1.256777883E0,6.974548697E-1
5.815672118E0,2.889390290E-1,1.256777883E0,6.974548697E-1
5.832338784E0,-5.925388336E-1,-1.195004210E-1,4.714348912E-1
5.849005450E0,-5.925388336E-1,-1.195004210E-1,4.714348912E-1
5.865672116E0,-6.646208763E-1,-5.464949012E-1,2.002872944E0
5.882338782E0,-6.646208763E-1,-5.464949012E-1,2.002872944E0
5.899005448E0,-6.646208763E-1,-5.464949012E-1,2.002872944E0
5.915672114E0,5.192350596E-2,-8.904117942E-1,2.553261995E0
5.932338780E0,5.192350596E-2,-8.904117942E-1,2.553261995E0
5.949005446E0,1.359174132E0,-2.558683395E0,1.630245328E0
5.965672112E0,2.208887100E0,-2.495764494E0,7.151699662E-1
5.982338778E0,3.021337271E0,-1.139644623E0,4.274526238E-1
5.999005444E0,3.214981318E0,1.150716543E-1,2.270889878E-1
6.015672110E0,3.214981318E0,1.150716543E-1,2.270889878E-1
6.032338776E0,2.893666506E0,1.841986418E0,-6.678279042E-1
6.049005442E0,2.893666506E0,1.841986418E0,-6.678279042E-1
6.065672108E0,2.243095398E0,3.334939957E0,-8.345940113E-1
6.082338774E0,2.410472393E0,2.636721373E0,-8.095485568E-1
6.099005440E0,2.410472393E0,2.636721373E0,-8.095485568E-1
6.115672106E0,-1.148425788E-1,-4.597521126E-1,1.288161159E0
6.132338772E0,-6.224712133E-1,-7.551816106E-2,1.175151110E0
6.149005438E0,-6.279689670E-1,1.468366235E-1,1.054199934E0
6.165672104E0,-6.279689670E-1,1.468366235E-1,1.054199934E0
6.182338770E0,3.457494676E-1,9.739475250E-1,7.023417950E-1
6.199005436E0,3.457494676E-1,9.739475250E-1,7.023417950E-1
6.215672102E0,9.511164427E-1,9.275218248E-1,6.455313563E-1
6.232338768E0,7.794634700E-1,9.256892204E-1,8.965967894E-1
6.249005434E0,7.794634700E-1,9.256892204E-1,8.965967894E-1
6.265672100E0,4.422661066E-1,1.672165990E0,9.269873053E-2
6.282338766E0,3.909534588E-2,1.974544048E0,-1.272125840E-1
6.299005432E0,-1.406210780E0,1.663002968E0,-4.424188137E-1
6.315672098E0,-2.141691923E0,1.276325583E0,-1.002581835E0
6.332338764E0,-2.141691923E0,1.276325583E0,-1.002581835E0
6.349005430E0,-2.560745239E0,5.939896107E-1,-2.333045244E0
6.365672096E0,-2.960861683E0,1.944840699E-1,-3.694051981E0
6.382338762E0,-2.960861683E0,1.944840699E-1,-3.694051981E0
6.399005428E0,-2.960861683E0,1.944840699E-1,-3.694051981E0
6.415672094E0,-3.290728569E0,-4.230620384E0,-3.730093002E0
6.432338760E0,-2.450789452E0,-2.040059328E0,-3.859596491E0
6.449005426E0,-2.450789452E0,-2.040059328E0,-3.859596491E0
6.465672092E0,-1.222951293E0,2.526154995E0,-1.913992047E0
6.482338758E0,-9.584468603E-1,1.905516267E0,-2.139401197E0
6.499005424E0,-1.563813806E0,1.242727995E0,-2.326325893E0
6.515672090E0,-1.563813806E0,1.242727995E0,-2.326325893E0
6.532338756E0,-2.191171885E0,1.030147076E0,-1.620166063E0
6.549005422E0,-1.586415887E0,1.669951528E-1,-8.950695992E-1
6.565672088E0,-1.586415887E0,1.669951528E-1,-8.950695992E-1
6.582338754E0,-1.264490128E0,-2.848157100E-2,2.857320011E-1
6.599005420E0,-1.218064427E0,-4.945713878E-1,3.156643808E-1
6.615672086E0,-5.992583632E-1,-8.708640933E-1,1.238528341E-1
6.632338752E0,4.184423685E-1,1.977674663E-2,-5.940660089E-2
6.649005418E0,4.184423685E-1,1.977674663E-2,-5.940660089E-2
6.665672084E0,1.430034399E0,5.887209252E-2,8.964440972E-2
6.682338750E0,2.158185244E0,-1.080390692E0,4.940368831E-1
6.699005416E0,2.720791817E0,-2.583117962E0,1.182481527E0
6.715672082E0,1.248607635E0,-4.443201542E0,1.386510372E0
6.732338748E0,6.921098232E-1,-2.806083679E0,7.964149714E-1
6.749005414E0,1.794109821E0,4.275671482E0,-6.171261668E-1
6.765672080E0,1.794109821E0,4.275671482E0,-6.171261668E-1
6.782338746E0,1.506392598E0,5.276344717E-2,6.582067907E-2
6.799005412E0,1.243109822E0,-5.904771686E-1,-5.988001823E-1
6.815672078E0,-7.012727857E-1,1.430263519E0,-7.215840220E-1
6.832338744E0,-2.054338217E0,4.913643599E-1,-7.527381182E-1
6.849005410E0,-2.136805058E0,-2.920926332E0,8.659008145E-2
6.865672076E0,-1.858250618E0,-3.084638119E0,5.001455545E-1
6.882338742E0,-1.424536705E0,-2.313726664E0,8.110756874E-1
6.899005408E0,-1.215620875E0,-2.169562578E0,6.840158105E-1
6.915672074E0,-1.215620875E0,-2.169562578E0,6.840158105E-1
6.932338740E0,-9.608902931E-1,-1.155527115E0,7.127264738E-1
6.949005406E0,-6.084213257E-1,1.305723470E-2,8.086322546E-1
6.965672072E0,1.356119812E-1,2.299142331E-1,8.391754627E-1
6.982338738E0,1.356119812E-1,2.299142331E-1,8.391754627E-1
6.999005404E0,1.352454662E0,-1.654603601E0,8.990402222E-1
7.015672070E0,2.891222954E0,4.107302129E-1,1.015715361E0
7.032338736E0,3.488648653E0,2.600069523E0,1.216079116E0
7.049005402E0,3.488648653E0,2.600069523E0,1.216079116E0
7.065672068E0,2.804480314E0,2.904891014E0,7.115047574E-1
7.082338734E0,3.191157579E0,1.571373343E0,2.240346521E-1
7.082338734E0,3.191157579E0,1.571373343E0,2.240346521E-1
7.115672066E0,3.050658703E0,1.754021883E0,-9.926552884E-3
7.132338732E0,8.448259830E-1,1.118722439E0,-1.455385387E-1
7.149005398E0,-3.060432673E-1,-1.007697821E0,-9.178243577E-2
7.165672064E0,-3.298669755E-1,-1.699196696E0,2.472475171E-1
7.182338730E0,-8.368847519E-2,-1.327180147E0,3.889681399E-1
7.199005396E0,3.097084463E-1,-2.563341260E-1,4.298960865E-1
7.215672062E0,3.097084463E-1,-2.563341260E-1,4.298960865E-1
7.232338728E0,9.162971750E-3,9.857830405E-2,3.229947388E-1
7.249005394E0,-6.658425927E-2,1.266780794E-1,3.187187016E-1
7.265672060E0,-1.948658675E-1,-1.992946304E-2,3.132209182E-1
7.282338726E0,7.452550530E-2,8.193987608E-1,3.150535226E-1
7.299005392E0,-1.404989064E-1,1.146211386E0,1.385135949E-1
7.315672058E0,-3.683514595E-1,1.137659311E0,9.697478265E-2
7.332338724E0,-4.612029195E-1,2.090608358E0,1.878409274E-2
7.349005390E0,-7.165443897E-1,2.031354427E0,-2.774853408E-1
7.365672056E0,-7.165443897E-1,2.031354427E0,-2.774853408E-1
7.382338722E0,-2.006690741E0,8.529962897E-1,-1.538310289E0
7.399005388E0,-2.981020212E0,6.703477502E-1,-2.669020891E0
7.415672054E0,-3.371362686E0,2.537379563E-1,-3.187034369E0
7.432338720E0,-3.371362686E0,2.537379563E-1,-3.187034369E0
7.449005386E0,-2.656651020E0,7.216603756E-1,-3.080132961E0
7.465672052E0,-1.337182999E0,2.331899881E0,-2.667799234E0
7.482338718E0,-1.337182999E0,2.331899881E0,-2.667799234E0
7.499005384E0,7.092140317E-1,1.350240231E0,-1.443015337E0
7.515672050E0,4.752528071E-1,1.086346626E0,-7.948877811E-1
7.532338716E0,-3.530798554E-1,5.677224398E-1,8.232930303E-1
7.549005382E0,-3.530798554E-1,5.677224398E-1,8.232930303E-1
7.565672048E0,1.160643063E-2,-2.545015514E-1,2.163530350E0
7.582338714E0,3.756818473E-1,-4.298197329E-1,2.225227594E0
7.599005380E0,1.202792764E0,-7.370846868E-1,2.542877436E0
7.615672046E0,1.514944673E0,-6.729438901E-1,3.209330797E0
7.632338712E0,1.228449106E0,-3.589594066E-1,3.393811941E0
7.649005378E0,1.009148598E0,-6.100248694E-1,3.151298761E0
7.665672044E0,7.086031437E-1,-2.050443888E0,2.109163284E0
7.682338710E0,1.132543325E0,-2.696128130E0,1.541059136E0
7.699005376E0,1.638950229E0,-1.958814263E0,1.622304082E0
7.715672042E0,2.635881424E0,6.404153705E-1,1.780518174E0
7.732338708E0,2.698800564E0,5.188532472E-1,7.780889869E-1
7.749005374E0,2.090379238E0,-7.077631950E-1,-5.548179150E-1
7.765672040E0,1.500283957E0,-9.533308744E-1,-8.950695992E-1
7.782338706E0,3.158170879E-1,2.457967103E-1,-9.066760540E-1
7.799005372E0,3.158170879E-1,2.457967103E-1,-9.066760540E-1
7.815672038E0,-7.812960744E-1,-7.157044411E-1,5.441278219E-1
7.832338704E0,-8.038980365E-1,-4.811323583E-1,3.639226854E-1
7.849005370E0,-1.068402529E0,-6.900480986E-1,-2.787070572E-1
7.865672036E0,-1.502727389E0,-4.860192835E-1,-4.937314689E-1
7.882338702E0,-1.502727389E0,-4.860192835E-1,-4.937314689E-1
7.899005368E0,-1.145371437E0,9.073632956E-1,-3.208567202E-1
7.915672034E0,-5.442805290E-1,1.718820781E-1,-1.528689116E-1
7.932338700E0,-2.724456787E-1,-6.094139814E-1,-2.023489624E-1
7.949005366E0,-2.724456787E-1,-6.094139814E-1,-2.023489624E-1
7.965672032E0,-2.046397030E-1,-4.982365966E-1,-9.972367436E-2
7.982338698E0,3.970621154E-2,-2.270126194E-1,3.535379767E-1
7.999005364E0,5.057960153E-1,-1.463784724E-1,8.965967894E-1
8.015672030E0,5.057960153E-1,-1.463784724E-1,8.965967894E-1
8.032338696E0,1.299309373E0,8.391755074E-2,1.188590169E0
8.049005362E0,1.846033335E0,9.201914072E-1,1.154992580E0
8.065672028E0,1.797164202E0,1.862144947E0,9.350812435E-1
8.082338694E0,1.797164202E0,1.862144947E0,9.350812435E-1
8.099005360E0,1.007926941E0,5.322693825E0,-5.451968312E-2
8.115672026E0,-8.918625861E-2,4.620199203E0,-1.332448840E0
8.132338692E0,-8.918625861E-2,4.620199203E0,-1.332448840E0
8.149005358E0,-3.138623238E0,-5.929206014E-1,-4.174191952E0
8.165672024E0,-3.371973515E0,-1.076725483E0,-4.224893570E0
8.182338690E0,-3.376249552E0,-4.738020003E-1,-3.776518822E0
8.199005356E0,-3.042717457E0,8.810960650E-1,-3.241401196E0
8.215672022E0,-3.042717457E0,8.810960650E-1,-3.241401196E0
8.232338688E0,-1.293811560E0,2.130925417E0,-2.678794861E0
8.249005354E0,8.081740737E-1,2.793942690E-1,-2.500422239E0
8.265672020E0,1.541822672E0,-8.189405799E-1,-1.853516459E0
8.282338686E0,1.536324978E0,-9.918153286E-1,-1.377652764E0
8.299005352E0,1.120326042E0,-9.166789651E-1,1.806632578E-1
8.315672018E0,1.120326042E0,-9.166789651E-1,1.806632578E-1
8.332338684E0,1.323743939E0,-1.416977167E0,3.952753305E0
8.349005350E0,1.453858137E0,-1.386433959E0,4.525133610E0
8.365672016E0,1.489899158E0,-6.436223984E-1,4.786583900E0
8.382338682E0,1.069624186E0,-3.442986608E-1,3.703520536E0
8.399005348E0,7.904590368E-1,-9.038507938E-1,2.206901789E0
8.415672014E0,8.216131330E-1,-1.079169035E0,1.725540280E0
8.432338680E0,1.736077666E0,5.689441562E-1,1.626580238E0
8.449005346E0,2.984074354E0,9.171370864E-1,1.765857339E0
8.465672012E0,2.984074354E0,9.171370864E-1,1.765857339E0
8.482338678E0,1.767231822E0,-1.062675595E0,6.101012230E-1
8.499005344E0,-3.390299380E-1,-7.352521420E-1,-9.850194305E-2
8.515672010E0,-1.304196358E0,-1.636888504E0,-6.806560755E-1
8.532338676E0,-1.304196358E0,-1.636888504E0,-6.806560755E-1
8.549005342E0,-1.147204041E0,-1.793269873E0,-7.716749310E-1
8.565672008E0,-1.204014540E0,-1.254487157E0,-1.158963203E0
8.582338674E0,-1.353065491E0,-2.661079764E-1,-1.215773582E0
8.599005340E0,-6.725621223E-1,9.556216002E-1,-9.304997921E-1
8.615672006E0,-4.141663313E-1,8.432224989E-1,-7.673988938E-1
8.632338672E0,-1.081230640E-1,3.490328491E-1,-4.112647176E-1
8.649005338E0,-1.081230640E-1,3.490328491E-1,-4.112647176E-1
8.665672004E0,-1.081230640E-1,3.490328491E-1,-4.112647176E-1
8.682338670E0,-5.778780580E-1,-8.629228473E-1,5.294670463E-1
8.699005336E0,-4.105011225E-1,-1.279532671E0,8.122974634E-1
8.715672002E0,1.655443609E-1,-1.019915104E0,1.095127821E0
8.732338668E0,1.655443609E-1,-1.019915104E0,1.095127821E0
8.749005334E0,1.775783896E0,5.595750332E0,3.895790279E-1
8.765672000E0,9.914335608E-1,5.169977665E0,-6.574432254E-1
8.782338666E0,1.710421443E-1,4.090579510E0,-2.132681608E0
8.799005332E0,1.710421443E-1,4.090579510E0,-2.132681608E0
8.815671998E0,-1.645669699E0,-2.777144015E-1,-3.854098558E0
8.832338664E0,-1.645669699E0,-2.777144015E-1,-3.854098558E0
8.849005330E0,-2.811199665E0,5.988765359E-1,-2.995833635E0
8.865671996E0,-2.554636478E0,1.543273449E0,-2.541960955E0
8.882338662E0,-9.792162180E-1,1.135215878E0,-2.077703714E0
8.899005328E0,1.063515544E0,-1.758450627E0,-1.731954336E0
8.915671994E0,1.789833784E0,-1.289917350E0,-7.380773425E-1
8.932338660E0,1.938884854E0,4.482220486E-2,-1.374445739E-3
8.949005326E0,1.477681875E0,2.402989268E-1,1.803120136E0
8.965671992E0,6.988292933E-1,-1.705916286E0,3.522093534E0
8.982338658E0,6.988292933E-1,-1.705916286E0,3.522093534E0
8.999005324E0,7.422007322E-1,-1.706527114E0,4.789638042E0
9.015671990E0,5.858193040E-1,-2.279518366E0,4.166555882E0
9.032338656E0,5.974257588E-1,-2.793255568E0,2.581361771E0
9.049005322E0,5.974257588E-1,-2.793255568E0,2.581361771E0
9.065671988E0,1.853974581E0,1.118111610E0,1.020602345E0
9.082338654E0,2.971857071E0,1.867031813E0,9.301943183E-1
9.099005320E0,2.664592266E0,1.944840699E-1,8.458949924E-1
9.115671986E0,-2.455676347E-1,-8.384882808E-1,1.041371703E0
9.132338652E0,-1.384219646E0,-2.433456182E0,6.339249015E-1
9.149005318E0,-1.723860383E0,-2.648480654E0,-3.764454126E-1
9.165671984E0,-1.431256175E0,-1.296636820E0,-4.864010811E-1
9.182338650E0,-1.431256175E0,-1.296636820E0,-4.864010811E-1
9.199005316E0,-4.312705398E-1,2.610683441E-1,-7.881683111E-1
9.215671982E0,8.979712427E-2,4.657080472E-1,-9.421061873E-1
9.232338648E0,-1.343902498E-1,-2.306778133E-1,-8.938478827E-1
9.249005314E0,-1.343902498E-1,-2.306778133E-1,-8.938478827E-1
9.265671980E0,-9.523382187E-1,-6.882155538E-1,-9.537126422E-1
9.282338646E0,-1.137430191E0,-3.980547488E-1,-7.313578725E-1
9.299005312E0,-7.782417536E-1,-1.748600416E-2,-2.616028488E-1
9.315671978E0,-7.782417536E-1,-1.748600416E-2,-2.616028488E-1
9.332338644E0,5.021308661E-1,-3.308596313E-1,8.587231636E-1
9.349005310E0,7.727439404E-1,-7.040980458E-1,1.253341794E0
9.365671976E0,7.727439404E-1,-7.040980458E-1,1.253341794E0
9.382338642E0,1.439197421E0,5.396608353E0,4.024071693E-1
9.399005308E0,9.040798545E-1,4.871264935E0,-2.145662606E-1
9.415671974E0,-2.015853822E-1,4.304382324E0,-1.543807983E0
9.432338640E0,-1.560759544E0,1.421100497E0,-2.863886833E0
9.449005306E0,-2.095266104E0,5.054142475E-1,-3.403891325E0
9.465671972E0,-2.845408201E0,-1.086499333E0,-3.899302721E0
9.482338638E0,-3.307832718E0,-2.954294682E-1,-3.736812592E0
9.499005304E0,-2.881449223E0,1.465082765E0,-2.926194906E0
9.515671970E0,-2.150243998E0,1.636735797E0,-2.514472246E0
9.532338636E0,2.663370371E-1,-3.888917863E-1,-2.206596375E0
9.549005302E0,1.489899158E0,-7.890082002E-1,-1.495549679E0
9.565671968E0,1.607185245E0,7.619774342E-1,-2.170097083E-1
9.582338634E0,1.308472395E0,6.092612743E-1,5.496255755E-1
9.599005300E0,6.860011220E-1,-8.647554517E-1,2.104276419E0
9.615671966E0,9.841031432E-1,-2.283183575E0,3.443902969E0
9.632338632E0,1.307250619E0,-3.019275427E0,4.360810757E0
9.649005298E0,1.238833785E0,-2.756603718E0,4.592939377E0
9.665671964E0,8.344413042E-1,-3.149771392E-1,4.254520416E0
9.682338630E0,7.067705393E-1,-5.141190886E-1,2.876409531E0
9.699005296E0,7.067705393E-1,-5.141190886E-1,2.876409531E0
9.715671962E0,1.494175196E0,-2.516533852E0,1.303432703E0
9.732338628E0,2.756832838E0,1.676060259E-1,1.441488147E0
9.749005294E0,3.117243052E0,2.046626091E0,1.568548083E0
9.765671960E0,1.392771721E0,1.220736861E0,1.378569126E0
9.782338626E0,1.875354946E-1,-2.538906634E-1,9.619593024E-1
9.799005292E0,-1.827707410E0,-2.513479471E0,-1.400407553E-1
9.815671958E0,-1.827707410E0,-2.513479471E0,-1.400407553E-1
9.832338624E0,-1.827707410E0,-2.513479471E0,-1.400407553E-1
9.849005290E0,-1.640171885E0,-1.107879639E0,-1.693622619E-1
9.865671956E0,-8.600975871E-1,-1.051069260E0,-6.549997330E-1
9.882338622E0,-6.939423680E-1,-1.082834125E0,-7.539598346E-1
9.899005288E0,-6.939423680E-1,-1.082834125E0,-7.539598346E-1
9.915671954E0,2.553414702E-1,2.647335231E-1,-1.290451884E-1
9.932338620E0,3.512472510E-1,-4.182133079E-1,-3.191768378E-2
9.949005286E0,3.042106628E-1,-9.686024785E-1,-1.467602700E-1
9.965671952E0,7.935133576E-1,1.272049546E0,-2.719875574E-1
9.982338618E0,1.186910272E0,3.940917730E0,-3.086394370E-1
9.999005284E0,1.241888046E0,6.265869141E0,-6.580541134E-1
1.001567195E1,1.230892539E0,6.862683773E0,-1.350774765E0
1.003233862E1,8.735366166E-2,4.648299217E0,-2.037997723E0
1.004900528E1,-3.648084402E0,-1.545258760E0,-3.110676289E0
1.006567195E1,-4.769632339E0,-2.269133568E0,-3.528507710E0
1.008233861E1,-4.051255226E0,-6.222421527E-1,-3.259116411E0
1.009900528E1,-3.827678680E0,-1.610392332E-1,-2.787528753E0
1.011567195E1,-2.835634232E0,8.352812529E-1,-1.821140647E0
1.013233861E1,-1.168584347E0,6.288089156E-1,-1.488830209E0
1.014900528E1,-2.400698513E-1,7.108938694E-2,-1.560912251E0
1.016567194E1,-1.435532272E-1,-6.330086291E-2,-1.531590700E0
1.018233861E1,1.288924664E-1,-7.407498956E-1,-1.362992048E0
1.019900528E1,1.288924664E-1,-7.407498956E-1,-1.362992048E0
1.021567194E1,3.768424749E0,-3.986885309E0,4.549415410E-1
1.023233861E1,3.935190916E0,-3.804847717E0,1.140942693E0
1.024900527E1,3.180773020E0,-4.187860012E0,2.889848471E0
1.026567194E1,2.408029079E0,-4.248335361E0,3.937481642E0
1.028233861E1,2.408029079E0,-4.248335361E0,3.937481642E0
1.029900527E1,3.396408081E0,2.754618406E0,2.759734392E0
1.031567194E1,1.910174131E0,1.647731423E0,2.457356215E0
1.033233860E1,-1.411097646E0,-5.242823124E0,1.995542526E0
1.034900527E1,-1.411097646E0,-5.242823124E0,1.995542526E0
1.036567194E1,-3.551567793E0,-8.018363714E-1,-9.427170753E-1
1.038233860E1,-3.551567793E0,-8.018363714E-1,-9.427170753E-1
1.039900527E1,-5.809323788E-1,-1.696753263E0,-1.076649204E-1
1.041567193E1,6.023126841E-1,-2.933754444E0,3.944659233E-1
1.043233860E1,9.297361970E-1,-3.214141369E0,9.570723772E-1
1.044900527E1,1.604130864E0,2.955058403E-2,1.544113398E0
1.046567193E1,1.604130864E0,2.955058403E-2,1.544113398E0
1.048233860E1,2.571740746E-1,-4.884627461E-1,9.387464523E-1
1.049900526E1,3.274235129E-1,-5.391645432E-1,9.863939285E-1
1.051567193E1,4.416552484E-1,-6.546179652E-1,1.677892804E0
1.053233860E1,3.738492429E-1,-2.599993348E-1,1.873980403E0
1.054900526E1,3.738492429E-1,-2.599993348E-1,1.873980403E0
1.056567193E1,7.024945319E-2,1.716759086E0,8.978185058E-1
1.058233859E1,-2.234543324E0,1.462028503E0,-1.705839932E-1
1.059900526E1,-3.817294121E0,-2.512868643E0,-1.705687165E0
1.061567193E1,-4.050033569E0,-3.239186764E0,-2.462548733E0
1.063233859E1,-4.619970322E0,-3.870210171E0,-3.662897825E0
1.064900526E1,-5.388438225E0,-4.170144558E0,-3.951837063E0
1.066567192E1,-5.615679741E0,-3.025384188E0,-3.652513266E0
1.066567192E1,-5.615679741E0,-3.025384188E0,-3.652513266E0
1.069900526E1,-1.672547817E0,2.191401005E0,-2.835787058E0
1.071567192E1,2.315788269E0,3.674580812E0,-3.145495415E0
1.073233859E1,2.315788269E0,3.674580812E0,-3.145495415E0
1.074900525E1,4.524675369E0,1.510286808E0,-3.845546484E0
1.076567192E1,5.613847256E0,-1.201341987E0,-3.797288179E0
1.078233859E1,3.436114311E0,-4.282543659E0,-2.787528753E0
1.079900525E1,-6.615665555E-1,-3.286834240E0,-5.578722358E-1
1.081567192E1,-8.710931540E-1,-3.043710232E0,7.742711157E-2
1.083233858E1,-9.224057943E-2,-3.569053888E0,3.486510813E-1
1.084900525E1,-9.224057943E-2,-3.569053888E0,3.486510813E-1
1.086567192E1,1.774562240E0,-2.372980595E0,1.782197952E-1
1.088233858E1,1.876576662E0,-2.583117962E0,3.144426346E-1
1.089900525E1,1.365282774E0,-3.035157919E0,9.857830405E-1
1.091567191E1,1.213788271E0,-4.231002033E-1,1.459814072E0
1.093233858E1,1.133154154E0,3.197113574E-1,2.017533541E0
1.094900525E1,7.861829996E-1,-1.269758821E0,2.312581301E0
1.096567191E1,7.861829996E-1,-1.269758821E0,2.312581301E0
1.098233858E1,2.989572287E0,-6.979893446E-1,2.116493702E0
1.099900524E1,2.989572287E0,-6.979893446E-1,2.116493702E0
1.101567191E1,1.740353703E0,2.301356792E0,-1.333670497E0
1.103233858E1,-1.130710721E0,-1.902003884E0,-1.468060732E0
1.104900524E1,-1.130710721E0,-1.902003884E0,-1.468060732E0
1.106567191E1,-4.227184296E0,-9.795598984E0,9.955568910E-1
1.108233857E1,-4.312094688E0,-9.518265724E0,1.343138933E0
1.109900524E1,-3.730551243E0,-6.680188179E0,1.639408350E0
1.111567191E1,-3.730551243E0,-6.680188179E0,1.639408350E0
1.113233857E1,-2.734841585E0,-1.137201190E0,1.336419463E0
1.114900524E1,-2.081216335E0,-8.598685265E-1,6.889027357E-1
1.116567190E1,-2.081216335E0,-8.598685265E-1,6.889027357E-1
1.116567190E1,-9.224057943E-2,-4.756345749E-1,-8.962913752E-1
1.119900524E1,1.900400281E0,4.162279963E-1,-1.977522016E0
1.121567190E1,2.127031088E0,5.493965149E-1,-2.136957645E0
1.123233857E1,2.818530083E0,-7.737365961E-1,-2.249967813E0
1.124900523E1,3.550956964E0,-1.624060392E0,-1.777158380E0
1.126567190E1,3.628536701E0,-1.484172344E0,-1.314733744E0
1.128233857E1,3.175275087E0,-1.661323071E0,-4.931205809E-1
1.129900523E1,3.175275087E0,-1.661323071E0,-4.931205809E-1
1.131567190E1,-6.566796303E-1,-5.833529472E0,8.367320299E-1
1.133233856E1,3.762927055E-1,-1.673540473E0,1.340695500E0
1.134900523E1,7.568614483E-1,1.920177102E0,9.949460030E-1
1.136567190E1,-7.330377400E-2,3.797364473E0,7.579304576E-1
1.138233856E1,-7.330377400E-2,3.797364473E0,7.579304576E-1
1.139900523E1,-7.012727857E-1,1.667279005E0,8.965967894E-1
1.141567189E1,-1.936441302E0,-3.444437504E0,3.804160357E-1
1.143233856E1,-2.711628675E0,-4.644786835E0,-1.098487616E0
1.144900523E1,-2.711628675E0,-4.644786835E0,-1.098487616E0
1.146567189E1,-3.913810730E0,-3.029660225E0,-3.058141708E0
1.148233856E1,-3.918697596E0,-6.094139814E-1,-3.579209566E0
1.149900522E1,-1.723860383E0,1.600083947E0,-4.036746979E0
1.151567189E1,-1.723860383E0,1.600083947E0,-4.036746979E0
1.153233856E1,2.219882727E0,2.241492033E0,-3.510181665E0
1.154900522E1,2.219882727E0,2.241492033E0,-3.510181665E0
1.156567189E1,3.054934740E0,-4.891576290E0,-3.215134144E0
1.158233855E1,3.054934740E0,-4.891576290E0,-3.215134144E0
1.159900522E1,-1.252272725E-1,-2.126802206E0,-4.845684767E-1
1.161567189E1,8.063415438E-2,-2.205603600E0,8.475748450E-2
1.163233855E1,8.063415438E-2,-2.205603600E0,8.475748450E-2
1.164900522E1,1.323743939E0,-3.119457245E0,3.199404180E-1
1.166567188E1,1.580918074E0,-3.271562576E0,4.702131748E-1
1.168233855E1,1.470962405E0,-4.430984020E0,1.214857340E0
1.169900522E1,1.470962405E0,-4.430984020E0,1.214857340E0
1.171567188E1,7.018836141E-1,-1.470733285E0,1.968053579E0
1.173233855E1,3.353647590E-1,-1.556865215E0,1.915519238E0
1.174900521E1,9.199623466E-1,-1.635666847E0,1.912464857E0
1.176567188E1,9.199623466E-1,-1.635666847E0,1.912464857E0
1.178233855E1,9.199623466E-1,-1.635666847E0,1.912464857E0
1.179900521E1,6.243038177E-1,4.437169135E-1,7.286089659E-1
1.181567188E1,1.117882580E-1,-3.107011020E-1,7.249437571E-1
1.183233854E1,-4.819723070E-1,-3.225747824E0,-2.596175298E-3
1.184900521E1,-1.114828229E0,-3.653353214E0,-4.796815813E-1
1.186567188E1,-2.290742874E0,-3.845164776E0,-1.077718139E0
1.188233854E1,-2.588845015E0,-2.752327681E0,-1.143691540E0
1.189900521E1,-1.977980137E0,-7.047088742E-1,-7.643445730E-1
1.191567187E1,-1.603520036E0,-3.336848691E-2,-4.735729098E-1
1.193233854E1,-7.574723363E-1,-9.140064567E-2,-1.027780026E-1
1.194900521E1,1.014035568E-1,-9.130137563E-1,-6.123919412E-2
1.196567187E1,1.014035568E-1,-9.130137563E-1,-6.123919412E-2
1.198233854E1,4.636463821E-1,-1.518991590E0,1.878409274E-2
1.199900520E1,4.373791814E-1,-1.720577002E0,1.220202371E-1
1.201567187E1,4.373791814E-1,-1.720577002E0,1.220202371E-1
1.203233854E1,6.627882719E-1,-2.441397429E0,9.527963400E-1
1.204900520E1,9.749401808E-1,-2.330830812E0,1.176983714E0
1.206567187E1,2.115424633E0,-3.192532063E-1,1.231350660E0
1.208233853E1,2.176511288E0,4.577668011E-1,7.964149714E-1
1.209900520E1,1.898567677E0,1.418046236E0,3.266599476E-1
1.211567187E1,1.982256174E0,3.297066212E0,1.672242284E-1
1.213233853E1,1.335350394E0,5.126606464E0,-4.033234715E-1
1.214900520E1,6.078104377E-1,4.764974117E0,-1.432019711E0
1.216567186E1,-3.304778337E-1,1.930561781E0,-2.788139582E0
1.218233853E1,-1.269987822E0,3.001636863E-1,-3.392284870E0
1.219900520E1,-3.251633167E0,-2.139019489E0,-4.274373531E0
1.221567186E1,-3.251633167E0,-2.139019489E0,-4.274373531E0
1.223233853E1,-3.488037825E0,6.740128994E-1,-4.249938965E0
1.224900519E1,-2.596786261E0,9.794453382E-1,-4.046521187E0
1.226567186E1,-2.596786261E0,9.794453382E-1,-4.046521187E0
1.228233853E1,7.916807532E-1,-1.074892879E0,-3.111897945E0
1.229900519E1,7.916807532E-1,-1.074892879E0,-3.111897945E0
1.231567186E1,2.066555500E0,1.022816658E0,-6.751583219E-1
1.233233852E1,1.371391416E0,2.360228747E-1,1.673005939E0
1.234900519E1,1.074511170E0,-1.305189013E0,2.888626814E0
1.236567186E1,1.074511170E0,-1.305189013E0,2.888626814E0
1.238233852E1,1.193629742E0,-5.385536551E-1,4.063930511E0
1.239900519E1,6.059778333E-1,-3.235292733E-1,4.225198746E0
1.241567185E1,6.059778333E-1,-3.235292733E-1,4.225198746E0
1.243233852E1,1.252272725E-1,-1.804265499E0,3.040732145E0
1.244900519E1,1.229670763E0,-7.425825000E-1,1.927736521E0
1.246567185E1,2.156963587E0,7.658717036E-2,1.521511436E0
1.248233852E1,2.156963587E0,7.658717036E-2,1.521511436E0
1.249900518E1,3.721999168E0,3.197113574E-1,1.753640056E0
1.251567185E1,3.456272840E0,-1.101160169E0,1.300989270E0
1.253233852E1,3.456272840E0,-1.101160169E0,1.300989270E0
1.254900518E1,-1.387273908E0,-1.128648996E0,-1.268308043E0
1.256567185E1,-1.570533395E0,-1.174463868E0,-1.637881160E0
1.258233851E1,-1.193629742E0,-1.696753263E0,-1.576794744E0
1.259900518E1,-9.101884961E-1,-1.892840862E0,-1.540142775E0
1.261567185E1,-1.631619811E0,-2.105421782E0,-1.648876786E0
1.263233851E1,-2.119089842E0,-2.174449444E0,-1.535866737E0
1.264900518E1,-2.119089842E0,-2.174449444E0,-1.535866737E0
1.266567184E1,-1.094669700E0,3.997346461E-1,-5.456549525E-1
1.268233851E1,-1.094669700E0,3.997346461E-1,-5.456549525E-1
1.269900518E1,-4.050033391E-1,1.908188909E-1,4.036289155E-1
1.271567184E1,-2.571740746E-1,-4.542543292E-1,7.090612650E-1
1.273233851E1,-2.571740746E-1,-4.542543292E-1,7.090612650E-1
1.274900517E1,-3.860665262E-1,-1.693699002E0,6.913462281E-1
1.276567184E1,-1.221729536E-2,-8.812488317E-1,8.067996502E-1
1.278233851E1,2.083659649E0,6.171185017E0,8.636100888E-1
1.279900517E1,1.186910272E0,5.209073067E0,5.068650246E-1
1.281567184E1,1.039080977E0,4.895088673E0,-2.402225733E-1
1.283233850E1,9.541707635E-1,4.216417789E0,-8.150463104E-1
1.284900517E1,9.541707635E-1,4.216417789E0,-8.150463104E-1
1.286567184E1,-1.427590966E0,1.138499230E-1,-3.796677351E0
1.288233850E1,-1.427590966E0,1.138499230E-1,-3.796677351E0
1.289900517E1,-2.435517788E0,-9.154572487E-1,-3.483914614E0
1.291567183E1,-2.053727388E0,3.184896111E-1,-2.843728304E0
1.293233850E1,-3.695732057E-1,-1.433241516E-1,-2.168111801E0
1.294900517E1,-3.695732057E-1,-1.433241516E-1,-2.168111801E0
1.296567183E1,6.908880472E-1,-3.265835941E-1,-6.739365458E-1
1.298233850E1,7.134900689E-1,-1.848629564E-1,5.044215918E-1
1.299900516E1,7.134900689E-1,-1.848629564E-1,5.044215918E-1
1.301567183E1,7.922916412E-1,-1.292971611E0,2.903898478E0
1.303233850E1,8.093958497E-1,6.253728271E-2,4.183660030E0
1.304900516E1,3.408625424E-1,5.982657075E-1,4.432281971E0
1.306567183E1,3.408625424E-1,5.982657075E-1,4.432281971E0
1.308233849E1,3.347539008E-1,-1.971642375E0,3.247204542E0
1.309900516E1,1.604130864E0,-2.088317633E0,2.488510370E0
1.311567183E1,1.604130864E0,-2.088317633E0,2.488510370E0
1.313233849E1,3.649306297E0,-1.137735695E-2,1.578321815E0
1.314900516E1,3.408014536E0,-2.734383345E-1,8.092431426E-1
1.316567182E1,1.702480197E0,5.475639105E-1,9.010255337E-3
1.318233849E1,-8.625410795E-1,-2.850447893E-1,-6.598866582E-1
1.319900516E1,-1.612072110E0,-1.958203435E0,-1.156519771E0
1.321567182E1,-1.684154153E0,-2.292346478E0,-1.001360059E0
1.323233849E1,-1.648113132E0,-1.892840862E0,-8.339831233E-1
1.324900515E1,-1.665217400E0,-8.849139810E-1,-9.140064120E-1
1.326567182E1,-1.723860383E0,-2.542724647E-2,-8.761327863E-1
1.328233849E1,-1.557094336E0,1.114064679E-1,-7.863357067E-1
1.329900515E1,-8.784235716E-1,-3.412443399E-1,-5.480984449E-1
1.331567182E1,-4.221075773E-1,-6.619483232E-1,-1.577558219E-1
1.333233848E1,-4.221075773E-1,-6.619483232E-1,-1.577558219E-1
1.334900515E1,-5.222893953E-1,-3.259727061E-1,1.953240186E-1
1.336567182E1,-5.528326035E-1,-5.238928795E-1,5.007563829E-1
1.338233848E1,-3.347539008E-1,-1.127427340E0,1.045647740E0
1.339900515E1,-3.347539008E-1,-1.127427340E0,1.045647740E0
1.341567181E1,1.915671945E0,3.637317896E0,8.031344414E-1
1.343233848E1,1.693317175E0,5.134547710E0,-2.481638193E-1
1.344900515E1,1.693317175E0,5.134547710E0,-2.481638193E-1
1.346567181E1,7.018836141E-1,4.761309147E0,-2.898095131E0
1.348233848E1,3.591884971E-1,2.557919979E0,-3.596924543E0
1.349900514E1,-1.062904716E0,8.391755074E-2,-4.270708561E0
1.351567181E1,-2.280969143E0,-2.013563067E-1,-3.812559843E0
1.353233848E1,-2.280969143E0,-2.013563067E-1,-3.812559843E0
1.354900514E1,-1.053130865E0,2.995528281E-1,-3.361741543E0
1.356567181E1,1.502727419E-1,-9.569960237E-1,-2.582278252E0
1.358233847E1,1.502727419E-1,-9.569960237E-1,-2.582278252E0
1.359900514E1,5.619956255E-1,7.108938694E-2,-3.275762498E-1
1.361567181E1,7.684679031E-1,-1.628718227E-1,9.027054310E-1
1.363233847E1,9.786053896E-1,-2.612210512E-1,2.443306446E0
1.364900514E1,9.786053896E-1,-2.612210512E-1,2.443306446E0
1.366567180E1,6.316341758E-1,-3.107011020E-1,4.524522781E0
1.368233847E1,8.246674389E-2,-1.693088055E0,4.971065044E0
1.369900514E1,8.246674389E-2,-1.693088055E0,4.971065044E0
1.371567180E1,1.634674191E0,-1.082223296E0,2.782947302E0
1.373233847E1,2.049451351E0,7.292198390E-2,2.147037029E0
1.374900513E1,2.888779640E0,2.514548540E0,9.124792814E-1
1.376567180E1,4.945561409E0,3.395415545E0,-2.390008420E-1
1.378233847E1,3.545459270E0,1.987983108E0,5.604684353E-2
1.379900513E1,7.519745231E-1,5.762745738E-1,8.544471264E-1
1.381567180E1,-2.306625366E0,-4.614854336E0,5.661189556E-1
1.383233846E1,-2.398865938E0,-3.727878571E0,1.189659163E-1
1.384900513E1,-2.398865938E0,-3.727878571E0,1.189659163E-1
1.386567180E1,-1.168584347E0,-4.273762703E-1,-6.708822250E-1
1.388233846E1,-9.957095981E-2,1.071304083E-1,-1.274416685E0
1.389900513E1,-2.107483447E-1,-7.352521420E-1,-1.558468819E0
1.391567179E1,-8.692606091E-1,-1.529376388E0,-1.664148331E0
1.393233846E1,-9.309579134E-1,-1.928271055E0,-1.596342444E0
1.394900513E1,-4.159989059E-1,-1.887343049E0,-9.250019789E-1
1.396567179E1,-4.159989059E-1,-1.887343049E0,-9.250019789E-1
1.398233846E1,-8.289434910E-1,-4.353175163E-1,3.327685893E-1
1.399900512E1,-1.047022223E0,-3.161988854E-1,5.227475166E-1
1.401567179E1,-1.204014540E0,-3.296379149E-1,9.411898851E-1
1.403233846E1,-5.332849622E-1,1.165148258E0,1.367573500E0
1.404900512E1,-5.332849622E-1,1.165148258E0,1.367573500E0
1.406567179E1,5.742128938E-2,2.964755774E0,7.878628373E-1
1.408233845E1,-1.209512278E-1,2.364886522E0,1.171333194E-1
1.409900512E1,1.569922417E-1,3.621435404E0,-7.802270651E-1
1.411567179E1,-7.024945319E-2,2.608621597E0,-2.202320337E0
1.413233845E1,-2.266308367E-1,2.018526316E0,-3.135721684E0
1.414900512E1,-7.611374855E-1,1.433928728E0,-4.144870281E0
1.416567178E1,-7.611374855E-1,1.433928728E0,-4.144870281E0
1.418233845E1,-1.605963469E0,3.221548200E-1,-3.334252596E0
1.419900512E1,-1.227227330E0,-2.300669402E-1,-2.460716009E0
1.421567178E1,-3.616319597E-1,-4.970148504E-1,-1.196836829E0
1.423233845E1,-3.616319597E-1,-4.970148504E-1,-1.196836829E0
1.424900511E1,5.314523578E-1,-5.440514684E-1,8.281798959E-1
1.426567178E1,9.975422025E-1,-8.177188635E-1,1.690110087E0
1.428233845E1,9.975422025E-1,-8.177188635E-1,1.690110087E0
1.429900511E1,9.975422025E-1,-8.177188635E-1,1.690110087E0
1.431567178E1,5.968148708E-1,1.932623386E-1,3.903273106E0
1.433233844E1,4.557051361E-1,-1.577634692E0,4.085310936E0
1.434900511E1,7.819069028E-1,-3.596542835E0,3.536143541E0
1.436567178E1,7.819069028E-1,-3.596542835E0,3.536143541E0
1.438233844E1,2.688416004E0,-4.359283745E-1,2.377943754E0
1.439900511E1,2.720791817E0,4.565450549E-1,1.814115644E0
1.441567177E1,2.023795128E0,-1.286862969E0,1.068249822E0
1.443233844E1,1.295033395E-1,-1.605123520E0,3.681987524E-1
1.444900511E1,-9.248492718E-1,-2.006461620E0,-2.866483033E-1
1.446567177E1,-2.037844896E0,-1.782885194E0,-1.217606187E0
1.448233844E1,-2.037844896E0,-1.782885194E0,-1.217606187E0
1.449900510E1,-9.560033679E-1,-9.576069117E-1,-6.482802629E-1
1.451567177E1,-7.880155444E-1,-1.137201190E0,-5.761982203E-1
1.453233844E1,-7.880155444E-1,-1.137201190E0,-5.761982203E-1
1.454900510E1,-5.363392830E-1,3.588066995E-1,-9.048434496E-1
1.456567177E1,-5.363392830E-1,3.588066995E-1,-9.048434496E-1
1.458233843E1,-8.686497211E-1,-3.703367710E-2,-6.855430007E-1
1.459900510E1,-1.038470149E0,-7.246383280E-2,-1.711948514E-1
1.461567177E1,-1.038470149E0,-7.246383280E-2,-1.711948514E-1
1.463233843E1,-1.038470149E0,-7.246383280E-2,-1.711948514E-1
1.464900510E1,1.435532272E-1,4.077751637E0,-2.774853408E-1
1.466567176E1,3.909534514E-1,4.787576199E0,-5.041161776E-1
1.468233843E1,8.008437157E-1,4.623864651E0,-4.851793647E-1
1.469900510E1,-2.846629918E-1,2.763170481E0,-1.246927738E0
1.471567176E1,-1.204014540E0,1.703320026E0,-1.708130598E0
1.473233843E1,-2.851516724E0,-1.437135696E0,-2.469878912E0
1.474900509E1,-2.851516724E0,-1.437135696E0,-2.469878912E0
1.476567176E1,-3.580278397E0,-8.726966977E-1,-3.098458767E0
1.478233843E1,-3.160003424E0,2.044182539E0,-2.929860115E0
1.479900509E1,-5.558869243E-1,9.598976374E-1,-2.644586325E0
1.481567176E1,1.306028843E0,-9.771545529E-1,-1.315955400E0
1.483233842E1,1.786168575E0,-1.410257697E0,-6.195695996E-1
1.484900509E1,3.062875986E0,-1.211115837E0,9.363030195E-1
1.486567176E1,3.530798435E0,-6.595048904E-1,2.770118952E0
1.488233842E1,1.388495684E0,-1.048396677E-1,3.906327486E0
1.489900509E1,5.357283950E-1,-8.580359221E-1,4.134790897E0
1.491567175E1,9.529490769E-2,-3.120068312E0,3.818362951E0
1.493233842E1,4.789179862E-1,-3.660683632E0,2.905120134E0
1.494900509E1,4.789179862E-1,-3.660683632E0,2.905120134E0
1.496567175E1,1.520442486E0,-9.435570240E-1,2.031583548E0
1.498233842E1,2.701244116E0,1.859701514E0,1.730427146E0
1.499900508E1,2.897331715E0,-7.664062381E-1,1.337641120E0
1.501567175E1,2.897331715E0,-7.664062381E-1,1.337641120E0
1.503233842E1,-1.056185246E0,-1.591073632E0,2.985601723E-1
1.504900508E1,-2.558301687E0,-2.700404167E0,-4.613556266E-1
1.506567175E1,-2.558301687E0,-2.700404167E0,-4.613556266E-1
1.508233841E1,-3.775144219E-1,-2.609385252E0,1.317940801E-1
1.509900508E1,-1.936441362E-1,-2.851287603E0,4.138609022E-2
1.511567175E1,-1.936441362E-1,-2.851287603E0,4.138609022E-2
1.513233841E1,-5.552760959E-1,-6.485093236E-1,1.012508348E-1
1.514900508E1,-5.552760959E-1,-6.485093236E-1,1.012508348E-1
1.516567174E1,-1.098334908E0,-6.204095483E-1,1.464548260E-1
1.518233841E1,-1.426369309E0,-1.471344233E0,5.960513353E-1
1.519900508E1,-1.202792764E0,-2.365650177E0,8.849903345E-1
1.521567174E1,-1.202792764E0,-2.365650177E0,8.849903345E-1
1.523233841E1,1.026252806E-1,-2.058996201E0,1.123227596E0
1.524900507E1,8.069523573E-1,-5.819250345E-1,1.206916094E0
1.526567174E1,8.069523573E-1,-5.819250345E-1,1.206916094E0
1.528233841E1,8.069523573E-1,-5.819250345E-1,1.206916094E0
1.529900507E1,-5.998691916E-1,4.769861221E0,3.407098353E-1
1.531567174E1,-5.998691916E-1,4.769861221E0,3.407098353E-1
1.533233840E1,-3.419010162E0,-3.724824429E0,-1.842520833E0
1.534900507E1,-3.662134409E0,-4.250779152E0,-2.218813658E0
1.536567174E1,-4.274831772E0,-4.399219036E0,-2.809519768E0
1.538233840E1,-4.712821960E0,-3.988718033E0,-2.923140764E0
1.539900507E1,-4.712821960E0,-3.988718033E0,-2.923140764E0
1.541567173E1,-3.528354883E0,-3.259727061E-1,-3.153436661E0
1.543233840E1,-7.483093739E-1,2.374049664E0,-2.873660564E0
1.544900507E1,-7.483093739E-1,2.374049664E0,-2.873660564E0
1.546567173E1,3.732383728E0,1.283045053E0,-3.073413372E0
1.548233840E1,4.108065605E0,-1.958585232E-1,-3.323868036E0
1.549900506E1,4.169763088E0,-2.650313139E0,-3.513846874E0
1.551567173E1,1.536935806E0,-6.093147278E0,-2.006843567E0
1.553233840E1,1.536935806E0,-6.093147278E0,-2.006843567E0
1.554900506E1,-1.062904716E0,-6.726003170E0,8.965967894E-1
1.556567173E1,-3.695732057E-1,-4.508563995E0,7.652608752E-1
1.558233839E1,8.655954003E-1,-2.350378513E0,-2.353356630E-1
1.559900506E1,8.655954003E-1,-2.350378513E0,-2.353356630E-1
1.561567173E1,1.708588839E0,-2.132299900E0,-3.349066079E-1
1.563233839E1,5.644390583E-1,-1.487837553E0,1.030376196E0
1.564900506E1,5.644390583E-1,-1.487837553E0,1.030376196E0
1.566567172E1,4.269944727E-1,-6.821069121E-1,1.894749880E0
1.568233839E1,1.023198485E0,1.077412739E-1,1.323591232E0
1.569900506E1,1.196073294E0,3.017901182E0,2.948949635E-1
1.571567172E1,1.440419197E0,6.129264235E-1,4.871646687E-2
1.573233839E1,1.440419197E0,6.129264235E-1,4.871646687E-2
1.574900505E1,2.940703154E0,-2.299066067E0,6.162098646E-1
1.576567172E1,2.167959213E0,1.133383274E0,-2.664897740E-1
1.578233839E1,-7.623592615E-1,-4.927388132E-1,-1.166904449E0
1.579900505E1,-7.623592615E-1,-4.927388132E-1,-1.166904449E0
1.581567172E1,-2.403752804E0,-4.651506424E0,-7.344121933E-1
1.583233838E1,-3.580889225E0,-6.335049629E0,2.942841053E-1
1.584900505E1,-3.788583279E0,-5.426082611E0,8.477275968E-1
1.586567172E1,-3.788583279E0,-5.426082611E0,8.477275968E-1
1.586567172E1,-2.858236313E0,-3.252015114E0,8.043562174E-1
1.589900505E1,-2.316399336E0,-2.826853037E0,5.392408967E-1
1.591567171E1,-2.316399336E0,-2.826853037E0,5.392408967E-1
1.593233838E1,-1.290146470E0,-1.550756574E0,-3.130681813E-2
1.594900505E1,-4.172206521E-1,-2.011348724E0,-3.746128380E-1
1.596567171E1,-4.172206521E-1,-2.011348724E0,-3.746128380E-1
1.598233838E1,1.200349331E0,-2.519588232E0,-1.311679363E0
1.599900504E1,1.594967961E0,-2.400469542E0,-1.513264775E0
1.601567171E1,2.031125307E0,-1.878180146E0,-1.634215951E0
1.603233838E1,2.239430189E0,-1.294193387E0,-1.486386776E0
1.604900504E1,2.127031088E0,-1.162857413E0,-8.639155030E-1
1.606567171E1,1.864970207E0,-1.356501579E0,-4.216494262E-1
1.608233837E1,6.548470259E-1,-2.223318815E0,7.988584042E-1
1.609900504E1,7.996219993E-1,-1.776776552E0,8.904881477E-1
1.611567171E1,7.996219993E-1,-1.776776552E0,8.904881477E-1
1.613233837E1,1.674380302E0,-1.017471671E0,8.623883724E-1
1.614900504E1,1.674380302E0,-1.017471671E0,8.623883724E-1
1.616567170E1,9.425643682E-1,-1.760894060E0,1.205083489E0
1.618233837E1,9.425643682E-1,-1.760894060E0,1.205083489E0
1.619900504E1,9.896009564E-1,-8.604794145E-1,1.283274174E0
1.621567170E1,8.955277801E-1,-6.918807030E-1,1.103069067E0
1.623233837E1,4.813614488E-1,-4.200458825E-1,9.411898851E-1
1.624900503E1,4.813614488E-1,-4.200458825E-1,9.411898851E-1
1.626567170E1,-6.053670049E-1,-8.223766834E-2,3.602575064E-1
1.628233837E1,-1.054352641E0,-1.989128441E-1,-1.217148080E-1
1.629900503E1,-1.409875870E0,-6.026944518E-1,-3.813323379E-1
1.631567170E1,-1.409875870E0,-6.026944518E-1,-3.813323379E-1
1.633233836E1,-2.250425816E0,-1.964312077E0,-1.080161691E0
1.634900503E1,-2.829525709E0,-2.748051643E0,-1.637881160E0
1.636567170E1,-2.502712965E0,-3.603873014E0,-2.935358047E0
1.638233836E1,-2.502712965E0,-3.603873014E0,-2.935358047E0
1.639900503E1,-2.913825035E0,-5.063839912E0,-3.820501089E0
1.641567169E1,-2.913825035E0,-5.063839912E0,-3.820501089E0
1.643233836E1,-3.722609997E0,-9.948696494E-1,-3.449706078E0
1.644900503E1,-3.722609997E0,-9.948696494E-1,-3.449706078E0
1.646567169E1,-6.798924804E-1,2.887176037E0,-3.057530880E0
1.648233836E1,2.319453478E0,2.087553978E0,-3.497964382E0
1.649900502E1,3.221090078E0,6.245328784E-1,-3.752695084E0
1.651567169E1,2.329227448E0,-1.439350098E-1,-3.837605238E0
1.653233836E1,2.329227448E0,-1.439350098E-1,-3.837605238E0
1.654900502E1,3.591884971E-1,-2.092593670E0,-3.641517639E0
1.656567169E1,3.591884971E-1,-2.092593670E0,-3.641517639E0
1.658233835E1,6.719512492E-2,-2.526918411E0,-1.919489861E0
1.659900502E1,-3.683514595E-1,-2.553185701E0,-1.266475439E0
1.661567169E1,-4.721984863E-1,-2.172616959E0,-6.818777919E-1
1.663233835E1,-4.721984863E-1,-2.172616959E0,-6.818777919E-1
1.664900502E1,-7.147117704E-2,-1.581910729E0,-1.797469556E-1
1.666567168E1,1.539379209E-1,-1.006476045E0,3.798051775E-1
1.668233835E1,2.999345958E-1,-3.925569654E-1,1.461646676E0
1.669900502E1,2.999345958E-1,-3.925569654E-1,1.461646676E0
1.671567168E1,5.589412451E-1,-3.785070777E-1,2.359617949E0
1.673233835E1,1.131932378E0,-1.375438452E0,2.663828611E0
1.674900501E1,1.652389288E0,-2.488434076E0,2.632063627E0
1.676567168E1,1.652389288E0,-2.488434076E0,2.632063627E0
1.678233835E1,1.360395908E0,3.258199990E-1,2.729801893E0
1.679900501E1,8.393282294E-1,2.101603985E0,3.214828730E0
1.681567168E1,2.471558809E0,-1.460959435E0,3.930151224E0
1.683233834E1,2.471558809E0,-1.460959435E0,3.930151224E0
1.684900501E1,4.896692276E0,-1.767613649E0,3.982074738E0
1.686567168E1,3.115410328E0,4.604393244E-2,3.727955103E0
1.688233834E1,3.115410328E0,4.604393244E-2,3.727955103E0
1.689900501E1,-1.129488945E0,-7.187587619E-1,-3.111897945E0
1.691567167E1,-1.889404774E0,-8.769727349E-1,-3.873646259E0
1.693233834E1,-1.820376992E0,-7.792344093E-1,-3.394117355E0
1.694900501E1,-1.820376992E0,-7.792344093E-1,-3.394117355E0
1.696567167E1,-4.923570156E-1,-1.433470607E0,-2.147342443E0
1.698233834E1,-6.615665555E-1,-1.416366339E0,-2.020893335E0
1.699900500E1,-9.107993841E-1,-1.049236655E0,-1.342222691E0
1.701567167E1,-7.916807532E-1,-6.271290779E-1,-2.493855506E-1
1.703233834E1,-2.736674249E-1,-7.285326123E-1,4.543306828E-1
1.704900500E1,-4.948004708E-2,-9.356157780E-1,5.795579553E-1
1.706567167E1,-7.330377400E-2,-1.269147992E0,5.337430835E-1
1.708233833E1,-2.443459183E-1,-1.496389627E0,6.039925218E-1
1.709900500E1,-1.655443609E-1,-1.442633510E0,7.096721530E-1
1.711567167E1,1.187521100E0,1.972711444E0,1.121394992E0
1.713233833E1,1.575420260E0,3.881663799E0,9.986112118E-1
1.714900500E1,1.253494501E0,4.301328182E0,3.187187016E-1
1.716567166E1,1.181412458E0,4.545673847E0,-1.895207912E-1
1.718233833E1,5.290089250E-1,2.930547476E0,-1.650098443E0
1.719900500E1,-7.244856358E-1,1.053970814E0,-3.268279314E0
1.721567166E1,-1.624900341E0,1.122464053E-2,-4.391048908E0
1.723233833E1,-2.028071165E0,-1.732565165E-1,-4.475347996E0
1.724900499E1,-2.445291758E0,9.392046370E-3,-4.069122791E0
1.726567166E1,-2.384816170E0,-3.155880272E-1,-3.600589752E0
1.728233833E1,-1.645058870E0,-8.482621312E-1,-3.295157433E0
1.729900499E1,-1.409265041E0,-1.051069260E0,-3.004385710E0
1.731567166E1,-1.026252866E0,-5.721512437E-1,-1.898720503E0
1.733233832E1,-1.875354946E-1,-1.934150606E-1,-9.103412628E-1
1.734900499E1,1.256548882E0,-6.851612329E-1,-4.428769462E-3
1.736567166E1,1.793498993E0,-1.108490467E0,7.310523987E-1
1.738233832E1,2.123976946E0,-9.508873820E-1,2.672380686E0
1.739900499E1,1.900400281E0,8.291725516E-1,4.421897411E0
1.741567165E1,1.128878117E0,7.631992102E-1,5.707767963E0
1.743233832E1,7.312051654E-1,1.541669965E-1,5.911185741E0
1.744900499E1,7.312051654E-1,1.541669965E-1,5.911185741E0
1.746567165E1,3.012785196E0,8.627701402E-1,3.815308809E0
1.748233832E1,3.012785196E0,8.627701402E-1,3.815308809E0
1.749900498E1,4.492299557E0,-5.061778426E-1,1.952782035E0
1.751567165E1,4.162432671E0,-4.829649627E-1,1.558774233E0
1.753233832E1,4.162432671E0,-4.829649627E-1,1.558774233E0
1.754900498E1,4.162432671E0,-4.829649627E-1,1.558774233E0
1.756567165E1,-1.971260667E0,-2.047389746E0,-1.954920053E0
1.758233831E1,-2.207054377E0,-2.445062637E0,-1.990961075E0
1.759900498E1,-2.207054377E0,-2.445062637E0,-1.990961075E0
1.761567165E1,-1.337793827E0,-1.534263253E0,-1.151021957E0
1.763233831E1,-1.638339281E0,-1.385823131E0,-1.033735871E0
1.764900498E1,-1.960265040E0,-8.091667295E-1,-7.692314982E-1
1.766567164E1,-1.960265040E0,-8.091667295E-1,-7.692314982E-1
1.768233831E1,-7.922916412E-1,-7.101302966E-3,-3.660607338E-1
1.769900498E1,-1.936441362E-1,3.871355578E-2,2.283107042E-1
1.771567164E1,-2.748891525E-2,-2.420551702E-2,5.215258002E-1
1.773233831E1,-2.748891525E-2,-2.420551702E-2,5.215258002E-1
1.774900497E1,-1.954767257E-1,-5.190060139E-1,5.166388750E-1
1.776567164E1,7.293725610E-1,2.334954262E0,4.140135944E-1
1.778233831E1,7.293725610E-1,2.334954262E0,4.140135944E-1
1.779900497E1,8.845322132E-1,6.254873753E0,9.330959618E-2
1.781567164E1,9.260709882E-1,5.830933571E0,-1.467602700E-1
1.783233830E1,6.432406306E-1,3.113806963E0,-1.027016401E0
1.784900497E1,-9.456186891E-1,-1.732565165E-1,-2.262185097E0
1.786567164E1,-2.641379356E0,-1.916053772E0,-3.305541992E0
1.788233830E1,-3.155116558E0,-1.839695692E0,-3.659843683E0
1.789900497E1,-3.312719584E0,7.949641347E-1,-4.152200699E0
1.791567163E1,-1.123991251E0,6.190351248E-1,-4.068511963E0
1.793233830E1,1.001818180E0,-1.283808708E0,-2.496146202E0
1.794900497E1,1.506392598E0,-1.104214430E0,-1.619555235E0
1.796567163E1,1.506392598E0,-1.104214430E0,-1.619555235E0
1.798233830E1,2.172235250E0,6.361393332E-1,2.010814190E0
1.799900496E1,2.172235250E0,6.361393332E-1,2.010814190E0
1.801567163E1,9.254601598E-1,-1.801822066E0,4.333932877E0
1.803233830E1,9.254601598E-1,-1.801822066E0,4.333932877E0
1.804900496E1,-3.298669681E-2,-3.310047150E0,3.697411776E0
1.806567163E1,-3.298669681E-2,-3.310047150E0,3.697411776E0
1.808233829E1,1.944993496E0,2.042350054E0,2.660163403E0
1.809900496E1,2.817919254E0,-6.452259421E-2,3.530645609E0
1.811567163E1,2.817919254E0,-6.452259421E-2,3.530645609E0
1.813233829E1,1.015868187E0,-1.139644623E0,-2.426660359E-1
1.814900496E1,-2.535088956E-1,6.375901401E-2,-9.695951343E-1
1.816567162E1,-1.633452415E0,-5.047270283E-2,-2.003789186E0
1.818233829E1,-1.633452415E0,-5.047270283E-2,-2.003789186E0
1.819900496E1,-6.102539301E-1,-1.910555959E0,-1.310457706E0
1.821567162E1,-9.315688014E-1,-1.960646868E0,-6.067414284E-1
1.823233829E1,-1.194240689E0,-6.650026441E-1,3.107774556E-1
1.824900495E1,-1.142928004E0,3.869064748E-1,9.819651395E-2
1.826567162E1,-1.197294950E0,3.533089161E-1,-2.200640440E-1
1.828233829E1,-9.340122342E-1,1.986150503E0,-7.722858191E-1
1.829900495E1,-4.563159943E-1,4.578049660E0,-1.242651701E0
1.831567162E1,-5.241219997E-1,4.174879074E0,-1.735619545E0
1.833233828E1,-5.601630211E-1,3.339826822E0,-1.958585143E0
1.834900495E1,-6.145299673E-1,1.755243540E0,-2.207818031E0
1.836567162E1,-5.626064539E-1,1.364519149E-1,-2.568228245E0
1.838233828E1,-5.626064539E-1,1.364519149E-1,-2.568228245E0
1.839900495E1,-1.378721833E0,8.829286695E-1,-3.147328138E0
1.841567161E1,-1.314581037E0,2.958876193E-1,-3.331809282E0
1.843233828E1,-1.857028902E-1,-1.158581376E0,-2.669020891E0
1.844900495E1,-1.857028902E-1,-1.158581376E0,-2.669020891E0
1.846567161E1,1.331685185E-1,-8.733075857E-1,8.061888218E-1
1.848233828E1,2.443459183E-1,-1.508606911E0,2.459799767E0
1.849900494E1,2.443459183E-1,-1.508606911E0,2.459799767E0
1.851567161E1,1.332906961E0,-2.158566952E0,4.015672207E0
1.853233828E1,1.284037709E0,-2.164064884E0,4.158003807E0
1.854900494E1,1.288313866E0,-1.869628072E0,3.996735573E0
1.856567161E1,1.288313866E0,-1.869628072E0,3.996735573E0
1.858233827E1,3.027445793E0,3.319286406E-1,3.503767729E0
1.859900494E1,3.444666386E0,-9.221767187E-1,2.990030289E0
1.861567161E1,2.896109819E0,-1.503720045E0,8.074105382E-1
1.863233827E1,5.723803043E-1,-1.469893306E-1,-5.456549525E-1
1.864900494E1,5.723803043E-1,-1.469893306E-1,-5.456549525E-1
1.866567160E1,-1.713475704E0,-1.446909547E0,-1.535866737E0
1.868233827E1,-1.713475704E0,-1.446909547E0,-1.535866737E0
1.869900494E1,-6.927206516E-1,-5.464949012E-1,-1.230434418E0
1.871567160E1,-4.477638900E-1,8.391755074E-2,-3.520108163E-1
1.873233827E1,-5.693259835E-1,-8.468113095E-2,-2.328922004E-1
1.874900493E1,-6.951641440E-1,-4.273762703E-1,-3.886627257E-1
1.876567160E1,-6.951641440E-1,-4.273762703E-1,-3.886627257E-1
1.878233827E1,-7.580831647E-1,2.469344616E0,-1.046105921E-1
1.879900493E1,-9.059124589E-1,3.515145063E0,-8.811724186E-2
1.881567160E1,-1.052520037E0,4.183431149E0,-4.986183643E-1
1.883233826E1,-1.052520037E0,4.183431149E0,-4.986183643E-1
1.884900493E1,-6.469057798E-1,1.871918797E0,-5.835285783E-1
1.886567160E1,-6.878337264E-1,9.185878932E-2,-1.433852315E0
1.888233826E1,-1.303585410E0,-9.117920399E-1,-2.742324829E0
1.889900493E1,-1.303585410E0,-9.117920399E-1,-2.742324829E0
1.891567159E1,-2.650542259E0,-7.401390672E-1,-3.802175045E0
1.893233826E1,-2.703076601E0,3.026071489E-1,-3.595702887E0
1.894900493E1,-1.276707411E0,-6.020836234E-1,-2.495535374E0
1.896567159E1,9.712749720E-1,-2.107254505E0,-8.914044499E-1
1.898233826E1,1.726914763E0,-2.394971609E0,-1.724165827E-1
1.899900492E1,2.762330532E0,-2.190943003E0,1.270446062E0
1.901567159E1,2.987739563E0,-2.689408541E0,2.548985958E0
1.903233826E1,2.342055559E0,-2.929478407E0,3.715737820E0
1.904900492E1,2.212552309E0,-2.950858593E0,3.872119188E0
1.906567159E1,2.386648655E0,-1.008308649E0,3.246593475E0
1.908233825E1,2.386648655E0,-1.008308649E0,3.246593475E0
1.909900492E1,7.947350740E-1,-2.275853157E0,1.803120136E0
1.911567159E1,0.000000000E0,-2.509203434E0,1.142164469E0
1.913233825E1,-1.055574298E0,-2.266690016E0,-3.436114267E-2
1.914900492E1,-7.654135823E-1,1.065195426E-1,2.185368687E-1
1.916567158E1,9.651663154E-2,-5.733729601E-1,2.729038298E-1
1.918233825E1,4.587594569E-1,-1.347949505E0,3.535379767E-1
1.919900492E1,6.157516837E-1,-1.784106970E0,6.131555438E-1
1.921567158E1,1.954767294E-2,-9.331722856E-1,3.657552898E-1
1.923233825E1,1.954767294E-2,-9.331722856E-1,3.657552898E-1
1.924900491E1,-5.277871490E-1,1.135215878E0,6.704241037E-2
1.926567158E1,-3.866774142E-1,3.206047535E0,-4.302015305E-1
1.928233825E1,-4.569268525E-1,3.602498770E0,-5.028944016E-1
1.929900491E1,-4.569268525E-1,3.602498770E0,-5.028944016E-1
1.931567158E1,2.107483447E-1,2.138866663E0,-8.229875565E-1
1.933233824E1,-4.117228687E-1,-5.318341255E-1,-1.683696032E0
1.934900491E1,-1.866191864E0,-3.554393053E0,-2.439946651E0
1.936567158E1,-1.866191864E0,-3.554393053E0,-2.439946651E0
1.938233824E1,-3.949851751E0,-3.347309828E0,-3.334252596E0
1.939900491E1,-3.809352875E0,4.333322048E-1,-3.428936720E0
1.941567157E1,-3.809352875E0,4.333322048E-1,-3.428936720E0
1.943233824E1,-3.809352875E0,4.333322048E-1,-3.428936720E0
1.944900491E1,1.626121998E0,1.274492979E0,-1.102152824E0
1.946567157E1,2.897331715E0,-5.159516931E-1,-6.311760545E-1
1.948233824E1,3.126405954E0,-4.096840858E0,5.642863512E-1
1.949900490E1,1.293200731E0,-5.887285709E0,1.392619014E0
1.951567157E1,-1.395825982E0,-5.808484077E0,2.883739948E0
1.953233824E1,-6.444623470E-1,-5.627667904E0,3.964359760E0
1.954900490E1,-6.444623470E-1,-5.627667904E0,3.964359760E0
1.956567157E1,3.811796188E0,-1.228830814E0,2.236834049E0
1.958233823E1,3.026834965E0,2.457738161E0,6.913462281E-1
1.959900490E1,3.026834965E0,2.457738161E0,6.913462281E-1
1.959900490E1,-2.755000293E-1,2.195066214E0,-4.234820008E-1
1.963233823E1,-1.247996688E0,-2.764926851E-1,-7.014254928E-1
1.964900490E1,-9.529490471E-1,-1.390709996E0,2.125045776E0
1.966567156E1,-1.138651967E0,-2.188499451E0,1.209970355E0
1.968233823E1,-1.138651967E0,-2.188499451E0,1.209970355E0
1.969900490E1,-2.527147532E0,-4.320417404E0,-7.722858191E-1
1.971567156E1,-2.569297314E0,-4.413879871E0,-1.486386776E0
1.973233823E1,-3.701840639E-1,4.577668011E-1,-9.402735829E-1
1.974900489E1,-3.701840639E-1,4.577668011E-1,-9.402735829E-1
1.976567156E1,3.867995739E0,-1.023580313E0,-3.245218992E-1
1.978233823E1,4.170373917E0,-4.149986267E0,4.225656986E-1
1.979900489E1,-2.522871494E-1,-9.496656656E-1,2.045633316E0
1.981567156E1,-2.522871494E-1,-9.496656656E-1,2.045633316E0
1.983233822E1,8.979712129E-1,-1.786550403E0,1.427438259E0
1.984900489E1,1.034194112E0,-2.606101930E-1,1.405447125E0
1.986567156E1,1.034194112E0,-2.606101930E-1,1.405447125E0
1.988233822E1,-1.739132047E0,2.091448307E-1,2.991710305E-1
1.989900489E1,-2.002414703E0,2.160934173E-2,-2.396117151E-1
1.991567155E1,-2.850905895E0,-4.347066581E-1,-9.769254923E-1
1.993233822E1,-2.850905895E0,-4.347066581E-1,-9.769254923E-1
1.994900489E1,-4.974882603E0,-6.984398842E0,-2.345262527E0
1.996567155E1,-4.788568974E0,-6.917203903E0,-2.535852432E0
1.998233822E1,-3.497811794E0,-4.444423199E0,-2.424064159E0
1.999900488E1,-3.311497927E0,-3.926409721E0,-2.570060730E0
2.001567155E1,-3.311497927E0,-3.926409721E0,-2.570060730E0
2.003233822E1,-2.008523464E0,1.066798925E0,-3.302487612E0
2.004900488E1,6.450732350E-1,3.204825640E0,-3.786292553E0
2.006567155E1,6.450732350E-1,3.204825640E0,-3.786292553E0
2.008233821E1,3.445277452E0,2.226831198E0,-3.854709387E0
2.009900488E1,4.302931309E0,2.861137986E-1,-3.523620844E0
2.011567155E1,5.315134525E0,-3.211086988E0,-3.191310406E0
2.013233821E1,5.315134525E0,-3.211086988E0,-3.191310406E0
2.014900488E1,5.315134525E0,-3.211086988E0,-3.191310406E0
2.016567154E1,4.697550237E-1,-5.872624874E0,-2.142455578E0
2.018233821E1,4.697550237E-1,-5.872624874E0,-2.142455578E0
2.019900488E1,1.159421325E0,-5.109654903E0,-1.497993112E0
2.021567154E1,1.224173069E0,-4.481685638E0,-1.564577460E0
2.023233821E1,1.318246245E0,-3.740095854E0,-1.562133908E0
2.024900487E1,1.317635298E0,-3.514686823E0,-1.366657257E0
2.026567154E1,1.317635298E0,-3.514686823E0,-1.366657257E0
2.028233821E1,1.682932496E0,-2.687576056E0,-1.196836829E0
2.029900487E1,2.124587774E0,-2.117028236E0,-1.140637279E0
2.031567154E1,2.341444731E0,-2.299066067E0,-7.179188132E-1
2.033233820E1,2.341444731E0,-2.299066067E0,-7.179188132E-1
2.034900487E1,1.853363752E0,-1.991190076E0,1.045036912E0
2.036567154E1,1.279761672E0,-1.950873017E0,2.038303137E0
2.038233820E1,5.546652079E-1,-1.931325316E0,1.997985959E0
2.039900487E1,5.546652079E-1,-1.931325316E0,1.997985959E0
2.041567153E1,2.663370371E-1,-3.299662352E0,1.312595725E0
2.043233820E1,8.509346247E-1,-4.084012985E0,1.127503633E0
2.044900487E1,8.509346247E-1,-4.084012985E0,1.127503633E0
2.046567153E1,9.095776677E-1,-2.017457247E0,2.032652497E-1
2.048233820E1,7.385355234E-1,6.742420048E-2,-4.509709179E-1
2.049900486E1,2.465450287E0,2.061286926E0,-2.585943222E0
2.051567153E1,1.189964533E0,-9.038507938E-1,-2.789972067E0
2.053233820E1,1.189964533E0,-9.038507938E-1,-2.789972067E0
2.054900486E1,-2.172235250E0,-3.354029417E0,-1.618944407E0
2.056567153E1,-2.172235250E0,-3.354029417E0,-1.618944407E0
2.058233819E1,-3.073260784E0,5.154171586E-2,-5.584831238E-1
2.059900486E1,-3.073260784E0,5.154171586E-2,-5.584831238E-1
2.061567153E1,-3.073260784E0,5.154171586E-2,-5.584831238E-1
2.063233819E1,1.753181964E-1,-2.314337492E0,1.850156665E0
2.064900486E1,1.753181964E-1,-2.314337492E0,1.850156665E0
2.066567152E1,9.572250843E-1,-4.815217972E0,1.740811944E0
2.068233819E1,8.600975871E-1,-5.130424023E0,1.405447125E0
2.069900486E1,1.398269534E0,-3.486587048E0,1.173318505E0
2.071567152E1,3.318828344E0,1.614133835E0,1.172096848E0
2.073233819E1,3.091586590E0,1.911014080E0,1.212413907E0
2.074900485E1,2.127031088E0,9.104176164E-1,1.439044714E0
2.076567152E1,2.127031088E0,9.104176164E-1,1.439044714E0
2.076567152E1,2.654207468E0,2.355723619E0,1.704770923E0
2.079900485E1,2.802036762E0,3.655261993E-1,7.310523987E-1
2.081567152E1,1.846033335E0,5.750528574E-1,6.215549260E-2
2.083233818E1,-1.215620935E-1,-1.720348001E-1,-3.978256881E-1
2.084900485E1,-1.215620935E-1,-1.720348001E-1,-3.978256881E-1
2.086567152E1,-1.441030025E0,-1.548313141E0,-5.652026534E-1
2.088233818E1,-1.663995624E0,-2.015013933E0,-2.591593862E-1
2.089900485E1,-1.623067737E0,-2.015013933E0,7.864884287E-2
2.091567151E1,-1.452636480E0,-1.710803151E0,1.574503928E-1
2.093233818E1,-1.347567677E0,-1.421253324E0,6.154462695E-2
2.094900485E1,-8.973603845E-1,-2.080758214E-1,-4.075995386E-1
2.096567151E1,-8.973603845E-1,-2.080758214E-1,-4.075995386E-1
2.098233818E1,-5.461131334E-1,1.468137145E0,-9.763146043E-1
2.099900484E1,-5.784889460E-1,2.041128397E0,-1.137582898E0
2.101567151E1,-8.332195878E-1,2.273867846E0,-1.856570840E0
2.103233818E1,-1.126434684E0,6.856193542E-1,-2.946353436E0
2.104900484E1,-1.126434684E0,6.856193542E-1,-2.946353436E0
2.106567151E1,-1.386052132E0,-1.175685644E0,-4.013534546E0
2.108233817E1,-1.386052132E0,-1.175685644E0,-4.013534546E0
2.109900484E1,-1.386052132E0,-1.175685644E0,-4.013534546E0
2.111567151E1,1.222340465E0,-4.878518879E-1,-3.108843565E0
2.113233817E1,1.747073293E0,-2.416733801E-1,-2.275624037E0
2.114900484E1,1.747073293E0,-2.416733801E-1,-2.275624037E0
2.116567150E1,1.286481261E0,2.183077931E-1,1.293048024E0
2.118233817E1,1.286481261E0,2.183077931E-1,1.293048024E0
2.119900484E1,7.067705393E-1,-1.351614714E0,4.227642536E0
2.121567150E1,1.258381486E0,6.117047071E-1,4.801244259E0
2.123233817E1,1.258381486E0,6.117047071E-1,4.801244259E0
2.124900483E1,3.048215210E-1,-5.800924897E-1,3.150687933E0
2.126567150E1,3.249800503E-1,-1.614286542E0,1.642462730E0
2.128233817E1,1.561370373E0,2.506836355E-1,9.766200781E-1
2.129900483E1,1.561370373E0,2.506836355E-1,9.766200781E-1
2.131567150E1,4.004218578E0,9.491311759E-2,1.856876254E0
2.133233816E1,3.589441538E0,4.205040336E-1,1.589317441E0
2.134900483E1,3.589441538E0,4.205040336E-1,1.589317441E0
2.136567150E1,-2.017075539E0,-2.720562696E0,-1.387426615E0
2.138233816E1,-2.065944672E0,-3.019275427E0,-1.377652764E0
2.139900483E1,-1.704923630E0,-2.594113588E0,-1.012355685E0
2.141567149E1,-1.163697362E0,-2.018068075E0,-8.034399152E-1
2.143233816E1,-1.163697362E0,-2.018068075E0,-8.034399152E-1
2.144900483E1,-8.014546037E-1,8.328377604E-1,-3.660607338E-1
2.146567149E1,-5.216785073E-1,9.770018458E-1,-2.518289983E-1
2.148233816E1,-1.637117565E-1,1.000291109E-2,1.183550507E-1
2.149900482E1,-1.637117565E-1,1.000291109E-2,1.183550507E-1
2.151567149E1,-1.637117565E-1,1.000291109E-2,1.183550507E-1
2.153233816E1,-3.964512348E-1,-1.509217739E0,3.956876695E-1
2.154900482E1,-3.964512348E-1,-1.509217739E0,3.956876695E-1
2.156567149E1,-3.964512348E-1,-1.509217739E0,3.956876695E-1
2.158233815E1,5.015199780E-1,5.992812634E0,6.459894776E-2
2.159900482E1,6.737838387E-1,5.515116215E0,-6.531671882E-1
2.161567149E1,3.744601011E-1,2.679481983E0,-1.920711637E0
2.163233815E1,3.744601011E-1,2.679481983E0,-1.920711637E0
2.164900482E1,-2.017075539E0,-1.465846419E0,-3.566381216E0
2.166567148E1,-2.017075539E0,-1.465846419E0,-3.566381216E0
2.168233815E1,-2.527147532E0,-1.524871141E-1,-3.063639641E0
2.169900482E1,-2.527147532E0,-1.524871141E-1,-3.063639641E0
2.171567148E1,-1.017700672E0,-1.302745461E0,-2.802800417E0
2.173233815E1,-1.447749585E-1,-1.475620270E0,-1.917657256E0
2.174900481E1,-1.447749585E-1,-1.475620270E0,-1.917657256E0
2.176567148E1,-1.447749585E-1,-1.475620270E0,-1.917657256E0
2.178233815E1,1.762344837E0,-3.097466230E0,1.413999200E0
2.179900481E1,1.172860384E0,-2.525085926E0,3.737728834E0
2.181567148E1,1.172860384E0,-2.525085926E0,3.737728834E0
2.183233814E1,1.271209598E0,6.422479749E-1,4.429838657E0
2.184900481E1,9.095776677E-1,9.263001084E-1,3.294240952E0
2.186567148E1,1.368947983E0,2.359388828E0,1.810450435E0
2.188233814E1,1.772729635E0,1.824271321E0,8.538362384E-1
2.189900481E1,2.364657640E0,1.859319657E-1,1.056643367E0
2.191567147E1,4.794066906E0,-2.713843107E0,2.754847527E0
2.193233814E1,4.794066906E0,-2.713843107E0,2.754847527E0
2.194900481E1,5.038412571E0,-1.187902927E0,1.793957114E0
2.196567147E1,-2.083048970E-1,1.721646070E0,-6.104066372E-1
2.198233814E1,-1.255327106E0,-2.669860840E0,-1.943313599E0
2.199900480E1,-2.279747248E0,-4.559876442E0,-2.100916624E0
2.201567147E1,-2.279747248E0,-4.559876442E0,-2.100916624E0
2.203233814E1,-1.891237378E0,2.044793606E0,-1.847865991E-2
2.204900480E1,-1.301141977E0,8.468876481E-1,4.262309074E-1
2.206567147E1,-9.663881063E-1,-6.686678529E-1,-6.673697382E-2
2.208233813E1,-9.663881063E-1,-6.686678529E-1,-6.673697382E-2
2.209900480E1,-8.570432663E-1,-2.648862302E-1,-7.814487815E-1
2.211567147E1,-2.565632015E-2,4.386238098E0,-3.587303460E-1
2.213233813E1,-2.565632015E-2,4.386238098E0,-3.587303460E-1
2.214900480E1,-1.299309373E0,4.778413296E0,-5.670352578E-1
2.216567146E1,-8.344413042E-1,3.942750454E0,-8.712459207E-1
2.218233813E1,5.522217751E-1,-8.336013556E-1,-2.097251415E0
2.219900480E1,-1.802051067E-1,-1.782885194E0,-3.358687162E0
2.221567146E1,-1.802051067E-1,-1.782885194E0,-3.358687162E0
2.223233813E1,-2.635270596E0,1.333975941E-1,-4.051407814E0
2.224900479E1,-2.635270596E0,1.333975941E-1,-4.051407814E0
2.226567146E1,1.660941362E0,-8.769727349E-1,2.722929716E-1
2.228233813E1,1.660941362E0,-8.769727349E-1,2.722929716E-1
2.229900479E1,1.398269534E0,-2.140241146E0,3.336390734E0
2.231567146E1,1.276707411E0,-2.193386316E0,3.754222155E0
2.233233812E1,1.276707411E0,-2.193386316E0,3.754222155E0
2.234900479E1,1.276707411E0,-2.193386316E0,3.754222155E0
2.236567146E1,1.276707411E0,-2.193386316E0,3.754222155E0
2.238233812E1,1.749516726E0,1.631848931E0,2.136041403E0
2.239900479E1,1.749516726E0,1.631848931E0,2.136041403E0
2.241567145E1,2.566853762E0,2.781725526E-1,2.411541462E0
2.243233812E1,2.566853762E0,2.781725526E-1,2.411541462E0
2.244900479E1,1.595578790E0,-1.084055901E0,-5.340485573E-1
2.246567145E1,1.595578790E0,-1.084055901E0,-5.340485573E-1
2.248233812E1,-1.321300507E0,1.492571712E0,-9.812015295E-1
2.249900478E1,-1.321300507E0,1.492571712E0,-9.812015295E-1
2.251567145E1,-8.796452880E-1,3.905716538E-1,8.739947677E-1
2.253233812E1,-8.796452880E-1,3.905716538E-1,8.739947677E-1
2.254900478E1,4.618137777E-1,-8.219949007E-1,-3.733910918E-1
2.256567145E1,4.618137777E-1,-8.219949007E-1,-3.733910918E-1
2.258233811E1,-1.475849271E0,2.892673731E0,-1.769827962E0
2.259900478E1,-1.475849271E0,2.892673731E0,-1.769827962E0
2.261567145E1,-2.516152143E0,3.152291298E0,-2.685514212E0
2.263233811E1,-2.516152143E0,3.152291298E0,-2.685514212E0
2.264900478E1,-5.687150955E-1,-1.650327563E0,-3.999484539E0
2.266567144E1,-5.687150955E-1,-1.650327563E0,-3.999484539E0
2.268233811E1,-1.910785079E0,-1.457676142E-1,-3.587150812E0
2.269900478E1,-1.910785079E0,-1.457676142E-1,-3.587150812E0
2.271567144E1,7.684679031E-1,-3.294164658E0,-7.405208349E-1
2.273233811E1,7.684679031E-1,-3.294164658E0,-7.405208349E-1
2.274900477E1,2.834412456E-1,-5.756560802E0,2.033416033E0
2.276567144E1,2.834412456E-1,-5.756560802E0,2.033416033E0
2.278233811E1,2.733009100E0,8.920916319E-1,3.158628941E0
2.279900477E1,2.733009100E0,8.920916319E-1,3.158628941E0
2.281567144E1,1.541822672E0,1.534721375E0,2.975980520E0
2.283233810E1,6.780598760E-1,3.478111327E-1,2.657719851E0
2.284900477E1,1.116050005E0,-1.921551466E0,2.324798584E0
2.286567144E1,1.116050005E0,-1.921551466E0,2.324798584E0
2.288233810E1,1.899178624E0,1.094287872E0,7.163916826E-1
2.289900477E1,1.463631988E0,2.176129341E0,-3.069595434E-2
2.291567143E1,1.463631988E0,2.176129341E0,-3.069595434E-2
2.293233810E1,1.463631988E0,2.176129341E0,-3.069595434E-2
2.294900477E1,1.463631988E0,2.176129341E0,-3.069595434E-2
2.296567143E1,-1.615126491E0,-2.899316847E-1,-5.761982203E-1
2.298233810E1,-1.615126491E0,-2.899316847E-1,-5.761982203E-1
2.299900476E1,-2.196058989E0,1.900018573E0,-1.095433235E0
2.301567143E1,-2.139248371E0,2.852967501E0,-1.405752540E0
2.303233810E1,-1.960265040E0,1.816940904E0,-1.826638460E0
2.304900476E1,-1.960265040E0,1.816940904E0,-1.826638460E0
2.306567143E1,-2.288299561E0,-7.688496709E-1,-2.126573086E0
2.308233809E1,-2.524704218E0,-1.046182275E0,-2.209650517E0
2.309900476E1,-2.590066671E0,-4.744128585E-1,-2.504087448E0
2.311567143E1,-2.590066671E0,-4.744128585E-1,-2.504087448E0
2.313233809E1,-2.590066671E0,-4.744128585E-1,-2.504087448E0
2.314900476E1,-1.245553255E0,-2.058996201E0,-1.567020893E0
2.316567142E1,-1.245553255E0,-2.058996201E0,-1.567020893E0
2.318233809E1,1.902843833E0,-2.308228970E0,4.372264743E-1
2.319900476E1,2.456898212E0,-2.250807524E0,8.691078424E-1
2.321567142E1,3.403127670E0,-2.586172342E0,1.457370639E0
2.323233809E1,3.618152142E0,-2.719341040E0,1.817170024E0
2.324900475E1,3.315163136E0,-2.399858713E0,1.865428329E0
2.326567142E1,2.640157461E0,8.096249104E-1,1.669340730E0
2.328233809E1,7.635809481E-2,3.016068459E0,1.425605655E0
2.329900475E1,7.635809481E-2,3.016068459E0,1.425605655E0
2.331567142E1,-1.941328287E0,-4.396164894E0,1.298545837E0
2.333233808E1,-1.137430191E0,-4.198244572E0,1.478750944E0
2.334900475E1,1.488677502E0,6.556869745E-1,1.290604591E0
2.336567142E1,1.315802693E0,-5.971966982E-1,1.184924960E0
2.338233808E1,1.315802693E0,-5.971966982E-1,1.184924960E0
2.339900475E1,1.349400282E0,-1.613675714E0,5.203040838E-1
2.341567141E1,1.007926911E-1,-4.432587624E-1,8.342885971E-1
2.343233808E1,-6.389645338E-1,-1.052901864E0,1.326645613E0
2.344900475E1,-6.389645338E-1,-1.052901864E0,1.326645613E0
2.346567141E1,2.608392537E-1,-1.969809890E0,1.661399484E0
2.348233808E1,-3.848448023E-2,-1.334510446E0,1.713322997E0
2.349900474E1,-3.848448023E-2,-1.334510446E0,1.713322997E0
2.351567141E1,-3.848448023E-2,-1.334510446E0,1.713322997E0
2.353233808E1,-3.848448023E-2,-1.334510446E0,1.713322997E0
2.354900474E1,-2.267529964E0,9.434043169E-1,-3.904953003E-1
2.356567141E1,-2.267529964E0,9.434043169E-1,-3.904953003E-1
2.358233807E1,-3.952905893E0,-3.598375320E0,-1.644600749E0
2.359900474E1,-4.847822666E0,-4.837209225E0,-2.792415619E0
2.361567141E1,-4.847822666E0,-4.837209225E0,-2.792415619E0
2.363233807E1,-4.847822666E0,-4.837209225E0,-2.792415619E0
2.364900474E1,-3.758040190E0,1.022205830E0,-4.006814957E0
2.366567140E1,-1.119715095E0,3.468719244E0,-4.118603230E0
2.368233807E1,1.846033335E0,3.250029802E0,-4.510778427E0
2.369900474E1,3.344484568E0,2.036852360E0,-3.958556414E0
2.371567140E1,3.679238558E0,9.543998837E-1,-3.695273876E0
2.373233807E1,4.620581150E0,-2.944139242E0,-3.888307095E0
2.374900473E1,4.064083576E0,-7.596485138E0,-3.756360292E0
2.376567140E1,4.064083576E0,-7.596485138E0,-3.756360292E0
2.378233807E1,1.954767257E-1,-8.399161339E0,5.115992576E-2
2.379900473E1,1.954767257E-1,-8.399161339E0,5.115992576E-2
2.381567140E1,1.694538951E0,-2.058385134E0,2.014479399E0
2.383233806E1,1.694538951E0,-2.058385134E0,2.014479399E0
2.384900473E1,-1.160643101E-1,8.781181648E-3,2.634507179E0
2.386567140E1,1.572976828E0,7.778599262E-1,2.090226650E0
2.388233806E1,1.572976828E0,7.778599262E-1,2.090226650E0
2.389900473E1,1.712864876E0,-2.842124701E0,4.922043085E-1
2.391567139E1,1.616348147E0,-3.647244453E0,1.027932763E0
2.393233806E1,2.348164320E0,-5.073995590E-1,1.078634501E0
2.394900473E1,2.348164320E0,-5.073995590E-1,1.078634501E0
2.396567139E1,-1.059239507E0,2.400316715E0,-9.164499044E-1
2.398233806E1,-6.346884966E-1,-7.602975965E-1,-1.381928802E0
2.399900472E1,-1.388495684E0,-6.534802437E0,-9.647082090E-1
2.401567139E1,-1.388495684E0,-6.534802437E0,-9.647082090E-1
2.403233806E1,-1.388495684E0,-6.534802437E0,-9.647082090E-1
2.404900472E1,-4.263225079E0,-5.296579361E0,4.317286909E-1
2.406567139E1,-3.675573349E0,-1.385823131E0,8.414662629E-2
2.408233805E1,-3.083034515E0,-5.597048625E-2,1.269071549E-1
2.409900472E1,-3.083034515E0,-5.597048625E-2,1.269071549E-1
2.411567139E1,-5.510000587E-1,-3.779802084E0,-9.836450219E-1
2.413233805E1,1.618180752E0,-3.322264433E0,-1.475391150E0
2.414900472E1,2.712850571E0,-1.854967237E0,-1.444847941E0
2.416567138E1,2.997513533E0,-1.950262189E0,-1.486386776E0
2.418233805E1,2.997513533E0,-1.950262189E0,-1.486386776E0
2.419900472E1,4.646848202E0,-3.281336546E0,-1.247538567E0
2.421567138E1,4.646848202E0,-3.281336546E0,-1.247538567E0
2.423233805E1,1.558926940E0,-5.446622968E-1,1.197142243E0
2.424900471E1,6.823359728E-1,-2.238590240E0,1.866650105E0
2.426567138E1,6.823359728E-1,-2.238590240E0,1.866650105E0
2.428233805E1,2.066555500E0,-1.805487156E0,1.284495950E0
2.429900471E1,1.701869249E0,-4.951822758E-1,1.453094602E0
2.431567138E1,-5.907062292E-1,-3.351356983E-1,1.396895051E0
2.433233804E1,-5.907062292E-1,-3.351356983E-1,1.396895051E0
2.434900471E1,-5.907062292E-1,-3.351356983E-1,1.396895051E0
2.436567138E1,-1.317635298E0,9.238566160E-1,8.048143238E-2
2.438233804E1,-1.317635298E0,9.238566160E-1,8.048143238E-2
2.439900471E1,-2.940092087E0,-2.206214428E0,-1.511432171E0
2.441567137E1,-2.940092087E0,-2.206214428E0,-1.511432171E0
2.443233804E1,-3.544237375E0,-5.882398605E0,-2.063653946E0
2.444900471E1,-3.146564484E0,-4.780398846E0,-2.238972187E0
2.446567137E1,-2.888779640E0,-4.555600643E0,-2.945131779E0
2.448233804E1,-2.888779640E0,-4.555600643E0,-2.945131779E0
2.449900470E1,-3.519802809E0,-1.621006012E0,-3.323868036E0
2.451567137E1,-2.982241869E0,2.477285862E0,-2.887099743E0
2.453233804E1,-2.982241869E0,2.477285862E0,-2.887099743E0
2.454900470E1,-2.982241869E0,2.477285862E0,-2.887099743E0
2.456567137E1,3.128849506E0,1.389946461E0,-3.570657253E0
2.458233803E1,3.651749611E0,2.140317410E-1,-3.507738352E0
2.459900470E1,5.503891706E-1,-1.272202253E0,-2.686125040E0
2.461567137E1,5.503891706E-1,-1.272202253E0,-2.686125040E0
2.463233803E1,-4.905244112E-1,-1.366275430E0,-2.351982117E0
2.464900470E1,-4.905244112E-1,-1.366275430E0,-2.351982117E0
2.466567136E1,5.540543795E-1,-1.174463868E0,-1.297629476E0
2.468233803E1,5.540543795E-1,-1.174463868E0,-1.297629476E0
2.469900470E1,6.707295179E-1,-1.392542601E0,-6.971494555E-1
2.471567136E1,6.707295179E-1,-1.392542601E0,-6.971494555E-1
2.473233803E1,6.707295179E-1,-1.392542601E0,-6.971494555E-1
2.474900469E1,9.987639189E-1,-8.739184141E-1,1.089630008E0
2.476567136E1,9.107993841E-1,-9.716567993E-1,1.920406103E0
2.478233803E1,9.089667797E-1,-1.057177901E0,2.396880627E0
2.479900469E1,1.001207352E0,-1.366275430E0,2.677878380E0
2.481567136E1,9.059124589E-1,-1.495778799E0,2.738965034E0
2.483233802E1,3.762927055E-1,-1.938655734E0,2.600298643E0
2.484900469E1,3.762927055E-1,-1.938655734E0,2.600298643E0
2.486567136E1,3.762927055E-1,-1.938655734E0,2.600298643E0
2.488233802E1,1.851531148E0,7.668643594E-1,2.335183382E0
2.489900469E1,2.375042200E0,1.926514804E-1,2.096335173E0
2.491567135E1,2.375042200E0,1.926514804E-1,2.096335173E0
2.493233802E1,2.911381483E0,-5.648208261E-1,2.205679893E0
2.494900469E1,2.386037827E0,-1.432248831E0,1.888030291E0
2.496567135E1,1.521053314E-1,-1.971031547E0,-3.611738086E-1
2.498233802E1,-1.254105449E0,-1.256319761E0,-2.083201647E0
2.499900468E1,-1.254105449E0,-1.256319761E0,-2.083201647E0
2.501567135E1,-1.609628677E0,-3.284390926E0,-1.892000914E0
2.503233802E1,-1.609628677E0,-3.284390926E0,-1.892000914E0
2.504900468E1,-1.676212907E0,-2.116417408E0,-2.156505346E0
2.506567135E1,-1.676212907E0,-2.116417408E0,-2.156505346E0
2.508233801E1,-1.875965714E0,-8.525381684E-1,-1.541975379E0
2.509900468E1,-1.875965714E0,-8.525381684E-1,-1.541975379E0
2.511567135E1,1.276707351E-1,-6.442332864E-1,1.018617004E-1
2.513233801E1,1.276707351E-1,-6.442332864E-1,1.018617004E-1
2.514900468E1,9.334014058E-1,-1.035186768E0,5.050324798E-1
2.516567134E1,7.599157691E-1,-1.099327564E0,7.170025110E-1
2.518233801E1,7.599157691E-1,-1.099327564E0,7.170025110E-1
2.519900468E1,1.978590965E0,5.606746197E0,1.195309639E0
2.521567134E1,1.842368126E0,5.775955677E0,1.157436013E0
2.523233801E1,1.801440239E0,5.457695007E0,7.872520089E-1
2.524900467E1,1.404988952E-2,2.100993156E0,-6.250674129E-1
2.526567134E1,1.404988952E-2,2.100993156E0,-6.250674129E-1
2.528233801E1,-2.570518970E0,-1.857410669E0,-2.769813538E0
2.529900467E1,-3.020115376E0,-2.171395302E0,-3.709934473E0
2.531567134E1,-3.442833900E0,1.786015928E-1,-4.023919106E0
2.533233800E1,-3.442833900E0,1.786015928E-1,-4.023919106E0
2.534900467E1,-3.442833900E0,1.786015928E-1,-4.023919106E0
2.536567134E1,5.894845128E-1,-1.457905173E0,-3.633576393E0
2.538233800E1,5.894845128E-1,-1.457905173E0,-3.633576393E0
2.539900467E1,1.547320485E0,-1.294193387E0,-9.347758293E-1
2.541567133E1,1.318857074E0,-2.790201187E0,2.233779669E0
2.543233800E1,1.318857074E0,-2.790201187E0,2.233779669E0
2.544900467E1,1.508836031E0,-1.882456183E0,4.528798580E0
2.546567133E1,1.814879298E0,-8.317687511E-1,4.312552452E0
2.548233800E1,1.725692987E0,1.094287872E0,3.577071428E0
2.549900466E1,1.597411394E0,1.568929791E0,2.419482708E0
2.551567133E1,1.597411394E0,1.568929791E0,2.419482708E0
2.553233800E1,5.055516720E0,1.328249097E0,2.140928268E0
2.554900466E1,5.055516720E0,1.328249097E0,2.140928268E0
2.556567133E1,-9.633337855E-1,-2.563570499E0,6.827940941E-1
2.558233799E1,-9.633337855E-1,-2.563570499E0,6.827940941E-1
2.559900466E1,-2.088546753E0,-3.227580309E0,-9.414953589E-1
2.561567133E1,-2.088546753E0,-3.227580309E0,-9.414953589E-1
2.563233799E1,-6.847794056E-1,-7.755692005E-1,-1.639102936E0
2.564900466E1,-6.847794056E-1,-7.755692005E-1,-1.639102936E0
2.566567132E1,1.802051067E-1,4.345539212E-1,-1.348331332E0
2.568233799E1,-2.809977904E-2,3.749182448E-2,-7.429642677E-1
2.569900466E1,-2.809977904E-2,3.749182448E-2,-7.429642677E-1
2.571567132E1,-7.452550530E-1,-9.514982700E-1,6.394227147E-1
2.573233799E1,-8.533781171E-1,-1.146975040E0,7.231112123E-1
2.574900465E1,-5.882627964E-1,1.395062506E-1,5.630646348E-1
2.576567132E1,-1.710421406E-2,3.683132887E0,4.677697122E-1
2.578233799E1,-1.710421406E-2,3.683132887E0,4.677697122E-1
2.579900465E1,5.528326035E-1,5.163868904E0,6.259836555E-1
2.581567132E1,5.528326035E-1,5.163868904E0,6.259836555E-1
2.583233798E1,-8.753692508E-1,1.352072835E0,-1.780212641E0
2.584900465E1,-8.753692508E-1,1.352072835E0,-1.780212641E0
2.586567132E1,-2.441626549E0,-1.333288789E0,-3.528507710E0
2.588233798E1,-3.046993494E0,-5.165625215E-1,-4.121046543E0
2.589900465E1,-3.046993494E0,-5.165625215E-1,-4.121046543E0
2.591567131E1,-1.472184062E-1,7.387645841E-1,-3.720930099E0
2.593233798E1,1.032972336E0,-2.728274763E-1,-3.049589634E0
2.594900465E1,2.667646408E0,-4.206567705E-1,-1.281136155E0
2.596567131E1,2.667646408E0,-4.206567705E-1,-1.281136155E0
2.598233798E1,1.266933560E0,3.321577236E-2,2.986365080E0
2.599900464E1,7.782417536E-1,-1.574580312E0,4.370584965E0
2.601567131E1,9.169080257E-1,-1.597793221E0,4.713279724E0
2.603233798E1,9.169080257E-1,-1.597793221E0,4.713279724E0
2.604900464E1,6.017017961E-1,-1.449353099E0,3.476889610E0
2.606567131E1,1.106276155E0,-8.604794145E-1,2.578307629E0
2.608233797E1,3.026834965E0,1.121776819E0,2.825096846E0
2.608233797E1,3.026834965E0,1.121776819E0,2.825096846E0
2.611567131E1,4.720763206E0,-1.138422847E0,2.721860647E0
2.613233797E1,2.539975643E0,5.031998456E-2,1.898262352E-1
2.614900464E1,2.539975643E0,5.031998456E-2,1.898262352E-1
2.616567130E1,-2.021962404E0,-1.863519311E0,-1.871231556E0
2.618233797E1,-2.032958031E0,-3.084027290E0,-2.057545185E0
2.619900464E1,-2.144135475E0,-3.287445068E0,-1.873674989E0
2.621567130E1,-1.806327105E0,3.716348708E-1,-6.268999577E-1
2.623233797E1,-1.552818298E0,8.139009476E-1,2.203694731E-1
2.624900463E1,-1.286481261E0,5.597811937E-1,3.620901108E-1
2.626567130E1,-1.286481261E0,5.597811937E-1,3.620901108E-1
2.628233797E1,-7.757982612E-2,-3.058141768E-1,-3.013090491E-1
2.629900463E1,-7.757982612E-2,-3.058141768E-1,-3.013090491E-1
2.631567130E1,2.785543501E-1,3.778427839E0,-4.595230222E-1
2.633233796E1,2.785543501E-1,3.778427839E0,-4.595230222E-1
2.634900463E1,2.785543501E-1,3.778427839E0,-4.595230222E-1
2.636567130E1,2.785543501E-1,3.778427839E0,-4.595230222E-1
2.638233796E1,7.904590368E-1,5.988765359E-1,-3.355022192E0
2.639900463E1,-9.425643682E-1,2.042579055E-1,-3.634798050E0
2.641567129E1,-2.416581154E0,-4.621955752E-1,-3.675115347E0
2.643233796E1,-2.679863691E0,-2.099924088E0,-3.547444582E0
2.644900463E1,-2.469115496E0,-2.244088173E0,-2.986670732E0
2.646567129E1,-8.772017956E-1,-1.646051526E0,-1.065500855E0
2.648233796E1,9.584468603E-1,-1.674762130E0,1.300378442E0
2.649900462E1,9.584468603E-1,-1.674762130E0,1.300378442E0
2.651567129E1,2.021351576E0,-4.811323583E-1,3.293630123E0
2.653233796E1,1.872911453E0,-5.690969229E-1,3.647931814E0
2.654900462E1,1.382387042E0,-1.245935082E0,3.620442867E0
2.656567129E1,1.197294950E0,-1.843360782E0,3.523315430E0
2.658233795E1,1.573587656E0,-2.041891813E0,3.371820927E0
2.659900462E1,4.520399570E0,2.336175919E0,2.792110205E0
2.661567129E1,3.538739681E0,-1.595349789E0,1.335808516E0
2.663233795E1,2.348164320E0,-1.188895553E-1,6.956222653E-1
2.664900462E1,-8.246674538E-1,-6.961567998E-1,2.209803313E-1
2.666567128E1,-1.308472395E0,-1.978361964E0,-6.495019794E-1
2.668233795E1,-1.308472395E0,-1.978361964E0,-6.495019794E-1
2.669900462E1,-7.727439404E-1,-1.307632446E0,-8.333722949E-1
2.671567128E1,-9.101884961E-1,-1.049236655E0,-8.975130916E-1
2.673233795E1,-1.097113132E0,-5.049561262E-1,-7.057015300E-1
2.674900461E1,-1.315191865E0,-5.141190886E-1,-2.897026241E-1
2.676567128E1,-1.275485635E0,-6.252964735E-1,-5.207622424E-2
2.678233795E1,-8.387173414E-1,-8.861356974E-1,5.227475166E-1
2.679900461E1,-8.387173414E-1,-8.861356974E-1,5.227475166E-1
2.681567128E1,3.127627671E-1,-4.560869038E-1,7.115047574E-1
2.683233794E1,8.729257584E-1,1.303203702E0,7.298306823E-1
2.684900461E1,1.115439057E0,3.921370029E0,7.414371371E-1
2.686567128E1,6.334667802E-1,6.319625378E0,5.392408967E-1
2.688233794E1,2.266308367E-1,5.802222729E0,-3.550651670E-1
2.689900461E1,9.896009415E-2,4.267119408E0,-1.022129536E0
2.691567127E1,-8.698714375E-1,4.986947477E-1,-2.650695086E0
2.693233794E1,-2.323118687E0,-1.875736713E0,-3.755138397E0
2.694900461E1,-3.234529018E0,-1.526322007E0,-3.758192778E0
2.696567127E1,-3.326158762E0,-3.394117355E-1,-3.642128468E0
2.698233794E1,-2.683528900E0,1.156596065E0,-3.281107426E0
2.699900460E1,-8.729257584E-1,-3.214675933E-2,-2.740492105E0
2.701567127E1,-8.729257584E-1,-3.214675933E-2,-2.740492105E0
2.703233794E1,1.125823736E0,-2.372980595E0,-1.069166064E0
2.704900460E1,1.125823736E0,-2.372980595E0,-1.069166064E0
2.706567127E1,8.234457374E-1,-4.569650173E0,2.212399483E0
2.708233793E1,8.234457374E-1,-4.569650173E0,2.212399483E0
2.709900460E1,1.442251801E0,-4.024147987E0,3.519039392E0
2.711567127E1,2.273638725E0,-8.468113095E-2,3.202611208E0
2.713233793E1,1.947436929E0,6.825650334E-1,2.454912901E0
2.714900460E1,1.784335971E0,7.259364128E-1,2.045022488E0
2.716567126E1,2.657261848E0,1.251280189E0,1.665675521E0
2.718233793E1,4.905244350E0,2.314795732E0,2.084117889E0
2.719900460E1,-8.857539296E-2,5.703949928E-2,1.690110087E0
2.721567126E1,-2.087324858E0,-2.247142553E0,9.711222649E-1
2.723233793E1,-1.897956848E0,-1.796324253E0,2.014326602E-1
2.724900459E1,-1.897956848E0,-1.796324253E0,2.014326602E-1
2.726567126E1,-4.587594569E-1,-2.983845472E0,6.826414168E-2
2.728233793E1,-2.492328286E-1,-3.144502878E0,1.206457894E-2
2.729900459E1,-1.056796089E-1,-3.638692379E0,-1.540906429E-1
2.731567126E1,-3.115410358E-2,-2.953912973E0,1.250745654E-1
2.733233792E1,-3.115410358E-2,-2.953912973E0,1.250745654E-1
2.734900459E1,1.297476768E0,8.841503859E-1,5.441278219E-1
2.736567126E1,9.999856353E-1,1.185306787E0,-5.207622424E-2
2.738233792E1,9.999856353E-1,1.185306787E0,-5.207622424E-2
2.739900459E1,3.726275265E-1,6.831530094E0,-5.169443488E-1
2.741567125E1,3.689623177E-1,5.973264694E0,-5.761982203E-1
2.743233792E1,-1.274263978E0,-1.756999791E-1,-1.452789187E0
2.744900459E1,-1.274263978E0,-1.756999791E-1,-1.452789187E0
2.746567125E1,-4.420828342E0,-4.304534912E0,-3.536448956E0
2.748233792E1,-4.643794060E0,-4.409603596E0,-3.847990036E0
2.749900458E1,-4.678613186E0,-2.139630318E0,-3.797899008E0
2.751567125E1,-3.144120932E0,1.720424294E0,-2.820515394E0
2.753233792E1,-2.480110973E-1,4.072864532E0,-2.372140646E0
2.754900458E1,1.311526656E0,3.748495340E0,-2.348316908E0
2.756567125E1,3.888154268E0,-7.028762698E-1,-3.096626282E0
2.758233791E1,3.835009098E0,-4.030256748E0,-2.719722748E0
2.759900458E1,1.179579854E0,-2.381532669E0,3.181078434E-1
2.761567125E1,7.605266571E-1,-2.003407478E0,1.440877318E0
2.763233791E1,8.802561760E-1,-2.123747826E0,2.525162220E0
2.764900458E1,8.802561760E-1,-2.123747826E0,2.525162220E0
2.766567124E1,1.073289394E0,-3.759643555E0,4.136012554E0
2.768233791E1,1.741575480E0,3.062723279E-1,4.245357513E0
2.769900458E1,1.526551127E0,3.674580812E0,3.797593594E0
2.771567124E1,2.168570012E-1,-1.554421782E0,2.058461666E0
2.773233791E1,6.456840634E-1,-2.328998327E0,1.837939382E0
2.774900457E1,3.112355947E0,3.222540855E0,2.815323114E0
2.776567124E1,2.981631041E0,1.189582825E0,6.821832657E-1
2.778233791E1,2.981631041E0,1.189582825E0,6.821832657E-1
2.779900457E1,-2.747669697E0,-2.523864269E0,-1.895666122E0
2.781567124E1,-3.794081211E0,-3.958785534E0,-2.075871229E0
2.783233790E1,-2.855792761E0,-2.994840860E0,-5.578722358E-1
2.784900457E1,-2.855792761E0,-2.994840860E0,-5.578722358E-1
2.786567124E1,-9.254601598E-1,-2.641150236E0,1.104138121E-1
2.788233790E1,-6.542361975E-1,-3.634416342E0,-1.047785759E0
2.789900457E1,-8.991929293E-1,-3.763308764E0,-1.644600749E0
2.791567123E1,-1.257770538E0,-3.488419771E0,-1.709963202E0
2.793233790E1,-1.384219646E0,-3.261788845E0,-1.622609615E0
2.794900457E1,-1.478292823E0,-2.380921841E0,-1.272584081E0
2.796567123E1,-1.185688496E0,-8.305470347E-1,-7.319687009E-1
2.798233790E1,3.573558927E-1,1.993480802E0,-3.037525117E-1
2.799900456E1,1.190575480E0,2.786994219E0,-1.449276656E-1
2.801567123E1,2.570518970E0,2.439412117E0,1.867718995E-1
2.803233790E1,2.570518970E0,2.439412117E0,1.867718995E-1
2.804900456E1,4.309040070E0,-1.119486094E0,1.103069067E0
2.806567123E1,3.918086767E0,-2.154290915E0,1.370016932E0
2.808233789E1,-4.464200020E0,-4.473133564E0,1.344360709E0
2.809900456E1,-2.500880480E0,-1.559919596E0,1.801898360E0
2.811567123E1,-2.500880480E0,-1.559919596E0,1.801898360E0
2.813233789E1,-3.529576778E0,-2.237368584E0,5.936078429E-1
2.814900456E1,-4.650513649E0,-7.875039577E0,-3.306305707E-1
2.816567122E1,-3.643197536E0,-8.909844398E0,-4.595230222E-1
2.818233789E1,-3.643197536E0,-8.909844398E0,-4.595230222E-1
2.819900456E1,-1.495396972E0,-2.280129194E0,-5.371028781E-1
2.821567122E1,-1.930943608E0,8.399390499E-4,-2.215759277E0
2.823233789E1,-1.621235132E0,3.114417791E0,-3.592648506E0
2.824900455E1,-1.621235132E0,3.114417791E0,-3.592648506E0
2.826567122E1,5.668824911E-1,6.490056515E0,-3.351967812E0
2.828233789E1,3.018893719E0,4.223748207E0,-3.138164997E0
2.829900455E1,5.929053783E0,-1.726074815E0,-3.698328018E0
2.831567122E1,4.840492725E0,-4.179918766E0,-3.470475435E0
2.833233788E1,1.301141977E-1,-4.517726898E0,-1.171791315E0
2.834900455E1,-6.255255342E-1,-4.365621567E0,-1.198822111E-1
2.836567122E1,1.820377111E-1,-3.875097036E0,-1.259908676E-1
2.838233788E1,5.736020207E-1,-3.472537279E0,-1.553123742E-1
2.839900455E1,1.251051068E0,-3.195815563E0,-2.017380893E-1
2.841567121E1,1.251051068E0,-3.195815563E0,-2.017380893E-1
2.843233788E1,1.251051068E0,-3.195815563E0,-2.017380893E-1
2.844900455E1,2.736674249E-1,-6.149957657E0,1.959501505E0
2.846567121E1,4.685332775E-1,-2.622824192E0,2.491564751E0
2.848233788E1,1.337182999E0,9.770018458E-1,1.541669965E0
2.849900454E1,1.337182999E0,9.770018458E-1,1.541669965E0
2.851567121E1,5.754346251E-1,-9.117920399E-1,2.771798968E-1
2.853233788E1,1.221729517E0,-3.070359230E-1,8.399390616E-3
2.854900454E1,1.221118689E0,-6.124683022E-1,-3.159697950E-1
2.856567121E1,1.221118689E0,-6.124683022E-1,-3.159697950E-1
2.858233787E1,8.533781171E-1,-5.416079760E-1,-1.042288065E0
2.859900454E1,8.533781171E-1,-5.416079760E-1,-1.042288065E0
2.861567121E1,-7.757982612E-2,-2.630765438E0,-2.451094985E-1
2.863233787E1,-7.757982612E-2,-2.630765438E0,-2.451094985E-1
2.864900454E1,-1.508836031E0,-4.550102711E0,7.664825916E-1
2.866567120E1,-1.171638608E0,-5.110876560E0,9.387464523E-1
2.868233787E1,2.339612097E-1,-3.482921839E0,8.935424685E-1
2.869900454E1,2.339612097E-1,-3.482921839E0,8.935424685E-1
2.871567120E1,2.687804997E-1,-3.242851973E0,6.491965652E-1
2.873233787E1,4.587594569E-1,-2.038226604E0,-8.933897316E-2
2.874900453E1,5.222893953E-1,-5.709294677E-1,-6.110175252E-1
2.876567120E1,5.222893953E-1,-5.709294677E-1,-6.110175252E-1
2.878233787E1,6.627882719E-1,-4.560869038E-1,-7.997747064E-1
2.879900453E1,1.162475705E0,-9.264528155E-1,-5.554288030E-1
2.881567120E1,1.162475705E0,-9.264528155E-1,-5.554288030E-1
2.883233786E1,1.162475705E0,-9.264528155E-1,-5.554288030E-1
2.884900453E1,6.316341758E-1,-2.123136997E0,7.292198539E-1
2.886567120E1,7.617483735E-1,-2.512868643E0,5.361865759E-1
2.888233786E1,7.617483735E-1,-2.512868643E0,5.361865759E-1
2.889900453E1,-5.986474827E-2,-9.918153286E-1,6.265945435E-1
2.891567119E1,-5.986474827E-2,-9.918153286E-1,6.265945435E-1
2.893233786E1,-1.676212907E0,-9.374483824E-1,-4.845684767E-1
2.894900453E1,-2.792262793E0,1.639408320E-1,-1.003192663E0
2.896567119E1,-3.119686365E0,3.441459537E-1,-1.372155070E0
2.898233786E1,-3.014006853E0,1.373453140E0,-2.242637396E0
2.899900452E1,-3.022558928E0,-4.292088747E-1,-3.143052101E0
2.901567119E1,-3.882656574E0,-5.440132618E0,-3.361130714E0
2.903233786E1,-4.059807301E0,-5.360720158E0,-3.351356983E0
2.904900452E1,-4.059807301E0,-5.360720158E0,-3.351356983E0
2.906567119E1,-1.747684121E0,2.396651506E0,-2.440557480E0
2.908233785E1,-1.747684121E0,2.396651506E0,-2.440557480E0
2.909900452E1,2.235154152E0,2.898782492E0,-2.935358047E0
2.911567119E1,2.899775028E0,1.706985235E0,-3.053254843E0
2.913233785E1,9.443969727E-1,3.807978332E-1,-2.354425669E0
2.914900452E1,9.443969727E-1,3.807978332E-1,-2.354425669E0
2.916567118E1,3.567450345E-1,-1.115820885E0,-1.696524262E0
2.918233785E1,9.957095981E-1,-1.488448381E0,-1.530369043E0
2.919900452E1,8.344413042E-1,-9.392809272E-1,-1.136361241E0
2.921567118E1,4.618137777E-1,-2.709949017E-1,-5.096139312E-1
2.923233785E1,3.848448098E-1,-8.407026529E-2,-2.371682525E-1
2.924900451E1,3.915643096E-1,1.957058012E-1,2.362519503E-1
2.926567118E1,3.915643096E-1,1.957058012E-1,2.362519503E-1
2.928233785E1,7.476984859E-1,-1.467679024E0,5.991056561E-1
2.929900451E1,9.266818762E-1,-1.724242210E0,9.137009978E-1
2.931567118E1,1.251661897E0,-1.597793221E0,1.698051333E0
2.933233784E1,1.414762855E0,-1.340008259E0,2.492175579E0
2.934900451E1,1.414762855E0,-1.340008259E0,2.492175579E0
2.936567118E1,1.547320485E0,-1.726685643E0,3.020573616E0
2.938233784E1,1.491120934E0,-7.712931633E-1,2.493397236E0
2.939900451E1,1.186910272E0,1.247614980E0,1.673005939E0
2.941567117E1,1.186910272E0,1.247614980E0,1.673005939E0
2.943233784E1,8.045089245E-1,4.822013974E-1,8.581122756E-1
2.944900451E1,1.439197421E0,8.230639100E-1,7.530435324E-1
2.946567117E1,1.439197421E0,8.230639100E-1,7.530435324E-1
2.948233784E1,1.439197421E0,8.230639100E-1,7.530435324E-1
2.949900450E1,2.257756233E0,-1.773111343E0,2.658330917E0
2.951567117E1,-1.148425788E-1,-3.189095974E0,8.306233883E-1
2.953233784E1,-2.945590019E0,-3.848218918E0,-1.671478748E0
2.954900450E1,-3.486816168E0,-2.238590240E0,-2.383136272E0
2.956567117E1,-3.399462461E0,1.309541315E-1,-2.558454514E0
2.958233783E1,-2.165515661E0,1.407279670E-1,-1.526703835E0
2.959900450E1,-2.165515661E0,1.407279670E-1,-1.526703835E0
2.961567117E1,3.958403766E-1,5.426769853E-1,1.023198478E-2
2.963233783E1,6.524035931E-1,3.740783334E-1,9.514218569E-2
2.964900450E1,4.960221946E-1,-7.185296714E-2,2.948949635E-1
2.966567116E1,4.960221946E-1,-7.185296714E-2,2.948949635E-1
2.968233783E1,2.028071135E-1,-1.263650179E0,1.209359527E0
2.969900450E1,1.838703007E-1,-2.050443888E0,1.245400548E0
2.971567116E1,1.007926941E0,-6.582831740E-1,9.405790567E-1
2.973233783E1,1.007926941E0,-6.582831740E-1,9.405790567E-1
2.974900449E1,1.007926941E0,-6.582831740E-1,9.405790567E-1
2.976567116E1,1.483790517E0,5.720977783E0,4.873173833E-1
2.978233783E1,1.483790517E0,5.720977783E0,4.873173833E-1
2.979900449E1,1.313359290E-1,3.049055099E0,-2.783863544E0
2.981567116E1,-4.660898149E-1,1.739361048E0,-3.978104115E0
2.983233782E1,-1.599854827E0,-7.193696499E-1,-4.823541164E0
2.984900449E1,-1.599854827E0,-7.193696499E-1,-4.823541164E0
2.986567116E1,-2.372598886E0,2.500727773E-1,-2.971399069E0
2.988233782E1,-1.894902587E0,8.395572901E-1,-2.539517641E0
2.989900449E1,-6.450732350E-1,-3.153589368E-2,-2.113133907E0
2.991567115E1,-6.450732350E-1,-3.153589368E-2,-2.113133907E0
2.993233782E1,-6.450732350E-1,-3.153589368E-2,-2.113133907E0
2.994900449E1,-4.062250853E-1,5.887209252E-2,-3.863719851E-2
2.996567115E1,-3.604102135E-2,-3.064250350E-1,7.267763615E-1
2.998233782E1,1.092226267E0,-9.062942863E-1,1.678503752E0
2.999900448E1,1.092226267E0,-9.062942863E-1,1.678503752E0
3.001567115E1,1.702480197E0,1.376736462E-1,3.227046013E0
3.003233782E1,1.094058871E0,7.735838890E-1,3.788430691E0
3.004900448E1,4.850266278E-1,-2.789361179E-1,3.662592411E0
3.006567115E1,4.850266278E-1,-2.789361179E-1,3.662592411E0
3.008233781E1,1.878409147E0,-1.209283233E0,3.164737701E0
3.009900448E1,3.503309488E0,6.257545948E-1,3.120144606E0
3.011567115E1,3.503309488E0,6.257545948E-1,3.120144606E0
3.013233781E1,2.910159826E0,-4.872410297E-1,1.569769740E0
3.014900448E1,2.260199636E-1,-1.302134633E0,9.758564830E-2
3.016567114E1,-1.774562240E0,-1.666210055E0,-1.119256973E0
3.018233781E1,-2.148411512E0,-2.366261005E0,-1.936594009E0
3.019900448E1,-2.105040073E0,-2.499429703E0,-1.765551925E0
3.021567114E1,-2.105040073E0,-2.499429703E0,-1.765551925E0
3.023233781E1,-1.576031089E0,-1.905669093E0,-8.694133162E-1
3.024900447E1,-1.576031089E0,-1.905669093E0,-8.694133162E-1
3.026567114E1,-1.222951293E0,5.994874239E-1,-9.121738076E-1
3.028233781E1,-8.228348494E-1,8.560506105E-1,-3.440696001E-1
3.029900447E1,-2.327394783E-1,4.626537263E-1,3.205513060E-1
3.031567114E1,6.719512399E-3,-2.587775886E-1,5.380191803E-1
3.033233780E1,5.497782957E-3,-8.189405799E-1,4.873173833E-1
3.034900447E1,-1.093447953E-1,-1.796324253E0,4.079049528E-1
3.036567114E1,-1.093447953E-1,-1.796324253E0,4.079049528E-1
3.038233780E1,1.343902469E0,6.366050720E0,-9.056070447E-2
3.039900447E1,9.382883310E-1,6.200506687E0,-3.294088244E-1
3.041567113E1,9.382883310E-1,6.200506687E0,-3.294088244E-1
3.043233780E1,5.607738495E-1,1.703320026E0,-2.436281443E0
3.044900447E1,5.607738495E-1,1.703320026E0,-2.436281443E0
3.046567113E1,-2.166737318E0,-1.760894060E0,-2.808298111E0
3.048233780E1,-2.808145285E0,-5.293906927E-1,-3.008050919E0
3.049900446E1,-2.594342709E0,-3.937787116E-1,-3.213912249E0
3.051567113E1,-1.129488945E0,-1.295415163E0,-2.963457823E0
3.053233780E1,-1.129488945E0,-1.295415163E0,-2.963457823E0
3.054900446E1,1.705534458E0,-4.554760456E-1,-4.718930274E-2
3.056567113E1,1.705534458E0,-4.554760456E-1,-4.718930274E-2
3.058233779E1,1.705534458E0,-4.554760456E-1,-4.718930274E-2
3.059900446E1,1.139262795E0,-9.918153286E-1,3.446957350E0
3.061567113E1,5.070177913E-1,-1.121929526E0,3.407861948E0
3.063233779E1,5.070177913E-1,-1.121929526E0,3.407861948E0
3.064900446E1,5.070177913E-1,-1.121929526E0,3.407861948E0
3.066567112E1,1.756847143E0,1.287321210E0,2.548985958E0
3.068233779E1,4.513069153E0,4.962512851E-1,3.315621376E0
3.069900446E1,4.513069153E0,4.962512851E-1,3.315621376E0
3.071567112E1,3.595550060E0,-1.094440579E0,1.935066938E0
3.073233779E1,-1.199738383E0,-3.681223989E-1,-5.719221234E-1
3.074900445E1,-1.199738383E0,-3.681223989E-1,-5.719221234E-1
3.076567112E1,-1.199738383E0,-3.681223989E-1,-5.719221234E-1
3.078233779E1,-1.361617565E0,-3.434663534E0,-1.485775828E0
3.079900445E1,-1.751349330E0,-3.671679020E0,-9.885319471E-1
3.081567112E1,-1.751349330E0,-3.671679020E0,-9.885319471E-1
3.083233778E1,-7.794634700E-1,1.980041862E0,3.346011937E-1
3.084900445E1,-5.442805290E-1,1.992259145E0,3.657552898E-1
3.086567112E1,-3.042106628E-1,1.089401007E0,3.908007443E-1
3.088233778E1,-2.040288299E-1,-1.970802546E-1,3.248273432E-1
3.089900445E1,-2.040288299E-1,-1.970802546E-1,3.248273432E-1
3.091567111E1,-1.551596522E-1,3.221548200E-1,1.232419685E-1
3.093233778E1,-1.551596522E-1,3.221548200E-1,1.232419685E-1
3.094900445E1,-2.461785078E-1,5.189525604E0,-8.266527653E-1
3.096567111E1,-2.461785078E-1,5.189525604E0,-8.266527653E-1
3.098233778E1,-1.973093301E-1,3.600666046E0,-1.684306860E0
3.099900444E1,-5.943714380E-1,1.641622782E0,-2.672075272E0
3.101567111E1,-1.907730699E0,3.869064748E-1,-3.139997721E0
3.103233778E1,-1.907730699E0,3.869064748E-1,-3.139997721E0
3.104900444E1,-1.764788389E0,-1.402698308E-1,-3.058752775E0
3.106567111E1,-8.002328873E-1,6.681333482E-2,-2.898095131E0
3.108233777E1,2.981020212E-1,1.120173261E-1,-2.326325893E0
3.109900444E1,2.981020212E-1,1.120173261E-1,-2.326325893E0
3.111567111E1,1.112384796E0,3.239873946E-1,2.643517256E-1
3.113233777E1,1.433088779E0,-6.879864633E-2,1.824500322E0
3.114900444E1,1.433088779E0,-6.879864633E-2,1.824500322E0
3.116567110E1,9.804379940E-1,-2.123518735E-1,4.599048138E0
3.118233777E1,6.261364222E-1,-1.708130687E-1,4.935634613E0
3.119900444E1,1.374445707E-1,-9.808197618E-1,4.784140110E0
3.121567110E1,7.678570151E-1,-2.267911911E0,3.588067055E0
3.123233777E1,7.678570151E-1,-2.267911911E0,3.588067055E0
3.124900443E1,2.434296131E0,-1.286862969E0,1.899636745E0
3.126567110E1,3.291950226E0,4.473820925E-1,1.276554704E0
3.128233777E1,3.291950226E0,4.473820925E-1,1.276554704E0
3.129900443E1,2.839299440E0,-3.730092943E-1,1.250287533E0
3.131567110E1,-4.532616735E-1,-2.232481718E0,7.115047574E-1
3.133233776E1,-2.819140911E0,-2.644204617E0,-4.521926641E-1
3.134900443E1,-2.819140911E0,-2.644204617E0,-4.521926641E-1
3.136567110E1,-2.015242815E0,-1.892230034E0,-1.376431108E0
3.138233776E1,-1.656054378E0,-2.177503824E0,-1.095433235E0
3.139900443E1,-1.171027780E0,-1.027245522E0,-7.826704979E-1
3.141567109E1,-1.171027780E0,-1.027245522E0,-7.826704979E-1
3.143233776E1,-7.703005075E-1,-1.078939885E-1,-4.118755758E-1
3.144900443E1,-5.320632458E-1,-6.845503449E-1,-3.587303460E-1
3.146567109E1,-5.320632458E-1,-6.845503449E-1,-3.587303460E-1
3.148233776E1,-1.081230640E0,-1.142088056E0,-3.245218992E-1
3.149900442E1,-1.291368127E0,-1.077336431E0,-3.013090491E-1
3.151567109E1,-1.234557748E0,-9.154572487E-1,-2.703076601E-2
3.153233776E1,-3.561341763E-1,-3.974438906E-1,5.160280466E-1
3.154900442E1,-3.561341763E-1,-3.974438906E-1,5.160280466E-1
3.156567109E1,2.155130863E0,4.994659424E0,5.019781590E-1
3.158233775E1,1.737910271E0,5.892630577E0,6.704241037E-2
3.158233775E1,1.737910271E0,5.892630577E0,6.704241037E-2
3.161567109E1,1.737910271E0,5.892630577E0,6.704241037E-2
3.163233775E1,-8.949168921E-1,1.568929791E0,-2.552345753E0
3.164900442E1,-2.172846079E0,-1.415755510E0,-3.524231672E0
3.166567108E1,-2.172846079E0,-1.415755510E0,-3.524231672E0
3.168233775E1,-2.172846079E0,-1.415755510E0,-3.524231672E0
3.169900442E1,-2.061668634E0,-8.806379437E-1,-2.460716009E0
3.171567108E1,-1.441640854E0,-1.131703377E0,-2.041662693E0
3.173233775E1,-1.441640854E0,-1.131703377E0,-2.041662693E0
3.174900441E1,1.083063245E0,-2.019289970E0,-8.017600328E-2
3.176567108E1,1.979201913E0,-2.980791092E0,4.708240330E-1
3.178233775E1,1.979201913E0,-2.980791092E0,4.708240330E-1
3.179900441E1,1.244942427E0,-7.987820506E-1,3.698022604E0
3.181567108E1,1.244942427E0,-7.987820506E-1,3.698022604E0
3.183233774E1,7.220421433E-1,-1.763948441E0,3.313177824E0
3.184900441E1,1.480736256E0,-3.154887438E0,2.542877436E0
3.186567108E1,3.621817350E0,1.118722439E0,2.341902733E0
3.188233774E1,4.007272720E0,1.940335631E0,2.264322996E0
3.189900441E1,4.007272720E0,1.940335631E0,2.264322996E0
3.191567107E1,-5.320632458E-1,-2.612439632E0,5.801688433E-1
3.193233774E1,-5.320632458E-1,-2.612439632E0,5.801688433E-1
3.194900441E1,-2.101985693E0,-2.657643557E0,-6.470585465E-1
3.196567107E1,-1.469129801E0,-1.490280986E0,-2.371682525E-1
3.198233774E1,-1.313359290E-1,-6.045270562E-1,2.234237939E-1
3.199900440E1,3.940077722E-1,-1.117042661E0,1.269071549E-1
3.201567107E1,3.158170879E-1,-1.264871836E0,-4.428769462E-3
3.203233774E1,2.840521336E-1,-4.059959948E-1,2.258672565E-1
3.204900440E1,2.840521336E-1,-4.059959948E-1,2.258672565E-1
3.206567107E1,8.142827749E-1,2.807763577E0,-1.985310577E-3
3.208233773E1,8.087849617E-1,4.218861103E0,-1.015562713E-1
3.209900440E1,5.778780580E-1,5.564596176E0,-5.804742575E-1
3.211567107E1,5.778780580E-1,5.564596176E0,-5.804742575E-1
3.213233773E1,-8.417716622E-1,1.881081700E0,-2.096029758E0
3.214900440E1,-1.998749614E0,3.307069242E-1,-2.530354738E0
3.216567106E1,-3.585776329E0,-2.911152363E0,-3.302487612E0
3.218233773E1,-3.452607632E0,-4.255054951E0,-3.293324709E0
3.219900440E1,-3.160003424E0,-1.661323071E0,-2.771035433E0
3.221567106E1,-2.831358194E0,6.611847878E-1,-2.643975496E0
3.223233773E1,-1.626732945E0,3.747884512E0,-2.560897827E0
3.224900439E1,5.448913574E-1,1.405218124E0,-2.749044180E0
3.226567106E1,5.448913574E-1,1.405218124E0,-2.749044180E0
3.228233773E1,2.488052130E0,-2.847622633E0,-2.047160625E0
3.229900439E1,2.488052130E0,-2.847622633E0,-2.047160625E0
3.231567106E1,1.273653030E0,-3.716272354E0,2.342513800E0
3.233233772E1,1.273653030E0,-3.716272354E0,2.342513800E0
3.234900439E1,1.404989064E-1,-2.302731037E0,5.395005226E0
3.234900439E1,1.404989064E-1,-2.302731037E0,5.395005226E0
3.238233772E1,1.404989064E-1,-2.302731037E0,5.395005226E0
3.239900439E1,9.254601598E-1,-5.342776179E-1,1.552665591E0
3.241567105E1,1.596800566E0,8.780417442E-1,1.914297462E0
3.243233772E1,2.811810493E0,4.955564022E0,2.413373947E0
3.244900439E1,2.811810493E0,4.955564022E0,2.413373947E0
3.246567105E1,1.374445707E-1,-2.316170216E0,-1.214551926E0
3.248233772E1,-2.553414822E0,-3.462152481E0,-1.931707144E0
3.249900438E1,-2.553414822E0,-3.462152481E0,-1.931707144E0
3.251567105E1,-2.123976946E0,-9.007964730E-1,-1.156061590E-1
3.253233772E1,-1.522885919E0,-1.558086991E0,3.956876695E-1
3.254900438E1,-4.783071280E-1,-3.953898668E0,-3.373500705E-1
3.256567105E1,-4.783071280E-1,-3.953898668E0,-3.373500705E-1
3.258233771E1,-8.014546037E-1,-3.212308884E0,-1.481499791E0
3.259900438E1,-1.062904716E0,-2.597167969E0,-1.337335706E0
3.261567105E1,-1.197294950E0,-1.051680088E0,-8.431460857E-1
3.263233771E1,-1.197294950E0,-1.051680088E0,-8.431460857E-1
3.264900438E1,-1.197294950E0,-1.051680088E0,-8.431460857E-1
3.266567104E1,3.194822788E0,3.949469805E0,4.347830117E-1
3.268233771E1,3.920530081E0,1.929340005E0,9.210313559E-1
3.269900438E1,3.306000233E0,-8.726966977E-1,1.563661098E0
3.271567104E1,3.306000233E0,-8.726966977E-1,1.563661098E0
3.273233771E1,-3.188103199E0,-6.837791443E0,2.034637928E0
3.274900437E1,-3.188103199E0,-6.837791443E0,2.034637928E0
3.276567104E1,-5.070177913E-1,5.975708485E0,1.196531415E0
3.278233771E1,-5.070177913E-1,5.975708485E0,1.196531415E0
3.279900437E1,-4.335307121E0,-2.495764494E0,-7.722858191E-1
3.281567104E1,-4.861872673E0,-6.935529709E0,-1.458287001E0
3.283233770E1,-4.861872673E0,-6.935529709E0,-1.458287001E0
3.284900437E1,-1.326798320E0,-2.642371893E0,-1.333670497E0
3.286567104E1,-1.496618748E0,-2.930089235E0,-1.638492107E0
3.288233770E1,-1.951102138E0,-1.942320943E0,-2.392910004E0
3.289900437E1,-1.951102138E0,-1.942320943E0,-2.392910004E0
3.291567103E1,-1.270598769E-1,2.171853304E0,-3.532783747E0
3.293233770E1,5.858193040E-1,2.894506454E0,-3.502851248E0
3.294900437E1,1.998138666E0,2.987357855E0,-3.156491041E0
3.296567103E1,3.885099888E0,3.007745445E-1,-3.330587387E0
3.298233770E1,2.858847141E0,-3.457876444E0,-3.051422358E0
3.299900436E1,1.017089844E0,-4.479242325E0,-2.157727003E0
3.301567103E1,1.017089844E0,-4.479242325E0,-2.157727003E0
3.303233770E1,2.125809491E-1,-4.394331932E0,-1.301294684E0
3.304900436E1,6.701186895E-1,-3.548895359E0,-1.260366797E0
3.306567103E1,1.233335972E0,-1.990579247E0,-7.655662894E-1
3.308233769E1,1.560148597E0,-1.650327563E0,-2.713766694E-1
3.309900436E1,1.766620994E0,-2.027842045E0,1.756236330E-2
3.311567103E1,1.767231822E0,-2.231870890E0,2.362519503E-1
3.313233769E1,1.387884736E0,-2.930089235E0,9.350812435E-1
3.314900436E1,7.922916412E-1,-3.242241144E0,1.733481526E0
3.316567102E1,6.023126841E-1,-3.015610456E0,2.556316376E0
3.318233769E1,6.805033684E-1,-2.854341984E0,2.824486017E0
3.319900436E1,5.546652079E-1,-2.806694508E0,2.694982767E0
3.321567102E1,1.375667453E0,-1.198898435E0,1.881921649E0
3.323233769E1,1.375667453E0,-1.198898435E0,1.881921649E0
3.324900435E1,1.797775030E0,8.941533417E-2,5.410735011E-1
3.326567102E1,3.665188551E-1,8.242856860E-1,-3.721693754E-1
3.326567102E1,1.797775030E0,8.941533417E-2,5.410735011E-1
3.329900435E1,3.665188551E-1,8.242856860E-1,-3.721693754E-1
3.331567102E1,-1.202181935E0,-5.194564819E0,-7.044798136E-1
3.333233768E1,-2.270584345E0,-6.973403454E0,-8.933897316E-2
3.334900435E1,-2.270584345E0,-6.973403454E0,-8.933897316E-2
3.336567102E1,-2.270584345E0,-6.973403454E0,-8.933897316E-2
3.338233768E1,-3.347538948E0,-3.985663652E0,4.066832364E-1
3.339900435E1,-1.807548881E0,-1.009530425E0,-3.251327872E-1
3.341567101E1,7.819069177E-2,-3.204749227E-1,-1.081383348E0
3.343233768E1,7.819069177E-2,-3.204749227E-1,-1.081383348E0
3.344900435E1,2.489274025E0,-9.618829489E-1,-1.746615171E0
3.346567101E1,3.240026712E0,-2.892215729E0,-2.403905630E0
3.348233768E1,1.257770538E0,-3.868988514E0,-4.888445437E-1
3.349900434E1,1.257770538E0,-3.868988514E0,-4.888445437E-1
3.351567101E1,1.257770538E0,-3.868988514E0,-4.888445437E-1
3.353233768E1,1.576031089E0,-1.198287606E0,1.337641120E0
3.354900434E1,1.576031089E0,-1.198287606E0,1.337641120E0
3.356567101E1,1.576031089E0,-1.198287606E0,1.337641120E0
3.358233767E1,1.048854828E0,-1.512653977E-1,8.752164841E-1
3.359900434E1,6.841685772E-1,-5.532144308E-1,9.601266980E-1
3.361567101E1,6.841685772E-1,-5.532144308E-1,9.601266980E-1
3.363233767E1,3.133736253E-1,-1.710192323E0,4.268417656E-1
3.364900434E1,-4.214966893E-1,-1.421864152E0,1.513417512E-1
3.366567100E1,-4.214966893E-1,-1.421864152E0,1.513417512E-1
3.368233767E1,-9.786053896E-1,-1.111544847E0,-5.444332361E-1
3.369900434E1,-1.018311620E0,-1.124983907E0,-8.480330110E-1
3.371567100E1,-1.423314929E0,-8.818596601E-1,-1.192560792E0
3.373233767E1,-2.528980255E0,-3.275762498E-2,-9.818124175E-1
3.374900433E1,-2.528980255E0,-3.275762498E-2,-9.818124175E-1
3.376567100E1,-3.387245178E0,-1.962479472E0,-2.844339132E0
3.378233767E1,-3.387245178E0,-1.962479472E0,-2.844339132E0
3.379900433E1,-4.079966068E0,-4.418766975E0,-3.983602047E0
3.381567100E1,-4.079966068E0,-4.418766975E0,-3.983602047E0
3.383233766E1,-2.416581154E0,1.531667113E0,-2.510196209E0
3.384900433E1,2.987128794E-1,3.945804596E0,-2.213926792E0
3.386567100E1,2.987128794E-1,3.945804596E0,-2.213926792E0
3.388233766E1,2.987128794E-1,3.945804596E0,-2.213926792E0
3.389900433E1,2.987128794E-1,3.945804596E0,-2.213926792E0
3.391567099E1,1.539379209E-1,-5.764272809E-1,-2.771035433E0
3.393233766E1,1.539379209E-1,-5.764272809E-1,-2.771035433E0
