"Time (s)","Gyroscope x (rad/s)","Gyroscope y (rad/s)","Gyroscope z (rad/s)"
7.004672800E-2,-1.111773923E-1,2.228129357E-1,-4.115701467E-2
8.671339400E-2,-1.111773923E-1,2.228129357E-1,-4.115701467E-2
1.033800600E-1,-1.111773923E-1,2.228129357E-1,-4.115701467E-2
1.200467260E-1,1.710421406E-2,1.679878100E-3,-4.505127668E-3
1.367133920E-1,6.719512399E-3,1.146898642E-1,-1.977674663E-2
1.533800580E-1,1.282816008E-2,1.488982886E-1,-3.749182448E-2
1.700467240E-1,-7.330377586E-3,1.226311028E-1,-2.771798894E-2
1.867133900E-1,-3.115410358E-2,1.012508348E-1,-8.170315996E-3
2.033800560E-1,-4.276053607E-2,8.414662629E-2,2.214384731E-3
2.200467220E-1,-6.291907281E-2,9.758564830E-2,-1.450803829E-3
2.367133880E-1,-8.246674389E-2,1.293506175E-1,-1.000291109E-2
2.533800540E-1,-8.491020650E-2,1.861610413E-1,-2.099847607E-2
2.700467200E-1,-9.590577334E-2,2.228129357E-1,-1.550069358E-2
2.867133860E-1,-1.032361463E-1,2.380845547E-1,8.933897130E-3
3.033800520E-1,-1.069013327E-1,2.197586000E-1,4.314232618E-2
3.200467180E-1,-7.880155742E-2,1.562286615E-1,4.619665071E-2
3.367133840E-1,-5.070177838E-2,9.392046183E-2,3.520108387E-2
3.533800500E-1,-1.160643063E-2,8.597921580E-2,-2.672533505E-3
3.700467160E-1,7.757982612E-2,1.293506175E-1,-6.436987966E-2
3.867133820E-1,1.820377111E-1,1.928805560E-1,-1.321758628E-1
4.033800480E-1,2.333503515E-1,2.710712552E-1,-1.724929363E-1
4.200467140E-1,1.899789423E-1,3.730856776E-1,-1.816559136E-1
4.367133800E-1,1.172860414E-1,5.233584046E-1,-1.755472720E-1
4.533800460E-1,1.606574357E-1,7.041743994E-1,-2.158643454E-1
4.700467120E-1,3.023780584E-1,1.052367330E0,-1.468366235E-1
4.867133780E-1,4.416552484E-1,1.426216602E0,-1.183550525E-2
5.033800440E-1,4.007273018E-1,1.797622323E0,5.879573524E-3
5.200467100E-1,2.217439115E-1,2.317468166E0,1.565340906E-2
5.367133760E-1,-8.857539296E-2,2.649778605E0,1.433241516E-1
5.533800420E-1,-1.423314959E-1,2.671159029E0,1.506545246E-1
5.700467080E-1,-1.007926911E-1,2.615570307E0,2.435059696E-1
5.867133740E-1,-3.176496923E-2,2.383441687E0,3.662897944E-1
6.033800400E-1,1.832594350E-2,2.156810760E0,5.073995590E-1
6.200467060E-1,3.298669681E-2,1.975383997E0,7.059305906E-1
6.367133720E-1,1.710421443E-1,1.806174397E0,9.557743073E-1
6.533800380E-1,2.657261789E-1,1.539837360E0,1.053512692E0
6.700467040E-1,3.115410507E-1,1.344971538E0,1.105436206E0
6.867133700E-1,3.958403766E-1,1.102458239E0,1.102992773E0
7.033800360E-1,4.563159943E-1,1.122005939E0,1.143920660E0
7.200467020E-1,2.663370371E-1,1.178205490E0,7.810669541E-1
7.367133680E-1,2.144135386E-1,3.767508566E-1,3.540725112E-1
7.533800340E-1,2.247982323E-1,1.391244531E-1,2.917642891E-1
7.700467000E-1,5.192350596E-2,2.367101051E-2,3.027598560E-1
7.867133660E-1,9.162971750E-3,3.894263133E-2,5.183951259E-1
8.033800320E-1,-7.208204269E-2,4.505127668E-2,6.130791903E-1
8.200466980E-1,-1.368337125E-1,1.146898642E-1,5.648208261E-1
8.367133640E-1,-1.685986817E-1,1.550069451E-1,4.854084253E-1
8.533800300E-1,-1.502727419E-1,1.971566081E-1,4.799106419E-1
8.700466960E-1,-1.441640854E-1,6.398808211E-2,4.805215001E-1
8.867133620E-1,-1.105665267E-1,7.315105945E-2,4.713585377E-1
9.033800280E-1,-4.703658819E-2,2.611446939E-2,4.371501207E-1
9.200466940E-1,-1.832594350E-2,-1.970038936E-2,2.948186100E-1
9.367133600E-1,-1.160643063E-2,-5.818486959E-2,9.873101860E-2
9.533800260E-1,-5.803215504E-2,-5.696314201E-2,-1.034652218E-1
9.700466920E-1,-1.392771751E-1,1.281288862E-1,-1.828776449E-1
9.867133580E-1,-2.834412456E-1,2.961167097E-1,-5.826122686E-2
1.003380024E0,-2.321286201E-1,2.313650399E-1,7.490729541E-2
1.020046690E0,-7.147117704E-2,7.070759684E-2,1.585957706E-1
1.036713356E0,1.215620935E-1,-2.188423127E-1,2.184605151E-1
1.053380022E0,3.316995800E-1,-4.906771481E-1,1.109483168E-1
1.070046688E0,3.048215210E-1,-3.275762498E-1,-4.176788032E-2
1.086713354E0,-8.552107215E-2,-9.926552884E-3,-6.559160352E-2
1.103380020E0,-1.814268380E-1,1.421787739E-1,-4.970912263E-2
1.120046686E0,-1.123991162E-1,5.299251899E-2,1.078939885E-1
1.136713352E0,7.330377586E-3,-2.275471389E-2,3.595702946E-1
1.153380018E0,8.124501258E-2,-1.327103674E-1,3.168097436E-1
1.170046684E0,4.337139800E-2,-3.863719851E-2,4.008800164E-2
1.186713350E0,-1.966984570E-1,1.623373181E-1,-1.950949430E-1
1.203380016E0,-2.651153207E-1,2.454149276E-1,-3.557523787E-1
1.220046682E0,-3.182605505E-1,3.156643808E-1,-4.137845337E-1
1.236713348E0,-2.638935745E-1,2.356410921E-1,-4.290561378E-1
1.253380014E0,-9.590577334E-2,1.525634825E-1,-3.276526034E-1
1.270046680E0,-4.886918236E-3,9.697478265E-2,-1.731038094E-1
1.286713346E0,4.642572254E-2,1.091920808E-1,-2.867246568E-1
1.303380012E0,-4.886918236E-3,1.855501831E-1,-1.584430486E-1
1.320046678E0,-6.475166976E-2,2.142608166E-1,-1.052978188E-1
1.336713344E0,-8.674279600E-2,1.696676910E-1,-2.099847607E-2
1.353380010E0,-6.047561392E-2,7.987056673E-2,8.040507883E-2
1.370046676E0,3.420842811E-2,1.145371422E-2,1.995237023E-1
1.386713342E0,1.295033395E-1,-1.406516135E-1,1.842520833E-1
1.403380008E0,1.288924664E-1,-1.632536054E-1,1.097265854E-1
1.420046674E0,4.214967042E-2,-1.137735620E-1,2.054032870E-2
1.436713340E0,-6.230820715E-2,-2.580903657E-2,-6.192641705E-2
1.453380006E0,-1.233946830E-1,3.955349326E-2,-6.436987966E-2
1.470046672E0,-9.101885557E-2,1.256854236E-1,-1.794415340E-2
1.486713338E0,-6.719512399E-3,1.018617004E-1,2.214384731E-3
1.503380004E0,8.429934084E-2,9.025526792E-2,2.787070535E-2
1.520046670E0,9.834922850E-2,3.512472380E-3,1.809686981E-2
1.536713336E0,4.214967042E-2,-2.397644334E-2,-2.283107117E-2
1.553380002E0,-3.176496923E-2,4.993819445E-2,-2.955058403E-2
1.570046668E0,-5.009091273E-2,4.016435891E-2,-3.382663801E-2
1.586713334E0,-3.726275265E-2,-6.261364091E-3,-1.122464053E-2
1.603380000E0,-1.832594350E-2,-2.947422490E-2,1.809686981E-2
1.620046666E0,-4.276053514E-3,-2.703076601E-2,3.092502989E-2
1.636713332E0,1.343902480E-2,-7.483093534E-3,2.970330045E-2
1.653379998E0,2.076940238E-2,6.566796452E-3,1.015562657E-2
1.670046664E0,1.221729536E-2,2.122755162E-2,-1.977674663E-2
1.686713330E0,-1.038470119E-2,2.794706449E-2,-4.726566374E-2
1.703379996E0,-1.221729536E-2,2.061668597E-2,-4.543306679E-2
1.720046662E0,-1.099556591E-2,4.581485991E-4,-3.138317913E-2
1.736713328E0,-1.282816008E-2,-2.153298259E-2,-1.061377581E-2
1.753379994E0,-1.221729536E-2,-2.641990222E-2,1.603520010E-3
1.770046660E0,-1.527161989E-2,-1.114828233E-2,-2.061668551E-3
1.786713326E0,-7.330377586E-3,1.023198478E-2,-3.382663801E-2
1.803379992E0,-4.886918236E-3,2.367101051E-2,-4.787652567E-2
1.820046658E0,-4.886918236E-3,2.367101051E-2,-4.787652567E-2
1.836713324E0,3.359756246E-2,-3.619373962E-2,-2.466366626E-2
1.853379990E0,5.192350596E-2,-4.291325063E-2,-2.283107117E-2
1.942826772E0,1.319467872E-1,1.806632578E-1,-7.780890167E-2
1.959493438E0,1.319467872E-1,1.806632578E-1,-7.780890167E-2
1.976160104E0,5.986474827E-2,2.356410921E-1,1.137735695E-2
1.992826770E0,5.558869615E-2,1.269071549E-1,2.825249685E-3
2.009493436E0,4.825831577E-2,1.695149764E-2,-8.170315996E-3
2.026160102E0,6.108647678E-3,-6.261364091E-3,-1.244636998E-2
2.042826768E0,-3.359756246E-2,4.199695215E-2,-2.344193682E-2
2.059493434E0,-6.414080411E-2,1.189659163E-1,-2.649625950E-2
2.076160100E0,-7.941242307E-2,1.702785641E-1,-2.649625950E-2
2.092826766E0,-4.948004708E-2,1.598938555E-1,-2.710712515E-2
2.109493432E0,6.108647794E-4,9.086613357E-2,-2.405280061E-2
2.126160098E0,2.626718581E-2,4.444041103E-2,-1.855501719E-2
2.142826764E0,1.466075517E-2,3.833176568E-2,-6.948587019E-3
2.159493430E0,1.710421406E-2,3.405570984E-2,-1.122464053E-2
2.176160096E0,1.832594350E-2,4.077522457E-2,-1.305723470E-2
2.192826762E0,2.443459118E-3,6.154462695E-2,3.436114406E-3
2.209493428E0,2.443459118E-3,8.231402934E-2,2.054032870E-2
2.226160094E0,-4.886918236E-3,1.049160287E-1,3.947713599E-2
2.242826760E0,-4.276053514E-3,9.819651395E-2,5.474875495E-2
2.259493426E0,-4.886918236E-3,6.398808211E-2,6.818778068E-2
2.276160092E0,-4.459312931E-2,7.070759684E-2,7.490729541E-2
2.292826758E0,-8.246674389E-2,1.012508348E-1,6.879864633E-2
2.309493424E0,-7.513637096E-2,1.061377525E-1,6.330086291E-2
2.326160090E0,-6.352993846E-2,9.880737960E-2,5.780307949E-2
2.342826756E0,-6.352993846E-2,1.140789986E-1,7.124210149E-2
2.359493422E0,-1.527161896E-1,1.543960720E-1,1.512653977E-1
2.376160088E0,-2.559523284E-1,2.038761228E-1,2.037997693E-1
2.392826754E0,-2.755000293E-1,1.916588247E-1,2.233474404E-1
2.409493420E0,-2.266308367E-1,1.440113783E-1,2.245691717E-1
2.426160086E0,-1.954767257E-1,1.232419685E-1,1.940259188E-1
2.442826752E0,-1.881463528E-1,1.379027218E-1,1.836412251E-1
2.459493418E0,-1.649334878E-1,1.452330947E-1,1.909715980E-1
2.476160084E0,-1.233946830E-1,1.366809905E-1,1.891390085E-1
2.492826750E0,-9.712749720E-2,1.128572673E-1,1.805869043E-1
2.509493416E0,-1.044578776E-1,8.659008145E-2,1.830303669E-1
2.526160082E0,-7.391463965E-2,8.170316368E-2,1.469893306E-1
2.542826748E0,-1.954767294E-2,7.864884287E-2,9.750928730E-2
2.559493414E0,2.626718581E-2,1.024725661E-1,6.330086291E-2
2.576160080E0,4.337139800E-2,1.269071549E-1,5.597048625E-2
2.592826746E0,4.459312931E-2,1.360701323E-1,5.291616172E-2
2.609493412E0,5.131264031E-2,9.208786488E-2,5.047270283E-2
2.626160078E0,4.886918142E-2,2.733619884E-2,4.741837829E-2
2.642826744E0,2.504545636E-2,8.399390616E-3,3.581194952E-2
2.659493410E0,9.162971750E-3,2.916879393E-2,3.581194952E-2
2.676160076E0,5.497782957E-3,5.299251899E-2,4.864010960E-2
2.692826742E0,3.665188793E-3,7.254019380E-2,7.063124329E-2
2.709493408E0,3.054323839E-3,6.276635826E-2,8.407026529E-2
2.726160074E0,-1.282816008E-2,5.787943676E-2,7.796161622E-2
2.742826740E0,-3.176496923E-2,6.643154472E-2,5.291616172E-2
2.759493406E0,-2.015853859E-2,6.032289565E-2,3.642281145E-2
2.776160072E0,8.552107029E-3,1.817322709E-2,4.375318810E-2
2.792826738E0,2.809977904E-2,-5.329795182E-2,5.108356848E-2
2.809493404E0,4.642572254E-2,-9.666935354E-2,6.452259421E-2
2.826160070E0,2.443459071E-2,-6.307178736E-2,6.330086291E-2
2.842826736E0,-1.282816008E-2,2.428187430E-2,4.253146052E-2
2.859493402E0,-1.343902480E-2,6.948586553E-2,2.298378758E-2
2.876160068E0,-3.665188793E-3,5.360338464E-2,8.323032409E-3
2.892826734E0,-1.343902480E-2,4.505127668E-2,-5.726857111E-3
2.909493400E0,-1.710421406E-2,2.428187430E-2,-2.832885459E-2
2.926160066E0,9.162971750E-3,-1.114828233E-2,-3.871355578E-2
2.942826732E0,2.199113183E-2,-3.375028074E-2,-3.688096255E-2
2.959493398E0,3.604102135E-2,-2.580903657E-2,-3.932442144E-2
2.976160064E0,3.909534588E-2,-2.580903657E-2,-2.955058403E-2
2.992826730E0,1.588248461E-2,-1.374445739E-3,-2.710712515E-2
3.009493396E0,2.443459118E-3,1.572976820E-2,-2.588539571E-2
3.026160062E0,1.404988952E-2,1.023198478E-2,-1.550069358E-2
3.042826728E0,6.108647678E-3,-1.374445739E-3,-8.170315996E-3
3.059493394E0,-6.719512399E-3,1.634063199E-2,-1.305723470E-2
3.076160060E0,6.719512399E-3,-2.596175298E-3,-2.099847607E-2
3.092826726E0,3.054323979E-2,-1.420260593E-2,-1.611155830E-2
3.109493392E0,1.954767294E-2,1.328630932E-2,-1.366809942E-2
3.126160058E0,-9.773836471E-3,2.122755162E-2,-8.170315996E-3
3.142826724E0,-2.260199748E-2,2.489273995E-2,-3.894262947E-3
3.159493390E0,-3.115410358E-2,2.855792828E-2,-5.726857111E-3
3.176160056E0,-3.787361458E-2,1.817322709E-2,-2.527453005E-2
3.192826722E0,-4.337139800E-2,2.733619884E-2,-3.688096255E-2
3.209493388E0,-4.092793912E-2,4.810560122E-2,-4.237874225E-2
3.226160054E0,-2.076940238E-2,5.482511222E-2,-4.298960790E-2
3.242826720E0,7.330377586E-3,6.520981342E-2,-3.993528336E-2
3.259493386E0,1.710421406E-2,5.238165334E-2,-2.955058403E-2
3.276160052E0,2.076940238E-2,2.855792828E-2,-2.893971838E-2
3.292826718E0,1.954767294E-2,-5.650499370E-3,-2.955058403E-2
3.309493384E0,1.221729559E-3,-3.802633286E-2,-1.672242396E-2
3.326160050E0,-2.687804960E-2,-4.352411628E-2,2.214384731E-3
3.342826716E0,-3.604102135E-2,-7.635809598E-4,1.198822167E-2
3.359493382E0,-3.970621154E-2,5.787943676E-2,1.259908639E-2
3.376160048E0,-3.054323979E-2,6.459894776E-2,8.323032409E-3
3.392826714E0,-1.343902480E-2,2.061668597E-2,1.603520010E-3
3.409493380E0,-9.773836471E-3,-2.031125315E-2,-8.399390499E-4
3.426160046E0,-2.443459118E-3,-3.130681813E-2,-3.283398226E-3
3.442826712E0,-6.108647794E-4,-1.053741761E-2,-8.170315996E-3
3.459493378E0,-1.893680729E-2,2.244928107E-2,-5.726857111E-3
3.476160044E0,-2.687804960E-2,3.039052337E-2,-3.894262947E-3
3.492826710E0,-2.809977904E-2,2.489273995E-2,-2.290742996E-4
3.509493376E0,-2.565632015E-2,1.572976820E-2,-2.290742996E-4
3.526160042E0,-7.941242307E-3,-1.603520103E-2,2.825249685E-3
3.542826708E0,-7.941242307E-3,-3.741546720E-2,1.076649129E-2
3.559493374E0,-2.809977904E-2,-9.315688163E-3,1.137735695E-2
3.576160040E0,-3.543015569E-2,2.855792828E-2,5.879573524E-3
3.592826706E0,-2.504545636E-2,3.588830680E-2,3.817904799E-4
3.609493372E0,-2.015853859E-2,1.695149764E-2,-4.505127668E-3
3.626160038E0,-2.260199748E-2,-1.175914705E-2,-1.000291109E-2
3.642826704E0,-2.138026804E-2,-2.580903657E-2,-1.366809942E-2
3.659493370E0,-2.138026804E-2,-5.650499370E-3,-7.559451740E-3
3.676160036E0,-3.054323979E-2,2.000582218E-2,-5.115992390E-3
3.692826702E0,-2.687804960E-2,2.244928107E-2,-5.115992390E-3
3.709493368E0,-1.404988952E-2,2.290742937E-3,-3.894262947E-3
3.726160034E0,-8.552107029E-3,-8.704823442E-3,-8.170315996E-3
3.742826700E0,-8.552107029E-3,-1.527161949E-4,-9.392046370E-3
3.759493366E0,-8.552107029E-3,1.023198478E-2,-1.183550525E-2
3.776160032E0,-1.466075517E-2,1.389717404E-2,-1.611155830E-2
3.792826698E0,-1.588248461E-2,5.955931731E-3,-1.611155830E-2
3.809493364E0,-7.330377586E-3,-1.237001177E-2,-2.290742996E-4
3.826160030E0,-1.649334840E-2,-8.093958721E-3,5.268708803E-3
3.842826696E0,-2.443459071E-2,5.345067009E-3,2.214384731E-3
3.859493362E0,-1.588248461E-2,5.345067009E-3,-4.505127668E-3
3.876160028E0,-1.527161989E-2,-3.207040019E-3,3.436114406E-3
3.892826694E0,-3.176496923E-2,2.901607659E-3,6.490438245E-3
3.909493360E0,-4.276053607E-2,2.550360374E-2,-6.948587019E-3
3.926160026E0,-3.420842811E-2,2.733619884E-2,-7.559451740E-3
3.942826692E0,-6.108647678E-3,4.123337101E-3,-2.061668551E-3
3.959493358E0,9.773836471E-3,-2.031125315E-2,8.323032409E-3
3.976160024E0,-3.054323839E-3,-2.519817278E-2,1.748600416E-2
3.992826690E0,-2.138026804E-2,-1.359174121E-2,2.970330045E-2
4.009493356E0,-4.337139800E-2,1.572976820E-2,2.664897591E-2
4.026160022E0,-5.864302069E-2,4.566214234E-2,2.115119249E-2
4.042826688E0,-3.787361458E-2,4.199695215E-2,1.382081583E-2
4.059493354E0,-1.038470119E-2,1.145371422E-2,7.712167688E-3
4.076160020E0,6.108647678E-3,1.679878100E-3,9.544761851E-3
4.092826686E0,1.343902480E-2,-9.315688163E-3,5.268708803E-3
4.109493352E0,1.466075517E-2,-2.703076601E-2,5.879573524E-3
4.126160018E0,1.160643063E-2,-2.031125315E-2,2.054032870E-2
4.142826684E0,2.443459118E-3,2.901607659E-3,3.031416424E-2
4.159493350E0,-1.160643063E-2,2.000582218E-2,3.764454275E-2
4.176160016E0,-2.260199748E-2,1.634063199E-2,4.619665071E-2
4.192826682E0,-1.893680729E-2,2.061668597E-2,4.802924395E-2
4.209493348E0,-1.221729536E-2,-1.298087649E-2,5.108356848E-2
4.226160014E0,-2.015853859E-2,-3.497200832E-2,5.047270283E-2
4.242826680E0,-2.687804960E-2,-3.069595434E-2,4.375318810E-2
4.259493346E0,-3.359756246E-2,-2.153298259E-2,4.008800164E-2
4.276160012E0,-3.115410358E-2,3.512472380E-3,3.703367710E-2
4.292826678E0,-1.404988952E-2,1.450803876E-2,3.764454275E-2
4.309493344E0,-3.054323839E-3,7.177661173E-3,3.703367710E-2
4.326160010E0,-1.221729536E-2,9.621120058E-3,3.092502989E-2
4.342826676E0,-1.282816008E-2,4.734201822E-3,2.237292193E-2
4.359493342E0,0.000000000E0,-1.847865991E-2,3.153589368E-2
4.376160008E0,2.443459118E-3,-3.252854943E-2,4.008800164E-2
4.392826674E0,0.000000000E0,-1.664606482E-2,4.375318810E-2
4.409493340E0,-4.276053514E-3,1.069013379E-3,4.192059487E-2
4.426160006E0,-7.941242307E-3,3.039052337E-2,3.703367710E-2
4.442826672E0,-1.527161989E-2,6.093376130E-2,2.664897591E-2
4.459493338E0,-2.260199748E-2,8.720094711E-2,1.565340906E-2
4.476160004E0,-2.076940238E-2,7.559451461E-2,1.504254527E-2
4.492826670E0,-1.893680729E-2,3.894263133E-2,1.931859925E-2
4.509493336E0,-2.626718581E-2,3.512472380E-3,2.115119249E-2
4.526160002E0,-2.809977904E-2,-3.069595434E-2,2.298378758E-2
4.542826668E0,-1.893680729E-2,-5.635227636E-2,2.176205814E-2
4.559493334E0,-1.221729536E-2,-4.596757516E-2,2.176205814E-2
4.576160000E0,-2.504545636E-2,-2.596175298E-3,2.909243479E-2
4.592826666E0,-3.543015569E-2,2.611446939E-2,2.787070535E-2
4.609493332E0,-5.070177838E-2,2.611446939E-2,2.787070535E-2
4.626159998E0,-4.092793912E-2,-1.175914705E-2,2.176205814E-2
4.642826664E0,-2.565632015E-2,-5.513054505E-2,2.176205814E-2
4.659493330E0,-3.359756246E-2,-6.612611562E-2,2.481638081E-2
4.676159996E0,-4.459312931E-2,-3.436114267E-2,2.481638081E-2
4.692826662E0,-4.764745384E-2,2.977965772E-2,1.565340906E-2
4.709493328E0,-4.092793912E-2,5.604684353E-2,-5.115992390E-3
4.726159994E0,-3.115410358E-2,3.222311661E-2,-2.038761228E-2
4.742826660E0,-4.886918236E-3,-1.664606482E-2,-2.038761228E-2
4.759493326E0,1.221729536E-2,-3.191768378E-2,-1.305723470E-2
4.776159992E0,6.719512399E-3,-2.031125315E-2,-8.170315996E-3
4.792826658E0,-6.108647678E-3,6.566796452E-3,-5.115992390E-3
4.809493324E0,2.443459118E-3,1.389717404E-2,-1.450803829E-3
4.826159990E0,1.404988952E-2,-1.374445739E-3,-6.337722298E-3
4.842826656E0,2.138026804E-2,-8.093958721E-3,-1.611155830E-2
4.859493322E0,2.321286127E-2,-1.603520103E-2,-2.588539571E-2
4.876159988E0,2.748891525E-2,-1.908952370E-2,-2.832885459E-2
4.892826654E0,2.626718581E-2,-9.315688163E-3,-2.893971838E-2
4.909493320E0,2.015853859E-2,1.695149764E-2,-3.627009690E-2
4.926159986E0,2.504545636E-2,2.244928107E-2,-5.154171586E-2
4.942826652E0,4.092793912E-2,1.084284950E-2,-6.986765563E-2
4.959493318E0,5.131264031E-2,1.069013379E-3,-7.536543906E-2
4.976159984E0,4.337139800E-2,-1.786779426E-2,-7.170025259E-2
4.992826650E0,6.108647794E-4,-7.483093534E-3,-5.520690605E-2
5.009493316E0,-8.368847519E-2,3.688096106E-1,-8.086322248E-2
5.026159982E0,-1.985310465E-1,8.972076178E-1,-1.205694377E-1
5.042826648E0,-2.571740746E-1,1.225242019E0,-1.236237586E-1
5.059493314E0,-1.802051067E-1,1.120784163E0,-1.427896414E-2
5.076159980E0,-7.024945319E-2,8.013018966E-1,1.463784724E-1
5.092826646E0,-4.886918236E-3,4.641045034E-1,3.192532063E-1
5.109493312E0,-9.957095981E-2,1.812741160E-1,4.872410297E-1
5.126159978E0,-3.750709891E-1,1.831067204E-1,7.205913663E-1
5.142826644E0,-7.305942774E-1,4.005745649E-1,9.533308744E-1
5.159493310E0,-8.411607742E-1,3.480401933E-1,6.741656661E-1
5.176159976E0,-6.462949514E-1,-1.516471803E-1,-1.572213173E-1
5.192826642E0,-4.422661066E-1,-6.678279042E-1,-1.063133836E0
5.209493308E0,-2.583957911E-1,-9.659299254E-1,-1.672165990E0
5.226159974E0,-1.698204130E-1,-1.094211578E0,-1.954385519E0
5.242826640E0,6.230820715E-2,-7.264709473E-1,-1.824271321E0
5.259493306E0,4.208858311E-1,-1.650862098E-1,-1.352683663E0
5.276159972E0,7.037162185E-1,4.030180275E-1,-9.232457280E-1
5.292826638E0,8.332195878E-1,6.663007736E-1,-5.787180066E-1
5.309493304E0,8.332195878E-1,5.331322551E-1,-4.046215713E-1
5.326159970E0,7.531962991E-1,2.747364342E-1,-3.111592531E-1
5.342826636E0,6.175842881E-1,2.489273995E-2,-2.201403975E-1
5.359493302E0,4.642572403E-1,-1.736383140E-1,-1.205694377E-1
5.376159968E0,3.219257295E-1,-3.104720116E-1,-3.138317913E-2
5.392826634E0,1.631008983E-1,-3.892735839E-1,3.817904799E-4
5.409493300E0,-9.773836471E-3,-3.788888752E-1,-5.726857111E-3
5.426159966E0,-2.089157552E-1,-2.579376400E-1,-2.588539571E-2
5.442826632E0,-3.659079969E-1,-1.235474050E-1,-5.337430909E-2
5.459493298E0,-4.306596816E-1,-1.229365394E-1,-8.697187155E-2
5.476159964E0,-4.172206521E-1,-1.473711282E-1,-1.187368408E-1
5.492826630E0,-3.622428179E-1,-1.473711282E-1,-1.169042438E-1
5.509493296E0,-2.645044625E-1,-3.436114267E-2,-7.231111825E-2
5.526159962E0,-1.319467872E-1,1.110246703E-1,-3.810269013E-2
5.542826628E0,2.443459118E-3,1.434005052E-1,-2.527453005E-2
5.559493294E0,8.246674389E-2,1.018617004E-1,-1.366809942E-2
5.576159960E0,1.160643101E-1,1.084284950E-2,9.926552884E-4
5.592826626E0,1.136208475E-1,-4.352411628E-2,9.926552884E-4
5.609493292E0,7.696896046E-2,-4.169152305E-2,-1.122464053E-2
5.626159958E0,2.260199748E-2,-1.985310577E-3,-1.916588284E-2
5.642826624E0,-1.282816008E-2,1.817322709E-2,-2.893971838E-2
5.659493290E0,-1.832594350E-2,-7.635809598E-4,-2.771798894E-2
5.676159956E0,-1.710421406E-2,-2.275471389E-2,-7.559451740E-3
5.692826622E0,-2.199113183E-2,-1.908952370E-2,5.268708803E-3
5.709493288E0,-2.626718581E-2,1.145371422E-2,7.101302966E-3
5.726159954E0,-3.054323979E-2,3.039052337E-2,9.544761851E-3
5.742826620E0,-2.504545636E-2,4.749473557E-2,1.809686981E-2
5.759493286E0,3.665188793E-3,3.222311661E-2,3.520108387E-2
5.776159952E0,3.848448023E-2,-1.664606482E-2,4.864010960E-2
5.792826618E0,5.253437161E-2,-6.734783947E-2,6.024653837E-2
5.809493284E0,5.742128938E-2,-9.605848789E-2,5.597048625E-2
5.826159950E0,6.597339362E-2,-1.278234571E-1,6.085740402E-2
5.842826616E0,6.108647957E-2,-1.565341055E-1,6.940951198E-2
5.859493282E0,4.642572254E-2,-1.571449637E-1,7.735075057E-2
5.876159948E0,2.626718581E-2,-1.632536054E-1,8.895718306E-2
5.892826614E0,1.099556591E-2,-1.510363221E-1,1.237764731E-1
5.909493280E0,7.574722916E-2,-1.559232324E-1,1.256090701E-1
5.926159946E0,7.024945319E-2,-1.180496216E-1,3.052033186E-1
5.942826612E0,-7.941242307E-2,-1.540906429E-1,6.222421527E-1
5.959493278E0,-2.638935745E-1,-1.724165827E-1,8.342122436E-1
5.976159944E0,-3.390299380E-1,-1.302669197E-1,9.649372697E-1
5.992826610E0,-3.567450345E-1,5.971203372E-2,1.208061457E0
6.009493276E0,-4.056142271E-1,2.863428593E-1,1.578856349E0
6.026159942E0,-4.893026948E-1,4.054614902E-1,1.972864151E0
6.042826608E0,-5.729911923E-1,3.681987524E-1,2.263025045E0
6.059493274E0,-6.224712133E-1,4.103484154E-1,2.546466112E0
6.076159940E0,-6.163625717E-1,3.022253513E-1,2.766377449E0
6.092826606E0,-5.259546041E-1,4.505127668E-2,2.873278856E0
6.109493272E0,-3.946186602E-1,-8.689551800E-2,2.985067129E0
6.126159938E0,-3.665188551E-1,-8.567378670E-2,3.066312075E0
6.142826604E0,-4.343248606E-1,3.100138716E-2,3.083416224E0
6.159493270E0,-4.343248606E-1,-6.979130208E-2,3.062646866E0
6.176159936E0,-3.048215210E-1,1.391244531E-1,2.906265497E0
6.192826602E0,-9.712749720E-2,-4.046979174E-2,2.728503942E0
6.209493268E0,1.704312712E-1,3.283398226E-2,2.483547211E0
6.226159934E0,-5.558869615E-2,1.067028046E0,2.495153666E0
6.242826600E0,-2.565632164E-1,8.269581795E-1,2.244088173E0
6.259493266E0,-1.417206228E-1,8.416189551E-1,1.740124702E0
6.276159932E0,-5.448913574E-1,9.075923562E-1,1.127427340E0
6.292826598E0,-5.748237371E-1,1.175761938E0,9.453896284E-1
6.309493264E0,-2.834412456E-1,3.547597229E-1,8.946878314E-1
6.326159930E0,1.166751757E-1,-2.506072819E-1,5.709294677E-1
6.342826596E0,2.254091054E-1,-4.405862093E-1,6.869937778E-1
6.359493262E0,3.408625424E-1,4.016435891E-2,1.233106971E0
6.376159928E0,1.765399277E-1,6.858484149E-1,2.453614712E0
6.392826594E0,-3.219257295E-1,9.228639603E-1,2.514701128E0
6.409493260E0,-6.774490476E-1,9.057597518E-1,2.371758938E0
6.426159926E0,-5.070177913E-1,8.422298431E-1,1.877569199E0
6.442826592E0,-1.131932378E0,6.656898856E-1,1.768224478E0
6.459493258E0,-2.014021158E0,6.382009983E-1,1.729129076E0
6.476159924E0,-2.008523464E0,7.927497625E-1,2.055330992E0
6.492826590E0,-2.317010164E0,8.831577301E-1,2.506149054E0
6.509493256E0,-2.613890409E0,7.328850031E-1,2.365039349E0
6.526159922E0,-2.816086531E0,6.406444311E-1,1.984470606E0
6.542826588E0,-2.722013474E0,5.862774849E-1,1.809152365E0
6.559493254E0,-2.401309490E0,7.090612650E-1,1.808541536E0
6.576159920E0,-2.247371435E0,8.379537463E-1,1.863519311E0
6.592826586E0,-2.166737318E0,6.430879235E-1,1.817704558E0
6.609493252E0,-2.039066553E0,4.549415410E-1,1.600236654E0
6.626159918E0,-1.862526655E0,4.335612655E-1,1.494557023E0
6.642826584E0,-1.691484571E0,5.813905597E-1,1.548313141E0
6.659493250E0,-1.782503486E0,8.122974634E-1,1.693088055E0
6.676159916E0,-2.012188673E0,1.111621141E0,1.863519311E0
6.692826582E0,-2.279747248E0,1.420107841E0,1.983859777E0
6.709493248E0,-2.593121052E0,1.743866205E0,2.102978468E0
6.726159914E0,-2.880838394E0,1.923460484E0,2.277685642E0
6.742826580E0,-3.041495800E0,2.089615583E0,2.303952932E0
6.759493246E0,-2.955974579E0,2.104887247E0,2.241644621E0
6.776159912E0,-2.641990185E0,2.038303137E0,2.025398493E0
6.792826578E0,-2.172846079E0,1.785405040E0,1.760283232E0
6.809493244E0,-1.784946918E0,1.415831804E0,1.540982723E0
6.826159910E0,-1.549763918E0,1.106734276E0,1.340619087E0
6.842826576E0,-1.389106512E0,8.599448800E-1,1.191568136E0
6.859493242E0,-1.333517790E0,6.736311316E-1,1.132925034E0
6.876159908E0,-1.375667453E0,6.412553191E-1,1.075503826E0
6.892826574E0,-1.662773967E0,8.300125003E-1,1.087721109E0
6.909493240E0,-1.842979074E0,1.090851784E0,1.336953878E0
6.926159906E0,-1.830761790E0,1.449429393E0,1.714468360E0
6.942826572E0,-1.453247309E0,1.670562506E0,1.826867461E0
6.959493238E0,-1.315802693E0,1.497687697E0,1.625282049E0
6.976159904E0,-1.757457972E0,1.176983714E0,1.319238901E0
6.992826570E0,-2.524093151E0,3.846921027E-1,1.170187831E0
7.009493236E0,-2.782489061E0,1.079703495E-1,1.295415163E0
7.026159902E0,-2.592510223E0,6.803506613E-1,1.414533734E0
7.042826568E0,-2.184452534E0,1.236848474E0,1.493946195E0
7.059493234E0,-1.765399218E0,1.548389554E0,1.618562579E0
7.076159900E0,-1.061072111E0,2.337626696E0,1.506774306E0
7.092826566E0,-4.355465770E-1,2.714530468E0,1.522656798E0
7.109493232E0,-3.341430426E-1,2.730412960E0,1.449963927E0
7.126159898E0,-9.071341753E-1,2.591746569E0,1.023580313E0
7.142826564E0,-1.541822672E0,1.701716542E0,1.088942885E0
7.159493230E0,-2.158185244E0,1.471420527E0,1.743789911E0
7.176159896E0,-1.994473457E0,1.545946002E0,2.091982841E0
7.192826562E0,-1.266322732E0,1.513570189E0,1.853134632E0
7.209493228E0,-3.695732057E-1,1.238681078E0,1.038851857E0
7.226159894E0,3.952295184E-1,6.534726024E-1,2.386190593E-1
7.242826560E0,1.004872561E0,4.512763619E-1,-4.773144722E-1
7.259493226E0,1.260214090E0,1.118951559E0,-1.249447584E0
7.276159892E0,9.340122342E-1,1.638797522E0,-1.626351118E0
7.292826558E0,4.221075773E-1,1.410944939E0,-1.634903193E0
7.309493224E0,5.674933791E-1,-4.448622763E-1,-5.420661569E-1
7.326159890E0,1.141095400E0,-7.783944607E-1,9.203441739E-1
7.342826556E0,1.955989003E0,1.128572673E-1,1.390099168E0
7.359493222E0,2.218660831E0,3.987419903E-1,1.420031548E0
7.376159888E0,1.828318238E0,1.678351015E-1,1.220278740E0
7.392826554E0,1.266322732E0,-1.449276656E-1,1.123151302E0
7.409493220E0,1.123380303E0,-5.322159529E-1,1.340008259E0
7.426159886E0,1.375667453E0,-8.657481074E-1,1.498833060E0
7.442826552E0,1.879020095E0,-1.271362305E0,1.640553713E0
7.459493218E0,2.169180870E0,-1.724624038E0,1.938655734E0
7.476159884E0,2.583957911E0,-1.932928920E0,1.876347542E0
7.492826550E0,3.055545568E0,-2.332434416E0,1.587408543E0
7.509493216E0,3.370751858E0,-2.648251534E0,1.599625826E0
7.526159882E0,3.478874922E0,-2.570671797E0,1.993633509E0
7.542826548E0,3.446499109E0,-1.978743792E0,2.772486210E0
7.559493214E0,3.349371672E0,-1.308625102E0,3.642357588E0
7.576159880E0,3.103803873E0,-5.542070866E-1,4.225122452E0
7.592826546E0,2.359159708E0,2.875646055E-1,4.402273178E0
7.609493212E0,1.415373683E0,9.766200781E-1,4.155484200E0
7.626159878E0,7.843503952E-1,1.525176644E0,3.666181326E0
7.642826544E0,4.825831652E-1,1.545335174E0,3.544619322E0
7.659493210E0,3.744601011E-1,1.491579056E0,3.468872070E0
7.676159876E0,-5.619955808E-2,1.658956051E0,2.903211117E0
7.692826542E0,-5.974257588E-1,1.975994825E0,2.019289970E0
7.709493208E0,-6.469057798E-1,2.277761936E0,1.368108034E0
7.726159874E0,-3.170388341E-1,2.924667835E0,1.228219986E0
7.742826540E0,-1.472184062E-1,3.171457291E0,1.286862969E0
7.759493206E0,-2.223547846E-1,3.057836294E0,1.165911794E0
7.776159872E0,-2.761108875E-1,2.475071430E0,7.205913663E-1
7.792826538E0,-4.563159943E-1,1.900858521E0,1.964693815E-1
7.809493204E0,-1.233335972E0,1.602756500E0,-1.889862865E-1
7.826159870E0,-2.386648655E0,1.347414970E0,-2.421315312E-1
7.842826536E0,-2.467893600E0,1.518457174E0,-9.063705802E-2
7.859493202E0,-1.932165265E0,1.553887248E0,7.857248187E-2
7.876159868E0,-1.062293887E0,1.294269800E0,-1.376736462E-1
7.892826534E0,6.108647678E-3,6.852375865E-1,-7.564796805E-1
7.909493200E0,8.118392825E-1,-1.481347065E-2,-1.225012898E0
7.926159866E0,9.749401808E-1,-5.554288030E-1,-1.272049546E0
7.942826532E0,9.040798545E-1,-7.246383429E-1,-1.005101681E0
7.959493198E0,1.291978955E0,-7.319687009E-1,-7.033344507E-1
7.976159864E0,1.867413640E0,-8.113811612E-1,-6.960040331E-1
7.992826530E0,2.420857191E0,-9.873101711E-1,-1.130939722E0
8.009493196E0,2.328616619E0,-1.041677117E0,-1.246393204E0
8.026159862E0,9.712749720E-1,-6.073523164E-1,-1.016097188E0
8.042826528E0,-7.232639194E-1,-1.327103674E-1,-7.167734504E-1
8.059493194E0,-1.959043384E0,-2.109010667E-1,-4.339430630E-1
8.076159860E0,-2.033568859E0,-5.230529904E-1,-2.250273079E-1
8.092826526E0,-1.367726207E0,-9.818124175E-1,-5.512291193E-1
8.109493192E0,-5.864301920E-1,-1.187062979E0,-8.639918566E-1
8.126159858E0,7.183769941E-1,-1.293353438E0,-1.003879905E0
8.142826524E0,1.711032271E0,-1.711184978E0,-9.800561666E-1
8.159493190E0,1.693928003E0,-2.779587507E0,-1.348407626E0
8.176159856E0,1.447749496E0,-2.890153885E0,-1.370398760E0
8.192826522E0,1.043967962E0,-2.661079645E0,-1.322140455E0
8.209493188E0,4.159989059E-1,-2.176053047E0,-1.402774572E0
8.226159854E0,6.316341758E-1,-1.682474375E0,-1.383226991E0
8.242826520E0,1.044578791E0,-1.036790252E0,-1.088790059E0
8.259493186E0,1.241277218E0,-3.660607338E-1,-7.503710389E-1
8.276159852E0,9.975422025E-1,-7.539598346E-1,-4.968621433E-1
8.292826518E0,5.766563416E-1,-1.443015337E0,-1.022434905E-1
8.309493184E0,6.786707640E-1,-2.064264774E0,-2.580140233E-1
8.326159850E0,7.990111113E-1,-2.149785757E0,-3.545306325E-1
8.342826516E0,1.250440240E0,-1.512042999E0,3.351356983E-1
8.359493182E0,1.536324978E0,-9.298889041E-1,1.688201189E0
8.376159848E0,2.415359259E0,3.572031856E-1,2.578231096E0
8.392826514E0,2.731787205E0,1.844048023E0,2.990564823E0
8.409493180E0,2.320675373E0,2.682765484E0,3.259956360E0
8.426159846E0,8.881973624E-1,3.148244381E0,3.209865332E0
8.442826512E0,6.719512399E-3,3.278358459E0,3.167715788E0
8.459493178E0,-3.848448023E-2,2.718195438E0,3.311268806E0
8.476159844E0,-2.706131041E-1,1.236237645E0,3.670457363E0
8.492826510E0,-1.160032272E0,-8.413135409E-1,4.113945007E0
8.509493176E0,-2.034179688E0,-2.628093004E0,4.445644855E0
8.526159842E0,-2.001803875E0,-3.835772753E0,3.727878571E0
8.542826508E0,-1.241277218E0,-4.516275883E0,1.824424028E0
8.559493174E0,-5.485565662E-1,-4.598742962E0,8.653663397E-1
8.576159840E0,6.108647794E-4,-5.099651814E0,1.519602537E0
8.592826506E0,8.918625712E-1,-6.133234978E0,1.958814263E0
8.609493172E0,3.251633167E0,-3.479027748E0,1.172020435E0
8.626159838E0,4.390895844E0,-1.795484304E0,-1.052978188E-1
8.642826504E0,4.596146584E0,-1.209664941E0,5.474875495E-2
8.659493170E0,4.656011581E0,-7.759509683E-1,4.347066581E-1
8.676159836E0,3.992612123E0,-1.729510903E0,9.747111201E-1
8.692826502E0,2.995069981E0,-4.067901134E0,9.172898531E-1
8.709493168E0,1.742186308E0,-3.935954571E0,6.540070772E-1
8.726159834E0,2.189339399E0,-3.381900072E0,1.385212302E0
8.742826500E0,2.789208651E0,-1.049618363E0,2.367482901E0
8.759493166E0,2.949866056E0,1.277776361E0,3.049207926E0
8.776159832E0,2.695746183E0,2.861137867E0,3.383350849E0
8.792826498E0,2.139859438E0,3.351662397E0,3.434663534E0
8.809493164E0,1.705534458E0,3.136637926E0,3.486587048E0
8.826159830E0,1.368947983E0,2.754847527E0,3.492695808E0
8.842826496E0,1.051909208E0,2.269209862E0,3.102353096E0
8.859493162E0,3.921751976E-1,6.540834904E-1,1.040684462E0
8.876159828E0,-9.321796298E-1,-2.060599566E0,-2.274478674E0
8.892826494E0,2.296851575E-1,-2.750418782E-1,-3.303174973E0
8.909493160E0,-5.070177913E-1,2.032805204E0,-1.927507401E0
8.926159826E0,-1.085506678E0,2.043190002E0,-9.263001084E-1
8.942826492E0,-7.079922557E-1,7.133373618E-1,-3.136027157E-1
8.959493158E0,-3.475820720E-1,6.815723777E-1,1.488219351E-1
8.976159824E0,-6.664534807E-1,1.498298645E0,3.149771392E-1
8.992826490E0,-8.319978118E-1,1.367573500E0,-3.478111327E-1
9.009493156E0,-8.313869834E-1,7.383828163E-1,-9.415717125E-1
9.026159822E0,-3.707949221E-1,2.338084877E-1,-6.831759214E-1
9.042826488E0,3.200931549E-1,1.910479665E-1,-1.877645552E-1
9.059493154E0,6.798924804E-1,4.708240330E-1,2.355647236E-1
9.076159820E0,4.929678738E-1,5.893318057E-1,3.314704895E-1
9.092826486E0,1.838703007E-1,3.639226854E-1,2.123518735E-1
9.109493152E0,-9.957095981E-2,-2.457203567E-1,-1.150716543E-1
9.126159818E0,-2.486219704E-1,-6.067414284E-1,-2.757290900E-1
9.142826484E0,-1.765399277E-1,-5.175551772E-1,-1.975383908E-1
9.159493150E0,-2.321286127E-2,-4.841103405E-2,-1.950949430E-1
9.176159816E0,1.710421406E-2,2.942841053E-1,-3.227656782E-1
9.192826482E0,1.038470119E-2,3.315468729E-1,-4.241692424E-1
9.209493148E0,5.497783050E-2,2.741255760E-1,-4.486038089E-1
9.226159814E0,1.411097646E-1,2.026543915E-1,-4.113410711E-1
9.242826480E0,2.101374865E-1,1.269071549E-1,-3.282634616E-1
9.259493146E0,1.765399277E-1,5.299251899E-2,-1.847102344E-1
9.276159812E0,7.941242307E-3,5.421425030E-2,-3.894262947E-3
9.292826478E0,-1.514944583E-1,2.118173689E-1,1.005636156E-1
9.309493144E0,-1.893680841E-1,3.962985277E-1,8.956804872E-2
9.326159810E0,-1.643226296E-1,4.769326746E-1,2.237292193E-2
9.342826476E0,-9.651663154E-2,5.484038591E-1,-4.505127668E-3
9.359493142E0,-2.138026804E-2,6.259836555E-1,2.214384731E-3
9.376159808E0,3.054323839E-3,5.795579553E-1,2.664897591E-2
9.392826474E0,-2.993237413E-2,3.846921027E-1,2.909243479E-2
9.409493140E0,-5.253437161E-2,2.386954129E-1,2.603811212E-2
9.426159806E0,-9.590577334E-2,1.586721241E-1,2.725984156E-2
9.442826472E0,-1.386663020E-1,7.192932814E-2,5.719221383E-2
9.459493138E0,-1.301141977E-1,9.025526792E-2,4.619665071E-2
9.476159804E0,-8.307760954E-2,2.240346521E-1,9.140064567E-2
9.492826470E0,-3.787361458E-2,2.643517256E-1,1.738673896E-1
9.509493136E0,-2.809977904E-2,1.049160287E-1,2.294560820E-1
9.526159802E0,-3.054323839E-3,-1.412624866E-1,3.045924604E-1
9.542826468E0,6.352993846E-2,-4.393644929E-1,3.522399068E-1
9.559493134E0,1.551596522E-1,-6.549997330E-1,3.717875779E-1
9.576159800E0,2.565632164E-1,-7.790052891E-1,3.840048611E-1
9.592826466E0,3.066541255E-1,-8.700241446E-1,3.559050858E-1
9.609493132E0,2.803869247E-1,-9.873101711E-1,3.302487731E-1
9.626159798E0,2.382372618E-1,-1.152854562E0,2.899316847E-1
9.642826464E0,2.535088956E-1,-1.202945471E0,1.604283601E-1
9.659493130E0,2.828303874E-1,-1.306181669E0,-1.244636998E-2
9.676159796E0,2.871064544E-1,-1.389259219E0,-2.588539571E-2
9.692826462E0,2.272416949E-1,-1.238986492E0,3.275762498E-2
9.709493128E0,9.712749720E-2,-1.094211578E0,7.735075057E-2
9.726159794E0,2.076940238E-2,-9.152281284E-1,1.237764731E-1
9.742826460E0,-3.665188793E-3,-7.368556261E-1,1.048396677E-1
9.759493126E0,1.160643063E-2,-6.739365458E-1,1.414915472E-1
9.776159792E0,7.086031139E-2,-6.476693749E-1,2.325104028E-1
9.792826458E0,5.619955808E-2,-6.214022040E-1,3.259727061E-1
9.809493124E0,-6.291907281E-2,-5.621483326E-1,3.717875779E-1
9.826159790E0,-2.443459183E-1,-5.566505194E-1,3.626246154E-1
9.842826456E0,-4.410443604E-1,-6.495019794E-1,3.204749227E-1
9.859493122E0,-6.047561169E-1,-8.486438990E-1,1.879172772E-1
9.876159788E0,-8.087849617E-1,-9.634864926E-1,6.207913160E-2
9.892826454E0,-1.118493438E0,-1.003192663E0,-4.604393244E-2
9.909493120E0,-1.542433619E0,-8.944587708E-1,-2.012035847E-1
9.926159786E0,-2.364046812E0,-8.071050644E-1,-3.533089161E-1
9.942826452E0,-3.561341763E0,-6.397281289E-1,-4.754818678E-1
9.959493118E0,-4.623024464E0,3.724747896E-1,-3.520871997E-1
9.976159784E0,-4.798953533E0,2.564868450E0,-2.561814189E-1
9.992826450E0,-4.433045864E0,2.379776478E0,-2.763399482E-1
1.000949312E1,-4.226573467E0,-1.409417748E0,-1.333975941E-1
1.002615978E1,-4.026209831E0,-1.890168309E0,3.381900191E-1
1.004282645E1,-2.475834846E0,-1.587179422E0,5.684860349E-1
1.005949311E1,-5.949822664E-1,-2.463312149E-1,6.821069121E-1
1.007615978E1,3.805687428E-1,8.397863507E-1,6.839394569E-1
1.009282645E1,1.832594275E-1,5.856665969E-1,-1.550069358E-2
1.010949311E1,-1.252272725E-1,1.653916389E-1,-1.156596065E0
1.012615978E1,-4.276053607E-2,2.020435184E-1,-1.518838882E0
1.014282644E1,2.535088956E-1,7.803797722E-2,-1.249447584E0
1.015949311E1,4.685332775E-1,1.855501831E-1,-9.794453382E-1
1.017615978E1,7.739656568E-1,7.841976881E-1,-8.939242363E-1
1.019282644E1,1.205847025E0,1.174540281E0,-8.823178411E-1
1.020949311E1,1.526551127E0,1.239902735E0,-9.104176164E-1
1.022615977E1,1.550374866E0,8.532254100E-1,-9.971603751E-1
1.024282644E1,1.160643101E0,1.623373181E-1,-1.171256900E0
1.025949311E1,9.511164427E-1,-3.477347791E-1,-1.355127096E0
1.027615977E1,1.330463529E0,-7.564033270E-1,-1.346575022E0
1.029282644E1,1.725692987E0,-1.025794625E0,-1.190804482E0
1.030949310E1,2.297462463E0,9.576832652E-1,-7.112756968E-1
1.032615977E1,1.634674191E0,2.553261995E0,-7.882446647E-1
1.034282644E1,7.867938280E-1,2.901454926E0,-1.217071772E0
1.035949310E1,8.741474748E-1,4.335612655E-1,-1.403385520E0
1.037615977E1,9.297361970E-1,-1.126587391E0,-1.331303477E0
1.039282643E1,7.031053901E-1,-5.340485573E-1,-1.278158188E0
1.040949310E1,5.656607747E-1,9.595158696E-1,-1.107726932E0
1.042615977E1,5.778780580E-1,9.503529072E-1,-7.045561671E-1
1.044282643E1,5.955931544E-1,-3.123046160E-1,-2.977202237E-1
1.045949310E1,4.624246359E-1,-3.233001828E-1,-1.480583549E-1
1.047615976E1,3.591884971E-1,6.369792223E-1,-1.511126757E-1
1.049282643E1,2.840521336E-1,1.161712050E0,-3.007745445E-1
1.050949310E1,1.459966749E-1,6.644681692E-1,-4.186714590E-1
1.052615976E1,5.803215504E-2,2.490801066E-1,-2.519053519E-1
1.054282643E1,3.970621154E-2,-5.818486959E-2,5.879573524E-3
1.055949309E1,-1.221729536E-2,-2.512181401E-1,2.410625070E-1
1.057615976E1,-1.166751757E-1,-4.046979174E-2,3.161988854E-1
1.059282643E1,-1.789833754E-1,6.626355648E-1,2.373973280E-1
1.060949309E1,-1.600465775E-1,1.262504816E0,2.825249685E-3
1.062615976E1,-1.527161989E-2,1.564882874E0,-1.786015928E-1
1.064282642E1,2.522871494E-1,1.589317441E0,-2.134208828E-1
1.065949309E1,4.471530318E-1,1.542891741E0,-1.321758628E-1
1.067615976E1,5.418370366E-1,1.457370639E0,-1.902080178E-1
1.069282642E1,8.539889455E-1,7.927497625E-1,-4.571559429E-1
1.070949309E1,1.103832603E0,-5.193877816E-1,-6.868410707E-1
1.072615975E1,9.963204265E-1,-2.038608551E0,-6.813433170E-1
1.074282642E1,7.348703146E-1,-2.994000912E0,-4.394408464E-1
1.075949309E1,4.129445851E-1,-3.003774881E0,-1.987601221E-1
1.077615975E1,3.194822669E-1,-2.443001032E0,9.689842910E-2
1.079282642E1,2.638935745E-1,-1.532812476E0,3.088684976E-1
1.080949308E1,2.394589931E-1,-7.466294765E-1,5.128973126E-1
1.082615975E1,3.426951468E-1,-2.616028488E-1,8.177188635E-1
1.084282642E1,4.379900396E-1,-6.673697382E-2,1.063897371E0
1.085949308E1,5.131264329E-1,-1.473711282E-1,1.186070323E0
1.087615975E1,5.589412451E-1,-2.725984156E-1,1.123762131E0
1.089282641E1,6.273581386E-1,-2.860374451E-1,9.472221732E-1
1.090949308E1,7.617483735E-1,5.604684353E-2,9.032399058E-1
1.092615975E1,8.063415289E-1,1.318093419E0,1.151251078E0
1.094282641E1,6.352993846E-1,1.665064692E0,1.599625826E0
1.095949308E1,3.011563420E-1,1.677892804E0,2.068159103E0
1.097615974E1,-4.764745384E-2,2.196516991E0,2.248975039E0
1.099282641E1,-2.168570012E-1,1.635743141E0,2.335717916E0
1.100949308E1,-9.773836285E-2,1.239902735E0,2.322278738E0
1.102615974E1,2.834412456E-1,7.200568318E-1,2.134132385E0
1.104282641E1,8.503237963E-1,-4.900662601E-1,1.803043723E0
1.105949307E1,1.747073293E0,-3.562868834E-1,1.745622516E0
1.107615974E1,2.323118687E0,4.268417656E-1,1.666820884E0
1.109282641E1,2.284634352E0,1.025489211E0,1.253265500E0
1.110949307E1,1.614515662E0,1.329699874E0,8.232166767E-1
1.112615974E1,6.120865345E-1,3.816377819E-1,4.450913370E-1
1.114282640E1,-2.467893660E-1,-1.908494234E0,8.101594448E-2
1.115949307E1,-6.615665555E-1,-3.091128588E0,-2.207512558E-1
1.117615974E1,-6.774490476E-1,-2.725220442E0,-3.588066995E-1
1.119282640E1,-5.607738495E-1,-1.297629476E0,-4.302778840E-1
1.120949307E1,-5.925388336E-1,1.788306683E-1,-5.048033595E-1
1.122615973E1,-8.197805285E-1,7.640390992E-1,-6.697368622E-1
1.124282640E1,-1.131932378E0,1.073747516E0,-7.473167181E-1
1.125949307E1,-1.393382549E0,1.320536971E0,-6.391936541E-1
1.127615973E1,-1.486233950E0,1.476918340E0,-4.724275470E-1
1.129282640E1,-1.316413641E0,1.142164469E0,-3.881282210E-1
1.130949306E1,-9.083559513E-1,5.966621637E-1,-4.162279963E-1
1.132615973E1,-1.936441362E-1,2.918406427E-1,-5.573377609E-1
1.134282640E1,7.128791809E-1,2.698495090E-1,-6.562978625E-1
1.135949306E1,1.337182999E0,1.116355360E-1,-6.184242368E-1
1.137615973E1,1.544266105E0,-3.129154742E-1,-5.292379856E-1
1.139282639E1,1.607796073E0,-8.003855944E-1,-3.472002745E-1
1.140949306E1,1.104443550E0,-1.332448840E0,1.628718227E-1
1.142615973E1,-1.160643101E-1,-1.546862364E0,6.399571896E-1
1.144282639E1,-5.845975876E-1,-1.461952090E0,7.248674035E-1
1.145949306E1,-6.359102130E-1,-1.545029759E0,6.197986603E-1
1.147615972E1,-5.430588126E-1,-1.598174930E0,3.559050858E-1
1.149282639E1,-3.689623177E-1,-1.400254846E0,8.223766834E-2
1.150949306E1,-3.090975881E-1,-1.089324594E0,-2.160934173E-2
1.152615972E1,-3.732383847E-1,-7.435751557E-1,-2.268599123E-1
1.154282639E1,-4.208858311E-1,-2.866483033E-1,-6.141481996E-1
1.155949305E1,-2.046397030E-1,2.197586000E-1,-1.024649262E0
1.157615972E1,3.292561173E-1,6.766854525E-1,-1.280601621E0
1.159282639E1,7.947350740E-1,8.245147467E-1,-1.209741354E0
1.160949305E1,4.819723070E-1,-9.850194305E-2,-6.923388839E-1
1.162615972E1,-3.292561173E-1,-1.538921118E0,1.549305767E-1
1.164282638E1,-4.911352694E-1,-9.518800378E-1,5.745946765E-1
1.165949305E1,-3.597993553E-1,5.624537468E-1,5.635991096E-1
1.167615972E1,-2.559523284E-1,8.593340516E-1,5.055669546E-1
1.169282638E1,-1.099556610E-1,1.653916389E-1,5.104538798E-1
1.170949305E1,1.386663020E-1,-4.607447684E-1,4.096612036E-1
1.172615971E1,5.681042373E-2,-7.374665141E-1,2.783252597E-1
1.174282638E1,-1.020144150E-1,-6.256782413E-1,2.318995446E-1
1.175949305E1,4.886918236E-3,-5.609265566E-1,2.251800299E-1
1.177615971E1,2.443459183E-1,-6.397281289E-1,2.703840137E-1
1.179282638E1,3.335321844E-1,-7.221949100E-1,3.717875779E-1
1.180949304E1,1.832594275E-1,-6.934842467E-1,4.652498960E-1
1.182615971E1,-1.160643063E-2,-5.902481079E-1,4.970148504E-1
1.184282638E1,-8.063415438E-2,-4.955640435E-1,4.457022250E-1
1.185949304E1,-9.224057943E-2,-5.914698243E-1,3.400225937E-1
1.187615971E1,-1.014035568E-1,-6.922625303E-1,2.135736048E-1
1.189282637E1,-8.918625861E-2,-5.462658405E-1,8.284853399E-2
1.190949304E1,8.368847519E-2,-3.123046160E-1,-5.581776798E-2
1.192615971E1,2.956585586E-1,-2.909243405E-1,-6.375901401E-2
1.194282637E1,2.345720828E-1,-4.980075061E-1,2.298378758E-2
1.195949304E1,1.282816008E-2,-6.537780166E-1,7.124210149E-2
1.197615970E1,-1.197294965E-1,-6.232348084E-1,3.764454275E-2
1.199282637E1,-1.569922417E-1,-5.157225728E-1,-1.977674663E-2
1.200949304E1,-1.679878086E-1,-4.222602844E-1,-4.848739132E-2
1.202615970E1,-1.740964651E-1,-3.801106215E-1,-4.787652567E-2
1.204282637E1,-1.997527778E-1,-3.911061883E-1,-6.803506613E-2
1.205949303E1,-2.138026655E-1,-4.424188137E-1,-1.382845193E-1
1.207615970E1,-1.948658675E-1,-4.185950756E-1,-2.128100246E-1
1.209282637E1,-1.948658675E-1,-2.438877672E-1,-3.142135739E-1
1.210949303E1,-2.449567765E-1,-2.153298259E-2,-4.088976085E-1
1.212615970E1,-2.999345958E-1,1.000291109E-1,-4.938078225E-1
1.214282636E1,-3.463603258E-1,9.147699922E-2,-5.451204777E-1
1.215949303E1,-3.433060050E-1,1.030834317E-1,-6.508000493E-1
1.217615970E1,-2.926042378E-1,1.140789986E-1,-8.646027446E-1
1.219282636E1,-4.001164436E-1,-7.635809598E-4,-1.045418739E0
1.220949303E1,-5.351175666E-1,-4.657844082E-2,-1.170645952E0
1.222615969E1,-5.400044918E-1,-4.230238497E-2,-1.248836637E0
1.224282636E1,-3.591884971E-1,2.244928107E-2,-1.196302295E0
1.225949303E1,-1.740964651E-1,9.010255337E-3,-1.159039617E0
1.227615969E1,-1.307250559E-1,7.788525894E-3,-1.166369915E0
1.229282636E1,-1.178968996E-1,-9.972367436E-2,-1.061912060E0
1.230949302E1,-3.665188700E-2,-4.411970973E-1,-8.169552684E-1
1.232615969E1,-2.382372692E-2,-1.012966514E0,-5.695550442E-1
1.234282636E1,8.063415438E-2,-9.714277387E-1,-5.206858516E-1
1.235949302E1,1.869246215E-1,-4.619664848E-1,-5.756636858E-1
1.237615969E1,2.309068888E-1,-3.642281294E-1,-5.781071782E-1
1.239282635E1,3.097084463E-1,-5.548179150E-1,-4.742601514E-1
1.240949302E1,4.880809486E-1,-7.509055138E-1,-3.123809695E-1
1.242615969E1,6.847794056E-1,-9.433279634E-1,-2.085339576E-1
1.244282635E1,8.032872081E-1,-1.105817914E0,-1.590539217E-1
1.245949302E1,8.374956250E-1,-1.088713765E0,-9.308052063E-2
1.247615968E1,7.531962991E-1,-8.016073108E-1,1.870773360E-2
1.249282635E1,7.360920310E-1,-9.298889041E-1,8.468113095E-2
1.250949302E1,8.228348494E-1,-1.099098444E0,1.451567411E-1
1.252615968E1,8.802561760E-1,-1.188284755E0,1.585957706E-1
1.254282635E1,8.393282294E-1,-1.323285818E0,2.343430072E-1
1.255949301E1,8.545998335E-1,-1.282357931E0,2.685514390E-1
1.257615968E1,8.326086998E-1,-1.220049739E0,2.777144015E-1
1.259282635E1,7.611374855E-1,-1.416748166E0,2.728274763E-1
1.260949301E1,8.662062287E-1,-1.701411128E0,3.455203772E-1
1.262615968E1,1.113606453E0,-1.816864610E0,4.591412544E-1
1.264282634E1,1.491731763E0,-1.805258155E0,5.220603347E-1
1.265949301E1,1.890015602E0,-1.631161690E0,4.237110913E-1
1.267615968E1,1.623678565E0,-2.291506529E0,3.088684976E-1
1.269282634E1,5.736020207E-1,-2.951240540E0,4.829649627E-1
1.270949301E1,-5.314523727E-2,-1.221271396E0,6.766090989E-1
1.272615967E1,-3.054323839E-3,-9.824233055E-1,7.566323876E-1
1.274282634E1,2.223547846E-1,-1.499214888E0,5.813142061E-1
1.275949301E1,5.461131334E-1,-1.870620728E0,1.921933293E-1
1.277615967E1,8.155044913E-1,-1.722791433E0,-6.070468575E-2
1.279282634E1,9.718858600E-1,-1.510210395E0,-2.286925018E-1
1.280949300E1,9.737184644E-1,-1.028238177E0,-3.374264240E-1
1.282615967E1,9.010255337E-1,-2.463312149E-1,-4.150062501E-1
1.284282634E1,7.611374855E-1,4.689914286E-1,-4.644863009E-1
1.285949300E1,5.369501114E-1,3.346011937E-1,-3.979020417E-1
1.287615967E1,2.596175373E-1,-5.053378940E-1,-3.655261993E-1
1.289282633E1,1.221729536E-2,-1.249371171E0,-2.769508064E-1
1.290949300E1,-1.710421443E-1,-1.328783631E0,-9.430225194E-2
1.292615967E1,-2.266308367E-1,-9.469931126E-1,5.268708803E-3
1.294282633E1,-2.217439115E-1,-6.262891293E-1,-3.504836559E-2
1.295949300E1,-2.205221802E-1,-4.980075061E-1,-1.651625633E-1
1.297615966E1,-1.808159798E-1,-4.369210303E-1,-2.439641207E-1
1.299282633E1,-1.026252806E-1,-4.497492015E-1,-2.830594778E-1
1.300949300E1,-7.330377586E-3,-4.747946560E-1,-3.172678947E-1
1.302615966E1,8.063415438E-2,-5.432115197E-1,-3.520871997E-1
1.304282633E1,2.015853822E-1,-6.592758298E-1,-3.655261993E-1
1.305949299E1,2.724456787E-1,-6.885973215E-1,-2.683987021E-1
1.307615966E1,2.901607752E-1,-6.678279042E-1,-1.065195426E-1
1.309282633E1,3.481929302E-1,-7.124210596E-1,3.336848691E-2
1.310949299E1,4.575377107E-1,-6.916516423E-1,1.494327933E-1
1.312615966E1,4.789179862E-1,-5.181660652E-1,2.227365673E-1
1.314282632E1,2.455676347E-1,-4.546361268E-1,1.592066288E-1
1.315949299E1,-1.197294965E-1,-4.253146052E-1,-2.099847607E-2
1.317615966E1,-2.559523284E-1,-3.287979662E-1,-2.005927265E-1
1.319282632E1,-1.490510106E-1,-2.396117151E-1,-2.238055766E-1
1.320949299E1,-9.040798992E-2,-1.999054998E-1,-1.572213173E-1
1.322615965E1,-9.468404204E-2,-3.929387629E-1,-1.382845193E-1
1.324282632E1,-7.941242307E-3,-6.305651665E-1,-1.144607887E-1
1.325949299E1,8.552107215E-2,-7.362447977E-1,-5.215258151E-2
1.327615965E1,1.282816082E-1,-8.144354820E-1,-4.298960790E-2
1.329282632E1,1.759290546E-1,-9.237802625E-1,-9.002619982E-2
1.330949298E1,2.528980076E-1,-9.457713962E-1,-1.480583549E-1
1.332615965E1,3.005454838E-1,-9.714277387E-1,-1.120173261E-1
1.334282632E1,2.968802750E-1,-9.732602835E-1,-6.681333482E-2
1.335949298E1,2.144135386E-1,-9.311106205E-1,-5.520690605E-2
1.337615965E1,1.343902498E-1,-8.608611822E-1,-8.697187155E-2
1.339282631E1,6.963858753E-2,-8.950695992E-1,-9.002619982E-2
1.340949298E1,-4.276053514E-3,-1.039844513E0,-9.613484144E-2
1.342615965E1,-5.742128938E-2,-1.177899957E0,-1.162933856E-1
1.344282631E1,-8.063415438E-2,-1.428354621E0,-1.181259751E-1
1.345949298E1,-6.780599058E-2,-1.622609615E0,-1.810450554E-1
1.347615964E1,-5.681042373E-2,-1.532201529E0,-3.044397235E-1
1.349282631E1,-7.819069177E-2,-1.270140648E0,-3.624718785E-1
1.350949298E1,-1.105665267E-1,-1.092378974E0,-3.893499374E-1
1.352615964E1,-1.887572110E-1,-9.989166260E-1,-2.977202237E-1
1.354282631E1,-4.783071280E-1,-9.158390164E-1,-3.545306325E-1
1.355949297E1,-9.376774430E-1,-7.710640430E-1,-5.426769853E-1
1.357615964E1,-1.147204041E0,-3.159697950E-1,-7.656426430E-1
1.359282631E1,-1.167973399E0,2.845102847E-1,-9.391282201E-1
1.360949297E1,-1.146593213E0,4.176788032E-1,-8.200095892E-1
1.362615964E1,-1.156367064E0,-4.375318885E-1,-5.225184560E-1
1.364282630E1,-1.139262795E0,-1.098487616E0,-1.908188909E-1
1.365949297E1,-9.144645929E-1,-1.104596257E0,9.689842910E-2
1.367615964E1,-6.530144215E-1,-6.641627550E-1,1.249982044E-1
1.369282630E1,-5.192350745E-1,-5.248855352E-1,9.926552884E-4
1.370949297E1,-2.846629918E-1,-2.866483033E-1,-8.781181648E-3
1.372615963E1,7.147117704E-2,9.330959618E-2,-1.175151095E-1
1.374282630E1,3.543015718E-1,1.464548260E-1,-4.192823172E-1
1.375949297E1,6.798924804E-1,1.409570426E-1,-5.610029697E-1
1.377615963E1,1.049465656E0,-1.333212405E-1,-4.895317554E-1
1.379282630E1,1.249829292E0,-4.094321132E-1,-2.958876193E-1
1.380949296E1,1.318857074E0,-7.252492309E-1,-2.170860767E-1
1.382615963E1,1.328630924E0,-6.617192626E-1,-1.950949430E-1
1.384282630E1,1.445306063E0,-4.992292523E-1,-1.614973694E-1
1.385949296E1,1.718973517E0,-5.975784659E-1,-1.761581302E-1
1.387615963E1,1.860694170E0,-9.616538882E-1,-8.880446851E-2
1.389282629E1,1.778838277E0,-1.309846759E0,-3.443750367E-2
1.390949296E1,1.813657522E0,-1.864511967E0,-2.341902852E-1
1.392615963E1,1.946826100E0,1.270446062E0,-3.123809695E-1
1.394282629E1,-9.401208758E-1,-9.341649413E-1,8.284853399E-2
1.395949296E1,-1.191186309E0,-2.725220442E0,7.291435003E-1
1.397615962E1,-2.510654330E-1,-2.307999849E0,2.057163477E0
1.399282629E1,1.052520037E0,-9.592103958E-1,3.121900797E0
1.400949296E1,1.471573234E0,-1.486386776E0,3.369911909E0
1.402615962E1,2.193004489E-1,1.941022873E-1,3.365025043E0
1.404282629E1,-9.529490769E-2,-2.109468699E0,6.979893446E-1
1.405949295E1,-6.108647957E-2,-1.139415503E0,-6.007091403E-1
1.407615962E1,2.559523284E-1,-6.898190379E-1,-2.812268734E-1
1.409282629E1,2.577849329E-1,-5.786416531E-1,-3.276526034E-1
1.410949295E1,1.288924664E-1,-1.088866442E-1,-5.182424188E-1
1.412615962E1,3.469711840E-1,5.874992013E-1,-4.278344214E-1
1.414282628E1,2.388481349E-1,1.245400548E0,-3.081049323E-1
1.415949295E1,5.619955808E-2,9.943351150E-1,-3.136027157E-1
1.417615962E1,2.791652083E-1,4.005745649E-1,-1.236237586E-1
1.419282628E1,4.728093445E-1,2.924515009E-1,3.137554228E-1
1.420949295E1,4.141663313E-1,4.922043085E-1,4.053851366E-1
1.422615961E1,4.337140024E-1,6.901245117E-1,5.373319387E-1
1.424282628E1,4.190532267E-1,5.258018374E-1,5.269472599E-1
1.425949295E1,6.120865345E-1,8.562797308E-1,5.727620721E-1
1.427615961E1,3.359756172E-1,1.018769741E0,1.909715980E-1
1.429282628E1,3.060432673E-1,1.089019179E0,2.911534309E-1
1.430949294E1,1.368337125E-1,1.376125574E0,4.597521126E-1
1.432615961E1,-1.655443609E-1,1.604589105E0,4.389826953E-1
1.434282628E1,-2.974911332E-1,1.351080179E0,9.995274991E-2
1.435949294E1,-4.923570156E-1,1.299767494E0,-2.250273079E-1
1.437615961E1,-5.229002237E-1,1.407890558E0,-1.602756530E-1
1.439282627E1,-4.306596816E-1,1.340084553E0,1.176678315E-1
1.440949294E1,-1.966984570E-1,1.445764184E0,3.632354736E-1
1.442615961E1,-6.841685623E-2,1.902080178E0,2.526689470E-1
1.444282627E1,-1.478292793E-1,1.779296398E0,2.899316847E-1
1.445949294E1,-1.160643101E-1,1.706603527E0,2.410625070E-1
1.447615960E1,-2.083048970E-1,1.719431639E0,2.606101930E-1
1.449282627E1,-4.166097939E-1,1.936899543E0,4.402044415E-1
1.450949294E1,-5.491674542E-1,2.058461666E0,5.409971476E-1
1.452615960E1,-5.503891706E-1,2.143371820E0,5.281689763E-1
1.454282627E1,-5.552760959E-1,2.324798584E0,3.778962195E-1
1.455949293E1,-5.766563416E-1,2.501949310E0,2.954294682E-1
1.457615960E1,-6.108647585E-1,2.410930634E0,3.778962195E-1
1.459282627E1,-5.271763206E-1,2.160475969E0,4.169915617E-1
1.460949293E1,-4.337140024E-1,1.835495949E0,5.367210507E-1
1.462615960E1,-2.180787325E-1,1.428049088E0,3.516290486E-1
1.464282626E1,-1.612683088E-1,1.196531415E0,2.764926851E-1
1.465949293E1,-2.693913579E-1,2.109774351E0,3.039815724E-1
1.467615960E1,-3.573558927E-1,2.443917274E0,9.673807621E-1
1.469282626E1,-4.416552484E-1,2.471406221E0,1.236161232E0
1.470949293E1,-4.318813980E-1,1.977827430E0,1.369329810E0
1.472615959E1,-5.198459029E-1,2.402989388E0,9.001855850E-1
1.474282626E1,-4.850266278E-1,2.560592413E0,7.114284039E-1
1.475949293E1,-3.665188551E-1,2.911839724E0,7.761800885E-1
1.477615959E1,-2.883281708E-1,2.922224283E0,9.453896284E-1
1.479282626E1,-7.574722916E-2,2.566090107E0,1.137812018E0
1.480949292E1,2.321286127E-2,1.944840789E0,8.134428263E-1
1.482615959E1,7.757982612E-2,1.494022489E0,4.554760456E-1
1.484282626E1,1.521053314E-1,5.789470673E-1,5.000692010E-1
1.485949292E1,6.597339362E-2,1.189811826E0,2.380081862E-1
1.487615959E1,1.954767257E-1,9.369138479E-1,2.673296928E-1
1.489282625E1,2.474002391E-1,6.412553191E-1,3.143662810E-1
1.490949292E1,2.364046723E-1,2.551887631E-1,1.170569658E-1
1.492615959E1,2.278525680E-1,-3.817904973E-3,3.031416424E-2
1.494282625E1,3.811796308E-1,-1.277470946E0,3.271944523E-1
1.495949292E1,2.547306120E-1,1.091920808E-1,1.598175019E-1
1.497615958E1,2.822195292E-1,2.087630332E-1,2.092975378E-1
1.499282625E1,3.133736253E-1,2.122755162E-2,5.165625215E-1
1.500949292E1,3.866774142E-1,-3.342957497E-1,4.988474548E-1
1.502615958E1,3.897317350E-1,-4.130973220E-1,3.241401315E-1
1.504282625E1,3.426951468E-1,-3.581194878E-1,2.080758214E-1
1.505949291E1,1.979201883E-1,-2.206749022E-1,1.891390085E-1
1.507615958E1,1.130099818E-1,-5.853611827E-1,2.618319094E-1
1.509282625E1,1.875354946E-1,-8.712459207E-1,3.333030939E-1
1.510949291E1,2.785543501E-1,-9.854776263E-1,2.911534309E-1
1.512615958E1,2.956585586E-1,-9.714277387E-1,1.537088454E-1
1.514282624E1,2.608392537E-1,-9.714277387E-1,4.802924395E-2
1.515949291E1,2.302960157E-1,-1.028849006E0,1.015562657E-2
1.517615958E1,1.307250559E-1,-9.262236953E-1,-6.559160352E-2
1.519282624E1,-6.963858753E-2,-7.631227970E-1,-2.176969349E-1
1.520949291E1,-1.191186309E-1,-9.500474334E-1,-2.354120165E-1
1.522615957E1,-3.042106628E-1,-7.319687009E-1,-4.003455043E-1
1.524282624E1,-4.746419191E-1,-7.264709473E-1,-4.290561378E-1
1.525949291E1,-6.346884966E-1,-8.645263910E-1,-4.376082420E-1
1.527615957E1,-7.104357481E-1,6.887500733E-2,-8.096249104E-1
1.529282624E1,-7.861829996E-1,4.494437575E-1,-1.272049546E0
1.530949290E1,-7.556397319E-1,6.815723777E-1,-1.408883214E0
1.532615957E1,-4.856374860E-1,9.680679440E-1,-1.275714755E0
1.534282624E1,-1.109330416E0,8.538362384E-1,-1.533499718E0
1.535949290E1,-2.257145405E0,5.312996507E-1,-1.408272386E0
1.537615957E1,-2.073275089E0,3.119991720E-1,-7.699186802E-1
1.539282623E1,-1.321911335E0,1.495091617E-1,-4.571559429E-1
1.540949290E1,-7.977893949E-1,1.006399691E-1,-1.364519149E-1
1.542615957E1,-7.929024696E-1,2.386954129E-1,1.763108522E-1
1.544282623E1,-8.991929293E-1,3.663661480E-1,6.259073019E-1
1.545949290E1,-4.605920315E-1,4.641045034E-1,9.832631946E-1
1.547615956E1,7.941242307E-2,4.775435328E-1,1.369940639E0
1.549282623E1,5.002982616E-1,4.932733253E-2,1.716911793E0
1.550949290E1,7.263182402E-1,-5.426006317E-1,1.784106970E0
1.552615956E1,1.230281711E0,-1.141858935E0,1.836641312E0
1.554282623E1,1.756236196E0,-1.361159444E0,1.906890750E0
1.555949289E1,1.006094337E0,-7.154753804E-1,1.375438452E0
1.557615956E1,7.104357481E-1,-1.498145908E-1,1.518762559E-1
1.559282623E1,1.510057688E0,1.461646676E0,-8.481093645E-1
1.560949289E1,1.611461282E0,5.435169339E-1,-5.457313061E-1
1.562615956E1,7.208204269E-2,-6.647735834E-1,9.466113448E-1
1.564282622E1,-8.136718869E-1,-7.081450224E-1,1.165911794E0
1.565949289E1,-3.365865052E-1,-2.677114904E-1,6.509527564E-1
1.567615956E1,2.156352699E-1,4.734201822E-3,3.644571900E-1
1.569282622E1,7.318159938E-1,-1.369864196E-1,4.921279252E-1
1.570949289E1,7.965676785E-1,1.012508348E-1,6.552288532E-1
1.572615955E1,6.304124594E-1,3.718639314E-1,6.436223984E-1
1.574282622E1,5.552760959E-1,3.466657549E-2,4.395935535E-1
1.575949289E1,2.822195292E-1,-4.491383433E-1,2.679405510E-1
1.577615955E1,1.075121984E-1,-3.391826749E-1,2.593884468E-1
1.579282622E1,2.284634262E-1,-7.956513762E-2,1.964693815E-1
1.580949288E1,4.984656572E-1,4.734201822E-3,2.050214857E-1
1.582615955E1,5.619956255E-1,7.788525894E-3,3.094793558E-1
1.584282622E1,4.208858311E-1,1.324049383E-1,4.035525322E-1
1.585949288E1,2.846629918E-1,2.191477418E-1,4.200458825E-1
1.587615955E1,2.083048970E-1,2.619082630E-1,4.157698452E-1
1.589282621E1,2.522871494E-1,2.735147178E-1,4.285979867E-1
1.590949288E1,3.066541255E-1,1.605047137E-1,4.799106419E-1
1.592615955E1,3.769035637E-1,1.328630932E-2,5.037343502E-1
1.594282621E1,3.652971387E-1,-9.117157012E-2,4.609738290E-1
1.595949288E1,3.152062297E-1,-9.728021920E-2,4.267654121E-1
1.597615954E1,2.828303874E-1,-1.003345400E-1,4.078285992E-1
1.599282621E1,2.620609999E-1,-1.821904182E-1,4.750237167E-1
1.600949288E1,2.101374865E-1,-2.255618125E-1,5.813142061E-1
1.602615954E1,1.728747338E-1,-2.273944169E-1,6.204095483E-1
1.604282621E1,1.789833754E-1,-2.390008420E-1,5.587121844E-1
1.605949287E1,1.777616441E-1,-2.475529462E-1,5.049561262E-1
1.607615954E1,1.343902498E-1,-3.300196826E-1,4.524217248E-1
1.609282621E1,4.520399496E-2,-2.707658112E-1,4.163807034E-1
1.610949287E1,-8.552107215E-2,-1.327103674E-1,3.125337064E-1
1.612615954E1,-2.871064544E-1,2.790125012E-1,1.964693815E-1
1.614282620E1,-5.381718874E-1,8.636100888E-1,-3.924042583E-1
1.615949287E1,-9.450078011E-1,1.005330682E0,-1.355738044E0
1.617615954E1,-1.456912518E0,9.454659820E-1,-2.053956509E0
1.619282620E1,-1.716530085E0,8.581122756E-1,-2.435136080E0
1.620949287E1,-1.822820544E0,5.905535221E-1,-2.552422047E0
1.622615953E1,-1.964541078E0,6.772963405E-1,-2.529209375E0
1.624282620E1,-1.897346020E0,1.186146736E0,-2.588463068E0
1.625949287E1,-1.810603261E0,1.561217666E0,-2.662377834E0
1.627615953E1,-1.543044448E0,1.544724345E0,-2.661155939E0
1.629282620E1,-1.354287267E0,1.575878382E0,-2.628780127E0
1.630949286E1,-1.535103202E0,1.120784163E0,-2.613508701E0
1.632615953E1,-1.750738502E0,1.158657789E0,-2.482783556E0
1.634282620E1,-1.605963469E0,1.280830741E0,-1.940335631E0
1.635949286E1,-1.417206287E0,1.351691008E0,-1.482187033E0
1.637615953E1,-1.232725143E0,1.216689944E0,-1.332525134E0
1.639282619E1,-1.227838159E0,1.074358463E0,-1.598251343E0
1.640949286E1,-1.142317176E0,9.155336022E-1,-2.153527498E0
1.642615953E1,-1.243720651E0,8.593340516E-1,-2.557309151E0
1.644282619E1,-1.342680812E0,4.305069447E-1,-2.728961945E0
1.645949286E1,-1.383608699E0,1.336266696E-1,-2.765614033E0
1.647615952E1,-1.507614255E0,-3.605629504E-1,-2.697196960E0
1.649282619E1,-1.612683058E0,-5.994110703E-1,-2.423529625E0
1.650949286E1,-1.355508924E0,-8.211549520E-1,-1.939724803E0
1.652615952E1,-9.645555019E-1,-6.183478832E-1,-1.510897636E0
1.654282619E1,-6.560688019E-1,-6.134609580E-1,-1.326416492E0
1.655949285E1,-2.919933498E-1,-6.739365458E-1,-1.263497472E0
1.657615952E1,7.330377400E-2,-6.751583219E-1,-9.580650330E-1
1.659282619E1,3.481929302E-1,-4.656316638E-1,-5.842158198E-1
1.660949285E1,5.015199780E-1,-1.345429718E-1,-1.840993762E-1
1.662615952E1,5.797106624E-1,1.800523996E-1,1.335503161E-1
1.664282618E1,6.707295179E-1,3.003927469E-1,3.797288239E-1
1.665949285E1,7.941241860E-1,2.906189263E-1,6.375137568E-1
1.667615952E1,8.423825502E-1,3.119991720E-1,8.305470347E-1
1.669282618E1,8.167262077E-1,4.408916533E-1,8.745293021E-1
1.670949285E1,8.735366464E-1,6.791289449E-1,7.547997832E-1
1.672615951E1,8.216131330E-1,6.601921320E-1,7.004328370E-1
1.674282618E1,7.513636947E-1,4.928151667E-1,7.010436654E-1
1.675949285E1,6.664534807E-1,2.338084877E-1,7.566323876E-1
1.677615951E1,4.416552484E-1,-1.664606482E-2,6.882155538E-1
1.679282618E1,2.492328286E-1,-5.041161776E-1,5.678751469E-1
1.680949284E1,1.435532272E-1,-7.307469845E-1,5.251146555E-1
1.682615951E1,1.417206228E-1,-6.256782413E-1,7.566323876E-1
1.684282618E1,1.411097646E-1,-5.603157282E-1,1.073671222E0
1.685949284E1,1.734855920E-1,-6.879864335E-1,1.177518249E0
1.687615951E1,2.718348205E-1,-7.710640430E-1,1.226998210E0
1.689282617E1,4.899135530E-1,-8.303179741E-1,1.220278740E0
1.690949284E1,7.061597109E-1,-7.527381182E-1,1.156137943E0
1.692615951E1,7.935133576E-1,-6.867647171E-1,1.122540355E0
1.694282617E1,8.943060637E-1,-6.323977709E-1,1.095051527E0
1.695949284E1,1.140484571E0,-6.067414284E-1,1.137201190E0
1.697615950E1,1.418428063E0,-6.042979956E-1,1.192789793E0
1.699282617E1,1.559537768E0,-4.228711426E-1,1.257541537E0
1.700949284E1,1.516777277E0,-3.000873327E-1,1.320460558E0
1.702615950E1,1.340848207E0,-3.849975169E-1,1.136590242E0
1.704282617E1,1.002429128E0,-5.774199367E-1,9.313397408E-1
1.705949283E1,6.108647585E-1,-9.170607328E-1,1.083445072E0
1.707615950E1,3.084867001E-1,-1.195004225E0,1.207450628E0
1.709282617E1,6.780599058E-2,-1.393535256E0,1.283808708E0
1.710949283E1,-2.199113183E-2,-1.431408882E0,1.316184521E0
1.712615950E1,7.635809481E-2,-1.370933294E0,1.280754328E0
1.714282616E1,2.541197538E-1,-1.232877851E0,1.167744398E0
1.715949283E1,4.086685479E-1,-1.085659385E0,9.368374944E-1
1.717615950E1,4.960221946E-1,-9.011782408E-1,6.759982109E-1
1.719282616E1,5.589412451E-1,-6.055197120E-1,5.629882812E-1
1.720949283E1,6.285798550E-1,-5.652026534E-1,5.354993343E-1
1.722615949E1,5.919279456E-1,-5.523744822E-1,5.245037675E-1
1.724282616E1,4.453204274E-1,-5.114465356E-1,4.676933587E-1
1.725949283E1,2.309068888E-1,-4.448622763E-1,3.882809281E-1
1.727615949E1,4.214967042E-2,-4.179842174E-1,2.526689470E-1
1.729282616E1,-5.497783050E-2,-4.387536347E-1,6.696604937E-2
1.730949282E1,-1.007926911E-1,-3.746128380E-1,-5.276344717E-2
1.732615949E1,-9.468404204E-2,-3.312414289E-1,-1.486692131E-1
1.734282616E1,-7.024945319E-2,-3.404043913E-1,-3.258199990E-1
1.735949282E1,-1.166751757E-1,-4.344775677E-1,-4.925860763E-1
1.737615949E1,-1.863137633E-1,-3.239110410E-1,-6.153699160E-1
1.739282615E1,-1.985310465E-1,-2.432768941E-1,-6.501892209E-1
1.740949282E1,-1.490510106E-1,-2.554942071E-1,-5.658898354E-1
1.742615949E1,-1.954767294E-2,-5.480984449E-1,-3.856847584E-1
1.744282615E1,6.658425927E-2,-6.574432254E-1,-2.213621289E-1
1.745949282E1,1.643226296E-1,-5.352702737E-1,-7.903063297E-2
1.747615948E1,3.072649837E-1,-7.038689256E-1,3.947713599E-2
1.749282615E1,4.166097939E-1,-7.808378935E-1,2.909243479E-2
1.750949282E1,4.520399272E-1,-4.809032977E-1,-9.002619982E-2
1.752615948E1,5.656607747E-1,-2.237292230E-1,-3.062723279E-1
1.754282615E1,5.815432668E-1,-1.053741761E-2,-3.441459537E-1
1.755949281E1,4.056142271E-1,1.739437431E-1,-1.000291109E-2
1.757615948E1,9.590577334E-2,-7.635809598E-4,3.381900191E-1
1.759282615E1,-2.388481349E-1,1.201876476E-1,3.980547488E-1
1.760949281E1,-3.756818473E-1,7.212786078E-1,3.094793558E-1
1.762615948E1,-4.111120105E-1,1.160490394E0,2.673296928E-1
1.764282614E1,-4.227184355E-1,1.213024735E0,2.673296928E-1
1.765949281E1,-5.015199780E-1,1.277165532E0,1.732565165E-1
1.767615948E1,-5.467239618E-1,1.347414970E0,-2.649625950E-2
1.769282614E1,-5.290089250E-1,1.193477035E0,-2.402989268E-1
1.770949281E1,-3.830122054E-1,8.886555433E-1,-4.033998251E-1
1.772615947E1,-2.577849329E-1,6.076577306E-1,-5.365683436E-1
1.774282614E1,-3.378082216E-1,8.458949924E-1,-7.442623973E-1
1.775949281E1,-5.229002237E-1,1.662621260E0,-1.000825524E0
1.777615947E1,-8.020654321E-1,1.966220975E0,-1.163926482E0
1.779282614E1,-1.112995625E0,1.103679895E0,-1.316031814E0
1.780949280E1,-9.315688014E-1,4.993819445E-2,-1.410715818E0
1.782615947E1,-3.689623177E-1,-5.896372199E-1,-1.444924235E0
1.784282614E1,-6.841685623E-2,-6.824886799E-1,-1.666668177E0
1.785949280E1,-1.930332631E-1,-2.365573794E-1,-1.879860044E0
1.787615947E1,-1.765399277E-1,-5.451968312E-2,-1.829158187E0
1.789282613E1,1.154534444E-1,-1.577558219E-1,-1.637957573E0
1.790949280E1,4.025598764E-1,-2.622137070E-1,-1.647731423E0
1.792615947E1,4.831940532E-1,-5.658134818E-1,-1.608636022E0
1.794282613E1,4.893026948E-1,-7.777835727E-1,-1.474856615E0
1.795949280E1,3.842339516E-1,-6.659952998E-1,-1.289764643E0
1.797615946E1,1.417206228E-1,-7.759509683E-1,-1.017318964E0
1.799282613E1,-1.582139730E-1,-9.176716208E-1,-6.532435417E-1
1.800949280E1,-3.396408260E-1,-1.049007535E0,-3.068831861E-1
1.802615946E1,-3.958403766E-1,-1.130252600E0,-2.384663373E-1
1.804282613E1,-3.451386094E-1,-1.215162754E0,-5.109120011E-1
1.805949279E1,-2.443459183E-1,-1.396589637E0,-7.729730010E-1
1.807615946E1,-2.736674249E-1,-1.523649454E0,-9.543998837E-1
1.809282613E1,-5.064069033E-1,-1.531590700E0,-9.947169423E-1
1.810949279E1,-6.414080262E-1,-1.623220444E0,-9.104176164E-1
1.812615946E1,-6.682860851E-1,-1.752723813E0,-9.061415195E-1
1.814282612E1,-4.972439408E-1,-1.550527573E0,-8.261182308E-1
1.815949279E1,-2.278525680E-1,-1.327561855E0,-6.972258091E-1
1.817615946E1,-9.285144508E-2,-1.177289128E0,-6.764563918E-1
1.819282612E1,-1.154534444E-1,-1.028849006E0,-7.338776588E-1
1.820949279E1,-2.150243968E-1,-8.840740323E-1,-9.507346749E-1
1.822615945E1,-3.329212964E-1,-8.333722949E-1,-1.086346626E0
1.824282612E1,-4.135554433E-1,-5.450441241E-1,-1.016708016E0
1.825949279E1,-4.178315103E-1,-6.769908667E-1,-9.788344502E-1
1.827615945E1,-2.944368124E-1,-7.160862088E-1,-1.030147076E0
1.829282612E1,-9.651663154E-2,-5.755873322E-1,-1.124831080E0
1.830949278E1,1.484401375E-1,-4.051560760E-1,-1.185306787E0
1.832615945E1,2.345720828E-1,-1.797469556E-1,-1.064355493E0
1.834282612E1,4.734202027E-1,-4.014908671E-1,-1.030757904E0
1.835949278E1,9.224058390E-1,-6.122392416E-1,-1.112002969E0
1.837615945E1,1.050076604E0,-4.723511934E-1,-1.122387648E0
1.839282611E1,1.180801630E0,-9.219476581E-1,-1.076572776E0
1.840949278E1,1.395825982E0,-9.598212838E-1,-9.715040922E-1
1.842615945E1,1.485623121E0,-8.474221826E-1,-8.792635202E-1
1.844282611E1,1.576031089E0,-8.449786901E-1,-7.485384345E-1
1.845949278E1,1.664606571E0,-7.667880058E-1,-5.469530225E-1
1.847615944E1,1.723860383E0,-7.185297012E-1,-3.252091408E-1
1.849282611E1,1.883906960E0,-6.617192626E-1,-7.536543906E-2
1.850949278E1,1.973704100E0,-6.721040010E-1,2.239582986E-1
1.852615944E1,1.867413640E0,-6.464476585E-1,4.004982114E-1
1.854282611E1,1.623678565E0,-6.067414284E-1,4.285979867E-1
1.855949277E1,1.114828229E0,-6.440041661E-1,4.487565458E-1
1.857615944E1,7.721330523E-1,-7.050906420E-1,6.814960241E-1
1.859282611E1,7.929024696E-1,-8.657481074E-1,1.129259944E0
1.860949277E1,9.346231222E-1,-9.549343586E-1,1.631390810E0
1.862615944E1,1.111163020E0,-9.091194868E-1,2.047389746E0
1.864282610E1,1.387884736E0,-1.039844513E0,2.237368584E0
1.865949277E1,1.685986757E0,-1.020296931E0,2.103589296E0
1.867615944E1,1.806327105E0,-7.472403646E-1,1.555643559E0
1.869282610E1,1.610239506E0,-4.167625010E-1,1.137812018E0
1.870949277E1,1.466686368E0,-3.226893246E-1,1.019304276E0
1.872615943E1,1.401323795E0,-4.833467603E-1,8.788053393E-1
1.874282610E1,1.237612009E0,-8.352048993E-1,6.857720613E-1
1.875949277E1,8.637627959E-1,-1.131474257E0,5.727620721E-1
1.877615943E1,3.188714087E-1,-1.257923245E0,6.185769439E-1
1.879282610E1,-9.651663154E-2,-1.270140648E0,7.938951254E-1
1.880949276E1,-4.416552484E-1,-1.573129535E0,9.930370450E-1
1.882615943E1,-6.792816520E-1,-1.832747102E0,1.048014879E0
1.884282610E1,-7.116574645E-1,-1.642768145E0,9.484439492E-1
1.885949276E1,-6.853902936E-1,-1.347720385E0,6.307942271E-1
1.887615943E1,-4.196641147E-1,-8.712459207E-1,3.198640645E-1
1.889282609E1,-7.513637096E-2,-5.248855352E-1,1.604283601E-1
1.890949276E1,2.474002391E-1,-2.458730713E-2,2.722166181E-1
1.892615943E1,2.767217457E-1,2.148716897E-1,2.630536556E-1
1.894282609E1,-3.604102135E-2,-1.420260593E-2,1.634826809E-1
1.895949276E1,-3.781253099E-1,-3.446804583E-1,1.054505333E-1
1.897615942E1,-4.202749729E-1,-3.911061883E-1,-6.864593178E-2
1.899282609E1,-2.388481349E-1,-2.646571696E-1,-3.398698866E-1
1.900949276E1,-6.291907281E-2,-2.214384824E-2,-5.811614990E-1
1.902615942E1,-2.382372692E-2,4.482220411E-1,-7.503710389E-1
1.904282609E1,-1.001818255E-1,8.923207521E-1,-6.972258091E-1
1.905949275E1,-3.323104382E-1,1.123227596E0,-5.298488140E-1
1.907615942E1,-6.835576892E-1,1.085353971E0,-5.567268729E-1
1.909282609E1,-1.010981202E0,8.061888218E-1,-7.974076271E-1
1.910949275E1,-1.232114315E0,5.196931958E-1,-1.188971877E0
1.912615942E1,-1.380554438E0,4.799869955E-1,-1.378340006E0
1.914282608E1,-1.351232886E0,9.082031846E-1,-1.419268012E0
1.915949275E1,-1.134375930E0,1.442709923E0,-1.276325583E0
1.917615942E1,-7.012727857E-1,1.991266489E0,-6.526326537E-1
1.919282608E1,-3.255909383E-1,2.246608019E0,1.054505333E-1
1.920949275E1,-3.243691921E-1,2.242331982E0,4.347066581E-1
1.922615941E1,-5.772672296E-1,2.096946001E0,4.823541045E-1
1.924282608E1,-9.596685767E-1,1.908188820E0,3.235292733E-1
1.925949275E1,-1.276096582E0,2.049298525E0,7.002037764E-2
1.927615941E1,-1.503338218E0,1.697440505E0,-1.651625633E-1
1.929282608E1,-1.869246244E0,1.027321815E0,-1.724929363E-1
1.930949274E1,-2.236986876E0,3.132209182E-1,-1.413388401E-1
1.932615941E1,-2.576016665E0,-1.540906429E-1,9.995274991E-2
1.934282608E1,-2.874118805E0,-4.534143806E-1,3.308596313E-1
1.935949274E1,-3.092197418E0,-4.729620516E-1,5.226711631E-1
1.937615941E1,-3.137401581E0,-4.143190384E-1,6.497310400E-1
1.939282607E1,-2.993237495E0,-2.805396616E-1,7.914516926E-1
1.940949274E1,-2.735452414E0,-1.241582632E-1,8.409317136E-1
1.942615941E1,-2.500880480E0,-1.603520103E-2,7.297543287E-1
1.944282607E1,-2.045175314E0,2.283107042E-1,5.098429918E-1
1.945949274E1,-1.243109822E0,4.036289155E-1,3.064250350E-1
1.947615940E1,-5.186241865E-1,2.496909797E-1,3.009272516E-1
1.949282607E1,1.178968996E-1,1.817322709E-2,3.669006526E-1
1.950949274E1,4.630354941E-1,-2.487746775E-1,4.169915617E-1
1.952615940E1,8.032872081E-1,-2.121227980E-1,3.962221742E-1
1.954282607E1,1.175914645E0,-2.280052751E-1,1.689804643E-1
1.955949273E1,1.505170822E0,-3.911061883E-1,-5.093085021E-2
1.957615940E1,1.668882608E0,-3.440696001E-1,-2.067013681E-1
1.959282607E1,1.852141976E0,-5.352702737E-1,-3.282634616E-1
1.960949273E1,2.117868185E0,-6.134609580E-1,-4.027889669E-1
1.962615940E1,2.366490126E0,-4.424188137E-1,-4.931969643E-1
1.964282606E1,2.687194109E0,-3.123046160E-1,-3.850739002E-1
1.965949273E1,3.019504547E0,-5.652026534E-1,-7.414371520E-2
1.967615940E1,3.296226263E0,-9.225585461E-1,2.630536556E-1
1.969282606E1,3.577835083E0,-1.172402263E0,5.660426021E-1
1.970949273E1,3.814850569E0,-1.222493172E0,8.800270557E-1
1.972615939E1,4.005440235E0,-1.084437728E0,1.170798659E0
1.974282606E1,3.915643215E0,-9.500474334E-1,1.215391874E0
1.975949273E1,3.662745237E0,-9.243911505E-1,1.106657863E0
1.977615939E1,3.299891472E0,-8.388700485E-1,9.001855850E-1
1.979282606E1,2.552193165E0,-7.246383429E-1,4.524217248E-1
1.980949272E1,1.359784961E0,-9.512691498E-1,3.070359230E-1
1.982615939E1,1.954767257E-1,-1.585346818E0,6.369028687E-1
1.984282606E1,-7.208204269E-1,-2.339154005E0,8.311578631E-1
1.985949272E1,-1.210734010E0,-2.562119484E0,9.301179647E-1
1.987615939E1,-1.256548882E0,-2.161392212E0,9.337831736E-1
1.989282605E1,-9.315688014E-1,-1.386204958E0,9.264528155E-1
1.990949272E1,-9.059124589E-1,-1.014188290E0,1.050458312E0
1.992615939E1,-1.061682940E0,-8.889609575E-1,8.293253183E-1
1.994282605E1,-1.015257239E0,-7.374665141E-1,8.101594448E-2
1.995949272E1,-7.531962991E-1,-3.984365463E-1,-9.232457280E-1
1.997615938E1,-2.907716334E-1,2.765690386E-1,-1.729587317E0
1.999282605E1,3.451386094E-1,1.128114581E0,-2.140699148E0
2.000949272E1,1.020144224E0,1.675449371E0,-2.096716881E0
2.002615938E1,1.539379239E0,1.310152292E0,-1.802280188E0
2.004282605E1,1.822820544E0,6.889027357E-1,-1.771126032E0
2.005949271E1,1.767842650E0,7.176133990E-1,-1.849316716E0
2.007615938E1,1.508836031E0,7.432697415E-1,-2.125427723E0
2.009282605E1,1.210734010E0,6.333140731E-1,-2.035019636E0
2.010949271E1,1.042135358E0,3.315468729E-1,-1.848095059E0
2.012615938E1,9.798271060E-1,6.276635826E-2,-1.622685909E0
2.014282604E1,8.527672291E-1,-1.907425225E-1,-1.286099434E0
2.015949271E1,3.787361681E-1,-3.721693754E-1,-9.006437659E-1
2.017615938E1,-3.426951468E-1,-4.454731345E-1,-7.717512846E-1
2.019282604E1,-7.855721116E-1,-6.776017547E-1,-1.214017391E0
2.020949271E1,-8.338304162E-1,-5.444332361E-1,-1.417435408E0
2.022615937E1,-1.052520037E0,-4.228711426E-1,-1.451032877E0
2.024282604E1,-1.243720651E0,-7.057015300E-1,-1.661781311E0
2.025949271E1,-1.353065491E0,-1.102152824E0,-1.716148257E0
2.027615937E1,-1.484401464E0,-1.157130599E0,-1.737528563E0
2.029282604E1,-1.552207351E0,-9.866993427E-1,-1.758297920E0
2.030949270E1,-1.461799383E0,-1.083826780E0,-1.714315653E0
2.032615937E1,-8.216131330E-1,-1.237153888E0,-1.640401006E0
2.034282604E1,-3.982838392E-1,-4.607447684E-1,-1.474245787E0
2.035949270E1,-3.488037884E-1,-2.664897740E-1,-8.511636853E-1
2.037615937E1,1.582139730E-1,1.617264450E-1,-6.837867498E-1
2.039282603E1,3.891208768E-1,3.242164850E-1,-4.449386299E-1
2.040949270E1,3.457494676E-1,6.052142978E-1,-4.360047355E-2
2.042615937E1,4.153880477E-1,7.115047574E-1,2.025780380E-1
2.044282603E1,7.238747478E-1,9.888373613E-1,2.813795805E-1
2.045949270E1,1.047633052E0,1.169653296E0,4.090503156E-1
2.047615936E1,1.230281711E0,1.255174398E0,6.454550028E-1
2.049282603E1,1.252272844E0,1.033430457E0,1.096273184E0
2.050949270E1,1.120326042E0,8.477275968E-1,1.599014878E0
2.052615936E1,8.710931540E-1,6.027708054E-1,2.095037222E0
2.054282603E1,4.935787320E-1,3.779725730E-1,2.464610338E0
2.055949269E1,1.747073233E-1,1.574503928E-1,2.668639183E0
2.057615936E1,-9.773836285E-2,7.315105945E-2,2.728503942E0
2.059282603E1,-3.182605505E-1,6.765327603E-2,2.697960615E0
2.060949269E1,-2.706131041E-1,3.223838806E-1,2.869613647E0
2.062615936E1,-2.089157552E-1,4.977020919E-1,3.288056135E0
2.064282602E1,-2.981020212E-1,1.928805560E-1,3.537288904E0
2.065949269E1,-5.705476999E-1,-4.809032977E-1,3.450546026E0
2.067615936E1,-9.077450633E-1,-1.085659385E0,3.171991825E0
2.069282602E1,-8.197805285E-1,-1.190728188E0,2.745608091E0
2.070949269E1,-2.907716334E-1,-9.750928879E-1,2.139630318E0
2.072615935E1,2.693913579E-1,-6.049088240E-1,1.394986033E0
2.074282602E1,6.652317643E-1,-4.841103405E-2,4.035525322E-1
2.075949269E1,6.212494969E-1,2.741255760E-1,-1.798233241E-1
2.077615935E1,3.628536761E-1,2.325867712E-1,-4.779253304E-1
2.079282602E1,1.111773923E-1,2.319758981E-1,-8.090140224E-1
2.080949268E1,-1.350011230E-1,3.565923274E-1,-1.290986300E0
2.082615935E1,-2.791652083E-1,5.141954422E-1,-1.757076144E0
2.084282602E1,-3.200931549E-1,6.638572812E-1,-2.130925417E0
2.085949268E1,-2.614501119E-1,8.495602012E-1,-2.347171545E0
2.087615935E1,1.099556591E-2,1.444542527E0,-2.335565090E0
2.089282601E1,4.080576599E-1,1.943619013E0,-2.056399822E0
2.090949268E1,7.648026943E-1,1.921627879E0,-1.768682599E0
2.092615935E1,8.093958497E-1,1.606421709E0,-1.643455386E0
2.094282601E1,5.503891706E-1,1.150716543E0,-1.691102743E0
2.095949268E1,7.269290835E-2,7.432697415E-1,-1.815719247E0
2.097615934E1,-3.567450345E-1,4.305069447E-1,-2.020358801E0
2.099282601E1,-5.424479246E-1,2.985601723E-1,-2.276922226E0
2.100949268E1,-5.540543795E-1,3.810268939E-1,-2.478507519E0
2.102615934E1,-3.854556680E-1,6.198750138E-1,-2.303189278E0
2.104282601E1,-3.329212964E-1,3.920224607E-1,-2.130314589E0
2.105949267E1,-7.342594862E-1,-3.807214797E-1,-1.984317899E0
2.107615934E1,-7.935133576E-1,-8.663589954E-1,-1.861533999E0
2.109282601E1,-9.743293524E-1,-8.785762787E-1,-1.630016327E0
2.110949267E1,-1.197905779E0,-7.765618563E-1,-1.319697022E0
2.112615934E1,-6.414080262E-1,-1.247691289E-1,-9.281326532E-1
2.114282600E1,-1.209512278E-1,-1.985310577E-3,-5.842158198E-1
2.115949267E1,-4.153880477E-2,2.924515009E-1,-3.154352903E-1
2.117615934E1,-1.343902480E-2,3.633118272E-1,3.336848691E-2
2.119282600E1,3.714057803E-1,6.363683939E-1,3.241401315E-1
2.120949267E1,5.198459029E-1,7.970257998E-1,5.923097730E-1
2.122615933E1,4.667007029E-1,8.403972387E-1,9.203441739E-1
2.124282600E1,3.610210717E-1,6.626355648E-1,1.264871836E0
2.125949267E1,2.559523284E-1,5.258018374E-1,1.638721108E0
2.127615933E1,2.840521336E-1,3.455967605E-1,2.054719925E0
2.129282600E1,2.999345958E-1,5.849030241E-2,2.450560331E0
2.130949266E1,1.838703007E-1,-2.188423127E-1,2.851898670E0
2.132615933E1,-7.330377586E-3,-4.583013058E-1,2.950858593E0
2.134282600E1,-2.229656428E-1,-5.627591610E-1,2.757825375E0
2.135949266E1,-5.809323788E-1,-6.293434501E-1,2.509203434E0
2.137615933E1,-6.829468012E-1,-5.670352578E-1,2.606330872E0
2.139282599E1,-6.530144215E-1,-6.977602839E-1,2.805472851E0
2.140949266E1,-6.743947268E-1,-9.329432249E-1,3.129842043E0
2.142615933E1,-7.721330523E-1,-1.264031887E0,3.336925268E0
2.144282599E1,-5.907062292E-1,-1.078939915E0,3.080362082E0
2.145949266E1,-2.321286127E-2,-2.212857604E-1,2.359541655E0
2.147615932E1,2.351829410E-1,4.158461988E-1,1.561752200E0
2.149282599E1,1.948658675E-1,2.374736816E-1,6.808851361E-1
2.150949266E1,1.930332631E-1,3.028362095E-1,-1.413388401E-1
2.152615932E1,1.215620935E-1,7.090612650E-1,-6.306415200E-1
2.154282599E1,-2.076940238E-2,9.143118858E-1,-8.890373111E-1
2.155949265E1,-2.724456787E-1,1.100014806E0,-1.163315654E0
2.157615932E1,-4.001164436E-1,7.047852278E-1,-1.431485295E0
2.159282599E1,-3.408625424E-1,3.681987524E-1,-1.686215878E0
2.160949265E1,-1.270598769E-1,4.286743701E-1,-1.706374407E0
2.162615932E1,-6.108647794E-4,6.937896609E-1,-1.549993038E0
2.164282598E1,-3.787361458E-2,6.491965652E-1,-1.506010771E0
2.165949265E1,-2.767217457E-1,3.620901108E-1,-1.626351118E0
2.167615932E1,-5.112938285E-1,3.517054021E-1,-1.808388829E0
2.169282598E1,-6.200277805E-1,6.113229394E-1,-1.912846684E0
2.170949265E1,-5.595521331E-1,5.600103140E-1,-1.815719247E0
2.172615931E1,-1.380554438E-1,4.610501826E-1,-1.311755776E0
2.174282598E1,1.521053314E-1,2.686277926E-1,-8.187878728E-1
2.175949265E1,2.119700760E-1,1.427896470E-1,-7.662535310E-1
2.177615931E1,1.221729591E-1,2.472475171E-1,-1.007545114E0
2.179282598E1,-3.298669681E-2,3.229947388E-1,-1.438204765E0
2.180949264E1,-9.285144508E-2,2.674060464E-1,-1.804112792E0
2.182615931E1,-6.719512399E-3,6.032289565E-2,-1.824882150E0
2.184282598E1,7.635809481E-2,-2.860374451E-1,-1.619631648E0
2.185949264E1,1.356119812E-1,-4.741837978E-1,-1.474856615E0
2.187615931E1,2.657261789E-1,-4.112647176E-1,-1.468747973E0
2.189282597E1,2.199113220E-1,-3.758345544E-1,-1.431485295E0
2.190949264E1,-1.466075480E-1,-3.532325625E-1,-1.359403253E0
2.192615931E1,-3.995055556E-1,-5.248855352E-1,-1.164537311E0
2.194282597E1,-4.001164436E-1,-7.008146048E-1,-1.002658129E0
2.195949264E1,-2.791652083E-1,-8.602503538E-1,-9.562324286E-1
2.197615930E1,-1.624900252E-1,-9.207259417E-1,-9.470694661E-1
2.199282597E1,-1.624900252E-1,-8.358157277E-1,-9.666171670E-1
2.200949264E1,-2.382372618E-1,-9.317215085E-1,-8.511636853E-1
2.202615930E1,-2.962694168E-1,-8.736893535E-1,-7.735838890E-1
2.204282597E1,-2.076940238E-1,-7.612902522E-1,-6.624065042E-1
2.205949263E1,-2.504545636E-2,-6.678279042E-1,-5.500074029E-1
2.207615930E1,1.453858167E-1,-5.047270060E-1,-3.441459537E-1
2.209282597E1,4.636463821E-1,-2.438877672E-1,-1.877645552E-1
2.210949263E1,6.163625717E-1,-9.728021920E-2,5.291616172E-2
2.212615930E1,7.031053901E-1,-8.704823442E-3,3.937787116E-1
2.214282596E1,7.947350740E-1,7.788525894E-3,7.627410293E-1
2.215949263E1,7.965676785E-1,7.987056673E-2,1.081612468E0
2.217615930E1,8.723149300E-1,2.489273995E-2,1.338175654E0
2.219282596E1,9.242383838E-1,-1.053741761E-2,1.528765440E0
2.220949263E1,1.006705165E0,-1.027780026E-1,1.732794285E0
2.222615929E1,1.054963470E0,-3.245218992E-1,1.966144681E0
2.224282596E1,8.845322132E-1,-5.114465356E-1,2.117028236E0
2.225949263E1,6.548470259E-1,-7.228057384E-1,2.245309830E0
2.227615929E1,5.064069033E-1,-9.799798131E-1,2.291735649E0
2.229282596E1,3.897317350E-1,-1.284801364E0,2.243477345E0
2.230949262E1,3.457494676E-1,-1.498604059E0,2.090150118E0
2.232615929E1,3.329212964E-1,-1.523649454E0,1.956981659E0
2.234282596E1,4.502073526E-1,-1.581681609E0,1.918497205E0
2.235949262E1,6.078104377E-1,-1.729510903E0,1.774333119E0
2.237615929E1,6.640099883E-1,-1.736230373E0,1.525100231E0
2.239282595E1,6.133082509E-1,-1.479667187E0,1.296025991E0
2.240949262E1,4.874700904E-1,-1.114370108E0,1.182405114E0
2.242615929E1,3.738492429E-1,-6.843212843E-1,1.117042661E0
2.244282595E1,1.771507859E-1,-4.418079555E-1,1.207450628E0
2.245949262E1,-6.108647678E-3,-5.713112950E-1,1.217224479E0
2.247615928E1,6.536252797E-2,-5.303833485E-1,7.993929386E-1
2.249282595E1,2.687804997E-1,-1.052214578E-1,1.176678315E-1
2.250949262E1,3.769035637E-1,4.445568323E-1,-6.129264235E-1
2.252615928E1,4.074468017E-1,8.177952170E-1,-1.124220252E0
2.254282595E1,5.210676789E-1,6.809614897E-1,-1.531667113E0
2.255949261E1,6.902772188E-1,5.722275972E-1,-1.840764642E0
2.257615928E1,7.941241860E-1,1.037095666E0,-2.097938776E0
2.259282595E1,4.752528071E-1,2.025474787E0,-2.137645006E0
2.260949261E1,-8.918625861E-2,2.173304081E0,-1.932394385E0
2.262615928E1,-5.833758712E-1,1.530674458E0,-1.673998594E0
2.264282594E1,-8.167262077E-1,1.199585676E0,-1.447978616E0
2.265949261E1,-8.106175661E-1,1.275332928E0,-1.264108300E0
2.267615928E1,-6.554579139E-1,1.307708740E0,-1.105894327E0
2.269282594E1,-1.844811589E-1,1.614973783E0,-1.193858862E0
2.270949261E1,3.756818473E-1,1.666897297E0,-1.446756840E0
2.272615927E1,7.690787315E-1,1.816559196E0,-1.680107236E0
2.274282594E1,8.326086998E-1,1.820224285E0,-1.934837818E0
2.275949261E1,4.825831652E-1,1.332143426E0,-2.084499598E0
2.277615927E1,-1.081230640E-1,9.082031846E-1,-2.080223560E0
2.279282594E1,-6.371319890E-1,4.867065251E-1,-1.882303476E0
2.280949260E1,-9.040798545E-1,8.353576064E-2,-1.647731423E0
2.282615927E1,-1.006705165E0,-1.498145908E-1,-1.482187033E0
2.284282594E1,-1.018922448E0,-2.854265571E-1,-1.368566155E0
2.285949260E1,-9.767727852E-1,-3.330740333E-1,-1.176754594E0
2.287615927E1,-9.181297421E-1,-2.854265571E-1,-1.073518515E0
2.289282593E1,-7.977893949E-1,-2.322813272E-1,-9.861648083E-1
2.290949260E1,-6.499601007E-1,-1.290451884E-1,-7.833577394E-1
2.292615927E1,-4.508182108E-1,-8.628465235E-2,-5.182424188E-1
2.294282593E1,-2.394589931E-1,-3.497200832E-2,-3.038288653E-1
2.295949260E1,-1.453858167E-1,-8.323032409E-2,-4.970912263E-2
2.297615926E1,-1.857028902E-1,1.069013379E-3,2.844339013E-1
2.299282593E1,-1.386663020E-1,1.214093715E-1,5.941423774E-1
2.300949260E1,3.848448023E-2,1.116355360E-1,8.262709975E-1
2.302615926E1,1.014035568E-1,9.392046183E-2,1.032743216E0
2.304282593E1,2.278525680E-1,1.409570426E-1,1.214170098E0
2.305949259E1,4.062250853E-1,1.617264450E-1,1.403538227E0
2.307615926E1,4.159989059E-1,2.160934210E-1,1.574580312E0
2.309282593E1,3.298669755E-1,2.393062711E-1,1.690033793E0
2.310949259E1,1.875354946E-1,3.405570984E-2,1.829310894E0
2.312615926E1,2.199113183E-2,-3.245218992E-1,2.055330992E0
2.314282592E1,-1.062904745E-1,-4.876227975E-1,2.269133568E0
2.315949259E1,-1.197294965E-1,-6.995928884E-1,2.371148109E0
2.317615926E1,-1.343902480E-2,-9.311106205E-1,2.374202251E0
2.319282592E1,1.692095399E-1,-1.212719321E0,2.308228970E0
2.320949259E1,3.060432673E-1,-1.394757032E0,2.232481718E0
2.322615925E1,3.573558927E-1,-1.377041936E0,2.176282167E0
2.324282592E1,3.652971387E-1,-1.228601813E0,2.178114653E0
2.325949259E1,4.740310609E-1,-1.065500855E0,2.310061455E0
2.327615925E1,5.100721121E-1,-1.061224818E0,2.445062637E0
2.329282592E1,4.660898149E-1,-1.116202712E0,2.538524866E0
2.330949258E1,3.695732057E-1,-1.050229311E0,2.432845354E0
2.332615925E1,8.429934084E-2,-1.026405573E0,2.066937447E0
2.334282592E1,5.497782957E-3,-6.470585465E-1,1.405370831E0
2.335949258E1,1.521053314E-1,3.517054021E-1,6.686678529E-1
2.337615925E1,5.442805290E-1,7.377719283E-1,-6.070468575E-2
2.339282591E1,9.187406301E-1,4.970912039E-1,-6.941714883E-1
2.340949258E1,8.949168921E-1,5.905535221E-1,-9.470694661E-1
2.342615925E1,6.243038177E-1,5.086976290E-1,-7.674752474E-1
2.344282591E1,3.097084463E-1,6.339249015E-1,-4.730384052E-1
2.345949258E1,9.162971750E-3,6.015490890E-1,-2.103665620E-1
2.347615924E1,-1.044578776E-1,4.054614902E-1,-2.283107117E-2
2.349282591E1,-2.015853859E-2,3.400989771E-1,5.230529606E-2
2.350949258E1,4.764745384E-2,4.524980783E-1,7.002037764E-2
2.352615924E1,-7.635809481E-2,4.683805704E-1,-4.543306679E-2
2.354282591E1,-1.667660922E-1,4.812087417E-1,-2.323576957E-1
2.355949257E1,-1.966984570E-1,4.641045034E-1,-3.465894163E-1
2.357615924E1,-1.551596522E-1,4.805978537E-1,-3.404807448E-1
2.359282591E1,-3.054323839E-3,6.168206930E-1,-3.557523787E-1
2.360949257E1,1.368337125E-1,7.102830410E-1,-3.496437371E-1
2.362615924E1,7.452550530E-2,6.821832657E-1,-3.111592531E-1
2.364282590E1,7.819069177E-2,6.998983026E-1,-3.814086914E-1
2.365949257E1,2.443459071E-2,9.204205275E-1,-4.791470468E-1
2.367615924E1,-1.960875988E-1,1.014493704E0,-4.791470468E-1
2.369282590E1,-2.828303874E-1,6.858484149E-1,-3.209330738E-1
2.370949257E1,-3.158170879E-1,2.893971801E-1,-2.677878439E-1
2.372615923E1,-2.480110973E-1,2.081521749E-1,-3.606393039E-1
2.374282590E1,-1.606574357E-1,3.229947388E-1,-4.357756674E-1
2.375949257E1,-1.007926911E-1,4.628827870E-1,-2.995528281E-1
2.377615923E1,-2.199113183E-2,5.044215918E-1,-1.046869531E-1
2.379282590E1,-6.108647678E-3,4.940368831E-1,1.164461002E-1
2.380949256E1,-1.307250559E-1,5.984947681E-1,2.410625070E-1
2.382615923E1,-2.987128794E-1,6.088794470E-1,3.620137274E-1
2.384282590E1,-4.172206521E-1,6.003273726E-1,3.998873532E-1
2.385949256E1,-3.243691921E-1,4.555523992E-1,2.893208265E-1
2.387615923E1,-2.382372618E-1,4.262309074E-1,1.811977625E-1
2.389282589E1,-2.254091054E-1,4.341721535E-1,1.848629564E-1
2.390949256E1,-2.577849329E-1,3.706422150E-1,1.463784724E-1
2.392615923E1,-2.156352699E-1,3.016144931E-1,1.140026376E-1
2.394282589E1,-2.596175373E-1,2.075413018E-1,1.201112866E-1
2.395949256E1,-3.005454838E-1,2.215912044E-1,2.054032870E-2
2.397615922E1,-1.722638607E-1,8.781181276E-2,-2.341902852E-1
2.399282589E1,-7.330377586E-3,1.049160287E-1,-4.217257798E-1
2.400949256E1,8.491020650E-2,7.987056673E-2,-4.815905094E-1
2.402615922E1,1.026252806E-1,1.928805560E-1,-5.322923064E-1
2.404282589E1,-9.773836471E-3,1.220202371E-1,-6.251437664E-1
2.405949255E1,-2.339612097E-1,1.317940801E-1,-7.534253597E-1
2.407615922E1,-4.276053309E-1,1.140789986E-1,-8.658244610E-1
2.409282589E1,-4.807505906E-1,2.313650399E-1,-8.749874234E-1
2.410949255E1,-4.288270772E-1,3.382663727E-1,-8.224530816E-1
2.412615922E1,-3.720166385E-1,1.238528341E-1,-8.865938783E-1
2.414282588E1,-2.919933498E-1,-1.359174121E-2,-8.774309158E-1
2.415949255E1,-1.728747338E-1,1.537852138E-1,-8.713222742E-1
2.417615922E1,-9.773836285E-2,3.816377819E-1,-9.427934289E-1
2.419282588E1,-1.295033395E-1,6.113229394E-1,-1.005101681E0
2.420949255E1,-1.679878086E-1,6.559160352E-1,-1.050305605E0
2.422615921E1,-2.895499170E-1,7.017309070E-1,-9.421825409E-1
2.424282588E1,-3.567450345E-1,8.275690675E-1,-8.022945523E-1
2.425949255E1,-1.374445707E-1,9.271399975E-1,-8.120683432E-1
2.427615921E1,7.147117704E-2,1.081077933E0,-9.977712631E-1
2.429282588E1,2.602283955E-1,1.227685452E0,-1.239062905E0
2.430949254E1,4.043924809E-1,1.262504816E0,-1.484630466E0
2.432615921E1,3.280344009E-1,1.183703184E0,-1.782121658E0
2.434282588E1,1.130099818E-1,8.110756874E-1,-2.070449829E0
2.435949254E1,-2.443459183E-1,3.846921027E-1,-2.104658127E0
2.437615921E1,-4.984656572E-1,3.382663727E-1,-2.094273567E0
2.439282587E1,-5.528326035E-1,1.238528341E-1,-2.045404434E0
2.440949254E1,-4.673115611E-1,-2.341139317E-1,-1.865199208E0
2.442615921E1,-5.167915821E-1,-7.099775672E-1,-1.492571712E0
2.444282587E1,-7.996219993E-1,-1.068555236E0,-1.107116103E0
2.445949254E1,-9.767727852E-1,-1.036790252E0,-1.023427606E0
2.447615920E1,-9.260709882E-1,-9.054543376E-1,-1.144989729E0
2.449282587E1,-6.988292933E-1,-9.659299254E-1,-1.128496289E0
2.450949254E1,-5.955931544E-1,-8.553634286E-1,-9.831104875E-1
2.452615920E1,-4.031707644E-1,-7.362447977E-1,-8.175661564E-1
2.454282587E1,-1.069013327E-1,-5.810851455E-1,-6.691260338E-1
2.455949253E1,2.596175373E-1,-3.904953003E-1,-3.264308572E-1
2.457615920E1,4.795288444E-1,-1.925751269E-1,1.931859925E-2
2.459282587E1,6.591231227E-1,-4.108065739E-2,3.375791609E-1
2.460949253E1,9.077450633E-1,1.427896470E-1,6.485093236E-1
2.462615920E1,1.145982385E0,2.063195854E-1,8.726966977E-1
2.464282586E1,1.265711784E0,2.643517256E-1,1.011973858E0
2.465949253E1,1.227838159E0,2.490801066E-1,1.114599109E0
2.467615920E1,1.215010047E0,1.782197952E-1,1.121929526E0
2.469282586E1,1.066569924E0,2.014326602E-1,1.115210056E0
2.470949253E1,7.977893949E-1,1.446222365E-1,1.277700067E0
2.472615919E1,5.632173419E-1,-3.037525117E-1,1.642386317E0
2.474282586E1,2.993237376E-1,-7.197514176E-1,1.923384070E0
2.475949253E1,1.692095399E-1,-8.260418773E-1,1.969809890E0
2.477615919E1,-1.240055487E-1,-7.338013053E-1,1.956370831E0
2.479282586E1,-2.565632164E-1,-6.922625303E-1,2.101145744E0
2.480949252E1,-2.400698513E-1,-9.243911505E-1,2.111530542E0
2.482615919E1,-2.357937992E-1,-9.353867173E-1,1.873904109E0
2.484282586E1,-2.761108875E-1,-7.612902522E-1,1.583132386E0
2.485949252E1,-1.631008983E-1,-3.550651670E-1,1.595349789E0
2.487615919E1,-5.558869615E-2,-1.119409725E-1,1.893451691E0
2.489282585E1,6.719512492E-2,-3.802633286E-2,1.866573691E0
2.490949252E1,2.168570012E-1,-1.595884264E-1,1.527543783E0
2.492615919E1,2.693913579E-1,-2.750418782E-1,1.462181211E0
2.494282585E1,2.327394783E-1,-3.978256881E-1,1.553200006E0
2.495949252E1,1.844811589E-1,-4.760163724E-1,1.545258760E0
2.497615918E1,1.698204130E-1,-5.114465356E-1,1.370551467E0
2.499282585E1,2.107483447E-1,-3.935496211E-1,1.033964992E0
2.500949252E1,3.017672002E-1,-2.964221239E-1,7.309760451E-1
2.502615918E1,3.940077722E-1,-2.805396616E-1,4.011090994E-1
2.504282585E1,3.885099888E-1,-3.098611534E-1,-6.498073786E-2
2.505949251E1,2.748891413E-1,-2.133445293E-1,-3.679696620E-1
2.507615918E1,1.716530025E-1,3.588830680E-2,-3.985128999E-1
2.509282585E1,1.918115467E-1,2.973384261E-1,-3.911825418E-1
2.510949251E1,1.899789423E-1,2.539670467E-1,-4.351648092E-1
2.512615918E1,9.712749720E-2,2.441931963E-1,-3.539197743E-1
2.514282584E1,-1.576031148E-1,1.965457499E-1,-1.138499230E-1
2.515949251E1,-4.269944727E-1,1.684459597E-1,6.818778068E-2
2.517615918E1,-4.459312856E-1,2.796233594E-1,9.995274991E-2
2.519282584E1,-2.443459183E-1,3.260490894E-1,1.188895553E-1
2.520949251E1,2.443459118E-3,1.336266696E-1,1.647044122E-1
2.522615917E1,1.979201883E-1,4.260781780E-2,2.709949017E-1
2.524282584E1,1.618791670E-1,1.757763475E-1,3.504073024E-1
2.525949251E1,7.574722916E-2,4.011854529E-1,3.577376902E-1
2.527615917E1,-6.414080411E-2,4.011854529E-1,2.013563067E-1
2.529282584E1,-1.869246215E-1,3.303251266E-1,4.314232618E-2
2.530949250E1,-1.178968996E-1,2.582430840E-1,-1.855501719E-2
2.532615917E1,-9.162971377E-2,1.134681329E-1,-4.970912263E-2
2.534282584E1,-1.191186309E-1,-3.313941509E-2,-1.437823027E-1
2.535949250E1,-1.820377111E-1,-1.876882017E-1,-1.816559136E-1
2.537615917E1,-2.486219704E-1,-3.202458620E-1,-1.230128929E-1
2.539282583E1,-2.150243968E-1,-3.605629504E-1,-1.366809942E-2
2.540949250E1,-1.117882580E-1,-3.446804583E-1,7.673988491E-2
2.542615917E1,-6.169734150E-2,-5.615374446E-1,1.931859925E-2
2.544282583E1,-1.099556591E-2,-7.392991185E-1,-1.132390574E-1
2.545949250E1,2.687804960E-2,-7.283035517E-1,-2.164752036E-1
2.547615916E1,5.436696485E-2,-7.258600593E-1,-3.490328491E-1
2.549282583E1,1.740964651E-1,-5.401571989E-1,-4.241692424E-1
2.550949250E1,2.516762912E-1,-2.872591615E-1,-3.765217662E-1
2.552615916E1,2.028071135E-1,-1.815795600E-1,-3.117701113E-1
2.554282583E1,2.394589931E-1,-3.985892609E-2,-1.932623386E-1
2.555949249E1,3.133736253E-1,1.000291109E-1,1.809686981E-2
2.557615916E1,1.685986817E-1,1.006399691E-1,2.318995446E-1
2.559282583E1,-8.552107215E-2,-4.474584386E-2,2.557232678E-1
2.560949249E1,-1.404989064E-1,-3.159697950E-1,1.848629564E-1
2.562615916E1,-8.246674389E-2,-4.631882310E-1,7.307469845E-2
2.564282582E1,-3.115410358E-2,-3.141372204E-1,-3.016144782E-2
2.565949249E1,-7.941242307E-2,-1.620318890E-1,-8.208495378E-2
2.567615916E1,-1.588248461E-1,-1.437059343E-1,-1.706603467E-1
2.569282582E1,-1.081230640E-1,-2.231183648E-1,-2.042579055E-1
2.570949249E1,2.993237413E-2,-1.687513888E-1,-1.828776449E-1
2.572615915E1,1.747073233E-1,-6.246092543E-2,-1.773798615E-1
2.574282582E1,2.987128794E-1,-3.817904973E-3,-7.292198390E-2
2.575949249E1,2.260199636E-1,-4.428769462E-3,7.712167688E-3
2.577615915E1,1.606574357E-1,1.511890348E-2,6.452259421E-2
2.579282582E1,1.704312712E-1,-2.397644334E-2,9.140064567E-2
2.580949248E1,3.054323979E-2,5.345067009E-3,6.879864633E-2
2.582615915E1,-1.130099818E-1,4.260781780E-2,9.544761851E-3
2.584282582E1,-1.258381456E-1,-2.947422490E-2,-5.093085021E-2
2.585949248E1,4.153880477E-2,-1.082757786E-1,-7.964149863E-2
2.587615915E1,2.046397030E-1,8.536835015E-2,-5.215258151E-2
2.589282581E1,2.816086709E-1,1.189659163E-1,-4.543306679E-2
2.590949248E1,2.492328286E-1,1.543960720E-1,-3.810269013E-2
2.592615915E1,1.728747338E-1,2.197586000E-1,-3.321577236E-2
2.594282581E1,3.420842811E-2,2.112064958E-1,-4.848739132E-2
2.595949248E1,-8.735366166E-2,1.317940801E-1,-6.498073786E-2
2.597615914E1,-5.619955808E-2,6.948586553E-2,8.933897130E-3
2.599282581E1,-6.230820715E-2,9.941824526E-2,6.391172856E-2
2.600949248E1,-4.276053514E-3,1.605047137E-1,1.103374511E-1
2.602615914E1,1.490510106E-1,1.586721241E-1,1.506545246E-1
2.604282581E1,1.698204130E-1,1.635590494E-1,1.170569658E-1
2.605949247E1,1.087339297E-1,2.264781147E-1,5.535962060E-2
2.607615914E1,8.368847519E-2,1.629481763E-1,5.879573524E-3
2.609282581E1,1.191186309E-1,9.880737960E-2,-3.749182448E-2
2.610949247E1,1.893680841E-1,2.948949635E-1,-5.765036494E-2
2.612615914E1,1.661552191E-1,3.223838806E-1,-3.749182448E-2
2.614282580E1,-6.597339362E-2,2.313650399E-1,-4.115701467E-2
2.615949247E1,-1.154534444E-1,1.165224537E-1,1.443168055E-2
2.617615914E1,-1.404988952E-2,1.482874304E-1,1.188895553E-1
2.619282580E1,-4.825831577E-2,2.203694731E-1,1.121700481E-1
2.620949247E1,-9.773836471E-3,1.879936308E-1,7.551816106E-2
2.622615913E1,-4.886918236E-3,9.575305134E-2,3.703367710E-2
2.624282580E1,-7.635809481E-2,8.536835015E-2,-3.894262947E-3
2.625949247E1,-1.221729591E-1,1.922696829E-1,2.298378758E-2
2.627615913E1,-8.002328873E-2,8.964440972E-2,-2.061668551E-3
2.629282580E1,-1.020144150E-1,-4.780016840E-2,-8.147408813E-2
2.630949246E1,-1.588248461E-1,2.000582218E-2,-1.156825200E-1
2.632615913E1,-8.613193035E-2,1.385135949E-1,-5.826122686E-2
2.634282580E1,5.742128938E-2,1.030834317E-1,1.259908639E-2
2.635949246E1,1.551596522E-1,1.336266696E-1,5.169443041E-2
2.637615913E1,6.658425927E-2,2.063195854E-1,5.597048625E-2
2.639282579E1,-1.185077652E-1,2.374736816E-1,-2.290742996E-4
2.640949246E1,-1.472184062E-1,1.757763475E-1,-3.993528336E-2
2.642615913E1,-1.026252806E-1,1.531743407E-1,-2.222020552E-2
2.644282579E1,-8.246674389E-2,1.342375278E-1,8.933897130E-3
2.645949246E1,-1.624900252E-1,9.147699922E-2,7.246383280E-2
2.647615912E1,-2.211330533E-1,8.353576064E-2,1.146135032E-1
2.649282579E1,-1.759290546E-1,1.134681329E-1,1.060613990E-1
2.650949246E1,-2.119700760E-1,1.311832070E-1,2.603811212E-2
2.652615912E1,-2.376264036E-1,6.520981342E-2,-2.649625950E-2
2.654282579E1,-1.795942485E-1,2.290742937E-3,-1.794415340E-2
2.655949245E1,-6.047561392E-2,7.009673119E-2,5.268708803E-3
2.657615912E1,3.237583488E-2,1.293506175E-1,5.879573524E-3
2.659282579E1,4.337139800E-2,4.260781780E-2,2.420551702E-2
2.660949245E1,-4.764745384E-2,-5.207622424E-2,3.581194952E-2
2.662615912E1,-9.101885557E-2,-1.847865991E-2,5.230529606E-2
2.664282578E1,-1.075121984E-1,6.520981342E-2,3.459021822E-2
2.665949245E1,-1.459966749E-1,-3.313941509E-2,-3.138317913E-2
2.667615912E1,-8.674279600E-2,-1.559232324E-1,-4.604393244E-2
2.669282578E1,-6.841685623E-2,-2.194531709E-1,-9.002619982E-2
2.670949245E1,-5.864302069E-2,-6.734783947E-2,-8.025235683E-2
2.672615911E1,4.459312931E-2,-9.972367436E-2,-4.604393244E-2
2.674282578E1,3.604102135E-2,-1.876882017E-1,-2.405280061E-2
2.675949245E1,-4.703658819E-2,-1.626427472E-1,-3.016144782E-2
2.677615911E1,-4.581485689E-2,-1.485928595E-1,-1.733328775E-2
2.679282578E1,2.199113183E-2,-1.534797698E-1,-8.170315996E-3
2.680949244E1,1.771507785E-2,-1.290451884E-1,1.504254527E-2
2.682615911E1,-2.871064469E-2,-1.962403059E-1,1.504254527E-2
2.684282578E1,-6.658425927E-2,-1.925751269E-1,1.809686981E-2
2.685949244E1,-6.414080411E-2,-5.696314201E-2,-8.781181648E-3
2.687615911E1,-7.330377586E-3,-7.101303339E-2,-3.894262947E-3
2.689282577E1,-2.687804960E-2,-1.504254490E-1,-5.887209252E-2
2.690949244E1,-4.153880477E-2,-1.113301069E-1,-7.108938694E-2
2.692615911E1,-1.649334840E-2,-2.275471389E-2,3.817904799E-4
2.694282577E1,5.070177838E-2,-4.902189970E-2,9.995274991E-2
2.695949244E1,9.285144508E-2,-1.786779426E-2,1.500436664E-1
2.697615910E1,-8.552107029E-3,-6.734783947E-2,1.421024203E-1
2.699282577E1,-1.887572110E-1,-4.963276163E-2,6.696604937E-2
2.700949244E1,-1.942549944E-1,-3.985892609E-2,-2.160934173E-2
2.702615910E1,-6.963858753E-2,-2.641990222E-2,-1.120173261E-1
2.704282577E1,-1.221729559E-3,-4.963276163E-2,-1.578321904E-1
2.705949243E1,-1.832594350E-2,-1.406516135E-1,-1.840993762E-1
2.707615910E1,-2.199113183E-2,-1.082757786E-1,-1.657734364E-1
2.709282577E1,2.076940238E-2,1.450803876E-2,-7.903063297E-2
2.710949243E1,8.552107029E-3,-3.207040019E-3,-2.527453005E-2
2.712615910E1,-7.452550530E-2,-6.185005978E-2,1.504254527E-2
2.714282576E1,-1.142317131E-1,-2.133445293E-1,4.436405376E-2
2.715949243E1,-1.612683088E-1,-1.858556122E-1,7.307469845E-2
2.717615910E1,-1.380554438E-1,-6.551524997E-2,1.146135032E-1
2.719282576E1,2.015853859E-2,-1.131627038E-1,9.873101860E-2
2.720949243E1,4.337139800E-2,-1.547015011E-1,5.474875495E-2
2.722615909E1,3.054323839E-3,-1.039997265E-1,1.603520010E-3
2.724282576E1,7.757982612E-2,-1.589775532E-1,-2.222020552E-2
2.725949243E1,1.508836001E-1,-1.149952933E-1,1.443168055E-2
2.727615909E1,1.820377111E-1,-4.169152305E-2,3.336848691E-2
2.729282576E1,4.948004708E-2,-3.191768378E-2,7.551816106E-2
2.730949242E1,-1.075121984E-1,-1.363755614E-1,4.314232618E-2
2.732615909E1,-7.330377400E-2,-1.730274558E-1,-3.749182448E-2
2.734282576E1,-1.209512278E-1,-1.308777779E-1,-1.395062506E-1
2.735949242E1,-2.009745091E-1,-1.711948514E-1,-2.305250913E-1
2.737615909E1,-1.020144150E-1,-1.748600453E-1,-2.421315312E-1
2.739282575E1,1.459966749E-1,-1.858556122E-1,-2.042579055E-1
2.740949242E1,2.101374865E-1,2.306014486E-2,-1.034652218E-1
2.742615909E1,9.773836285E-2,1.450803876E-2,-1.733328775E-2
2.744282575E1,6.719512399E-3,-1.595884264E-1,5.535962060E-2
2.745949242E1,-7.086031139E-2,-2.194531709E-1,1.158352345E-1
2.747615908E1,-9.224057943E-2,-8.872810751E-2,1.885281354E-1
2.749282575E1,1.343902480E-2,-1.516471803E-1,2.037997693E-1
2.750949242E1,2.382372692E-2,-2.133445293E-1,1.604283601E-1
2.752615908E1,-8.552107029E-3,-1.540906429E-1,2.970330045E-2
2.754282575E1,-5.558869615E-2,-7.162389904E-2,-1.059086844E-1
2.755949241E1,1.343902480E-2,-5.879573524E-2,-1.932623386E-1
2.757615908E1,7.147117704E-2,-1.614210159E-1,-2.231947184E-1
2.759282575E1,2.443459071E-2,-1.663079411E-1,-1.914297491E-1
2.760949241E1,3.909534588E-2,-1.375972927E-1,-9.308052063E-2
2.762615908E1,7.452550530E-2,-6.185005978E-2,3.031416424E-2
2.764282574E1,8.491020650E-2,4.871646687E-2,1.274416596E-1
2.765949241E1,1.221729559E-3,2.977965772E-2,1.188895553E-1
2.767615908E1,-7.513637096E-2,-1.461493969E-1,6.330086291E-2
2.769282574E1,3.298669681E-2,-2.725984156E-1,6.490438245E-3
2.770949241E1,1.496618688E-1,-1.656970680E-1,3.436114406E-3
2.772615907E1,2.046397030E-1,-3.741546720E-2,9.995274991E-2
2.774282574E1,2.553414702E-1,-4.963276163E-2,2.007454336E-1
2.775949241E1,2.028071135E-1,-9.911280870E-2,2.984837890E-1
2.777615907E1,-1.588248461E-2,2.550360374E-2,2.874882221E-1
2.779282574E1,-2.223547846E-1,7.620538026E-2,8.529199660E-2
2.780949240E1,-1.795942485E-1,-1.730274558E-1,-1.456148922E-1
2.782615907E1,-4.886918142E-2,-3.532325625E-1,-2.714530230E-1
2.784282574E1,2.651153207E-1,-1.101083755E-1,-3.270417452E-1
2.785949240E1,5.668824911E-1,1.110246703E-1,-2.457967103E-1
2.787615907E1,5.180133581E-1,2.918406427E-1,-8.025235683E-2
2.789282573E1,6.963858753E-2,1.922696829E-1,1.198822167E-2
2.790949240E1,-2.852738500E-1,-1.363755614E-1,-3.443750367E-2
2.792615907E1,-3.414734006E-1,-2.664897740E-1,-4.970912263E-2
2.794282573E1,-1.258381456E-1,-7.834340632E-2,-1.916588284E-2
2.795949240E1,1.337793916E-1,4.123337101E-3,-1.550069358E-2
2.797615906E1,3.164279461E-1,-8.811724186E-2,-4.909825698E-2
2.799282573E1,3.970620930E-1,-1.803578287E-1,-4.237874225E-2
2.800949240E1,3.170388341E-1,-8.567378670E-2,-3.688096255E-2
2.802615906E1,1.753181964E-1,-1.455385387E-1,-8.330668509E-2
2.804282573E1,6.169734150E-2,-2.237292230E-1,-7.597630471E-2
2.805949239E1,-9.162971750E-3,-2.420551628E-1,-3.199404106E-2
2.807615906E1,-4.337139800E-2,-1.113301069E-1,4.008800164E-2
2.809282573E1,-7.024945319E-2,-1.449276656E-1,-1.305723470E-2
2.810949239E1,-7.269290835E-2,-2.945895493E-1,-1.498909444E-1
2.812615906E1,-1.185077652E-1,-4.259254634E-1,-3.166570365E-1
2.814282572E1,-1.716530025E-1,-1.748600453E-1,-4.412734509E-1
2.815949239E1,-2.993237413E-2,9.269873053E-2,-5.029708147E-1
2.817615906E1,1.979201883E-1,1.971566081E-1,-4.266127050E-1
2.819282572E1,3.371973634E-1,1.788306683E-1,-2.604574561E-1
2.820949239E1,3.316995800E-1,1.953240186E-1,1.015562657E-2
2.822615905E1,1.783725172E-1,1.837175786E-1,1.689804643E-1
2.824282572E1,1.130099818E-1,2.350302190E-1,2.703840137E-1
2.825949239E1,-4.398226365E-2,1.201876476E-1,2.832121849E-1
2.827615905E1,-1.991419196E-1,-7.834340632E-2,1.445458829E-1
2.829282572E1,-1.643226296E-1,-3.191768378E-2,3.214675933E-2
2.830949238E1,1.429423541E-1,-1.603520103E-2,-6.192641705E-2
2.832615905E1,2.474002391E-1,1.366809905E-1,-1.077412739E-1
2.834282572E1,1.105665267E-1,2.240346521E-1,-1.761581302E-1
2.835949238E1,-5.436696485E-2,1.238528341E-1,-2.250273079E-1
2.837615905E1,-1.001818255E-1,1.232419685E-1,-2.005927265E-1
2.839282571E1,-4.398226365E-2,2.350302190E-1,-9.674570709E-2
2.840949238E1,2.199113183E-2,1.220202371E-1,2.664897591E-2
2.842615905E1,1.404988952E-2,-3.558287397E-2,1.036179364E-1
2.844282571E1,-6.352993846E-2,-2.397644334E-2,1.439350098E-1
2.845949238E1,-5.558869615E-2,9.147699922E-2,1.879172772E-1
2.847615904E1,8.002328873E-2,1.342375278E-1,2.386190593E-1
2.849282571E1,2.223547846E-1,4.566214234E-2,2.092975378E-1
2.850949238E1,1.392771751E-1,-3.207040019E-3,6.268999726E-2
2.852615904E1,-2.443459071E-2,8.903354406E-2,-7.658717036E-2
2.854282571E1,1.221729559E-3,1.134681329E-1,-1.456148922E-1
2.855949237E1,1.612683088E-1,1.562286615E-1,-7.414371520E-2
2.857615904E1,1.863137633E-1,1.067486182E-1,3.520108387E-2
2.859282571E1,3.726275265E-2,5.955931731E-3,7.796161622E-2
2.860949237E1,-6.352993846E-2,-6.062832847E-2,4.558578506E-2
2.862615904E1,-1.221729591E-1,1.024725661E-1,-4.665479809E-2
2.864282570E1,-1.728747338E-1,1.812741160E-1,-1.450040340E-1
2.865949237E1,-1.136208475E-1,7.788525894E-3,-1.682168841E-1
2.867615904E1,-8.124501258E-2,-1.601992846E-1,-1.364519149E-1
2.869282570E1,-3.665188793E-3,-1.479819864E-1,-8.452841640E-2
2.870949237E1,1.209512278E-1,-1.114828233E-2,8.933897130E-3
2.872615903E1,1.178968996E-1,-3.619373962E-2,6.268999726E-2
2.874282570E1,4.825831577E-2,-2.322813272E-1,7.712167688E-3
2.875949237E1,1.771507785E-2,-2.481638193E-1,-5.765036494E-2
2.877615903E1,9.651663154E-2,-9.789107740E-2,-1.517235339E-1
2.879282570E1,1.264490038E-1,1.684459597E-1,-2.665661275E-1
2.880949236E1,1.221729559E-3,2.674060464E-1,-2.891681194E-1
2.882615903E1,-3.970621154E-2,9.453132749E-2,-2.146426141E-1
2.884282570E1,5.925388262E-2,-7.528908551E-2,-3.016144782E-2
2.885949236E1,8.002328873E-2,5.115992576E-2,8.529199660E-2
2.887615903E1,3.054323839E-3,9.330959618E-2,1.262199283E-1
2.889282569E1,-7.819069177E-2,-8.384118974E-2,1.219438836E-1
2.890949236E1,-1.240055487E-1,-5.818486959E-2,1.280525327E-1
2.892615903E1,-1.624900252E-1,3.512472380E-3,7.551816106E-2
2.894282569E1,-1.172860414E-1,-3.252854943E-2,-1.488982886E-2
2.895949236E1,-7.941242307E-3,-6.368265301E-2,-1.413388401E-1
2.897615902E1,5.803215504E-2,-9.789107740E-2,-2.067013681E-1
2.899282569E1,5.803215504E-2,-9.728021920E-2,-1.773798615E-1
2.900949236E1,5.925388262E-2,-3.680460155E-2,-1.718820781E-1
2.902615902E1,1.307250559E-1,4.993819445E-2,-6.559160352E-2
2.904282569E1,1.459966749E-1,7.315105945E-2,9.934188426E-2
2.905949235E1,9.834922850E-2,5.971203372E-2,1.164461002E-1
2.907615902E1,-7.330377586E-3,-2.703076601E-2,7.124210149E-2
2.909282569E1,-8.552107215E-2,-1.229365394E-1,1.443168055E-2
2.910949235E1,-2.809977904E-2,-1.039997265E-1,-8.513928205E-2
2.912615902E1,6.108647957E-2,-8.261945844E-2,-2.097556889E-1
2.914282568E1,4.886918236E-3,-4.474584386E-2,-2.274707705E-1
2.915949235E1,-6.047561392E-2,-5.268708616E-2,-1.584430486E-1
2.917615902E1,4.214967042E-2,-8.750637621E-2,5.268708803E-3
2.919282568E1,1.337793916E-1,1.145371422E-2,2.209039778E-1
2.920949235E1,5.314523727E-2,7.742711157E-2,2.654971182E-1
2.922615901E1,-4.642572254E-2,-4.780016840E-2,9.078978002E-2
2.924282568E1,-6.597339362E-2,-1.009454057E-1,-1.077412739E-1
2.925949235E1,-3.787361458E-2,3.466657549E-2,-1.566104591E-1
2.927615901E1,4.276053514E-3,2.319758981E-1,-7.108938694E-2
2.929282568E1,1.954767294E-2,1.678351015E-1,5.902481079E-2
2.930949234E1,-9.162971750E-3,3.466657549E-2,1.738673896E-1
2.932615901E1,-9.285144508E-2,1.079703495E-1,2.056323588E-1
2.934282568E1,-1.960875988E-1,2.075413018E-1,1.372154951E-1
2.935949234E1,-2.797760665E-1,2.411388755E-1,9.873101860E-2
2.937615901E1,-2.809978127E-1,2.050978541E-1,8.895718306E-2
2.939282567E1,-1.551596522E-1,1.299614757E-1,1.249982044E-1
2.940949234E1,6.108647794E-4,1.550069451E-1,1.604283601E-1
2.942615901E1,8.307760954E-2,1.617264450E-1,1.463784724E-1
2.944282567E1,8.429934084E-2,1.421787739E-1,1.140026376E-1
2.945949234E1,2.443459071E-2,2.246455252E-1,6.818778068E-2
2.947615900E1,-3.970621154E-2,2.863428593E-1,7.735075057E-2
2.949282567E1,-4.520399496E-2,2.386954129E-1,1.323285848E-1
2.950949234E1,-4.276053607E-2,2.472475171E-1,1.359937787E-1
2.952615900E1,-1.026252806E-1,2.875646055E-1,1.146135032E-1
2.954282567E1,-1.942549944E-1,3.272708058E-1,1.402698308E-1
2.955949233E1,-2.028071135E-1,3.608683646E-1,2.312886715E-1
2.957615900E1,-1.264490038E-1,3.455967605E-1,2.838230431E-1
2.959282567E1,-1.087339297E-1,2.185368687E-1,2.746600807E-1
2.960949233E1,-1.459966749E-1,1.818849891E-1,1.561523080E-1
2.962615900E1,-1.343902498E-1,1.684459597E-1,9.262236953E-2
2.964282566E1,-8.368847519E-2,9.025526792E-2,1.848629564E-1
2.965949233E1,-7.696896046E-2,1.939495653E-2,2.777144015E-1
2.967615900E1,-8.063415438E-2,-6.979130208E-2,3.003163934E-1
2.969282566E1,-1.215620935E-1,-1.204930767E-1,1.848629564E-1
2.970949233E1,-7.635809481E-2,-1.779143661E-1,-4.360047355E-2
2.972615899E1,3.787361458E-2,-1.253799945E-1,-1.559995860E-1
2.974282566E1,5.925388262E-2,-1.437059343E-1,-2.042579055E-1
2.975949233E1,3.726275265E-2,-2.713766694E-1,-2.030361742E-1
2.977615899E1,-1.404988952E-2,-3.275762498E-1,-1.602756530E-1
2.979282566E1,-1.069013327E-1,-2.976438701E-1,-2.283107117E-2
2.980949232E1,-2.864955962E-1,-3.233001828E-1,1.054505333E-1
2.982615899E1,-3.860665262E-1,-4.576904476E-1,9.017891437E-2
2.984282566E1,-3.567450345E-1,-4.961749315E-1,-5.276344717E-2
2.985949232E1,-2.993237376E-1,-3.416261375E-1,-1.431714296E-1
2.987615899E1,-1.319467872E-1,-2.506072819E-1,-1.370627880E-1
2.989282565E1,1.368337125E-1,-3.513999581E-1,-7.780890167E-2
2.990949232E1,3.274235129E-1,-4.998401105E-1,-2.955058403E-2
2.992615899E1,3.414734006E-1,-1.828012913E-1,7.712167688E-3
2.994282565E1,2.620609999E-1,-1.687513888E-1,-4.482220486E-2
2.995949232E1,3.420842811E-2,-3.000873327E-1,-9.063705802E-2
2.997615898E1,-1.850920320E-1,-3.483456373E-1,-1.755472720E-1
2.999282565E1,-2.309068888E-1,-3.721693754E-1,-2.060905099E-1
3.000949232E1,-1.380554438E-1,-4.680751264E-1,-1.694386154E-1
3.002615898E1,-7.574722916E-2,-4.552469850E-1,-1.010217592E-1
3.004282565E1,-8.491020650E-2,-4.277580678E-1,-1.144607887E-1
3.005949231E1,-9.468404204E-2,-4.204276800E-1,-1.737146676E-1
3.007615898E1,-2.993237413E-2,-3.843866587E-1,-2.207512558E-1
3.009282565E1,1.056796089E-1,-4.216494262E-1,-2.256381810E-1
3.010949231E1,2.651153207E-1,-4.564687014E-1,-1.944840699E-1
3.012615898E1,3.946186602E-1,-4.931205809E-1,-1.523344070E-1
3.014282564E1,3.677406013E-1,-3.446804583E-1,-7.841976732E-2
3.015949231E1,2.009745091E-1,-2.524398565E-1,-8.170315996E-3
3.017615898E1,4.825831577E-2,-3.184132576E-1,-6.337722298E-3
3.019282564E1,-4.764745384E-2,-3.251327872E-1,-4.421133921E-2
3.020949231E1,-3.115410358E-2,-3.501782417E-1,-1.004109010E-1
3.022615897E1,5.619955808E-2,-4.198168218E-1,-1.010217592E-1
3.024282564E1,8.552107215E-2,-2.725984156E-1,-5.154171586E-2
3.025949231E1,7.391463965E-2,-2.463312149E-1,-8.781181648E-3
3.027615897E1,6.902772188E-2,-2.915352285E-1,2.420551702E-2
3.029282564E1,8.796452731E-2,-3.061959743E-1,3.397935256E-2
3.030949230E1,7.574722916E-2,-2.414443046E-1,-2.222020552E-2
3.032615897E1,7.452550530E-2,-2.365573794E-1,-1.187368408E-1
3.034282564E1,6.352993846E-2,-1.455385387E-1,-1.810450554E-1
3.035949230E1,8.491020650E-2,-1.266017258E-1,-2.457967103E-1
3.037615897E1,1.032361463E-1,-2.886336111E-2,-2.378554791E-1
3.039282563E1,1.295033395E-1,-4.718930274E-2,-1.914297491E-1
3.040949230E1,1.759290546E-1,-6.795870513E-2,-9.674570709E-2
3.042615897E1,2.034179717E-1,-9.178243577E-2,3.817904799E-4
3.044282563E1,1.624900252E-1,-7.589995116E-2,7.124210149E-2
3.045949230E1,6.108647794E-4,-5.390881747E-2,7.796161622E-2
3.047615896E1,-1.466075480E-1,-1.168278903E-1,7.918334752E-2
3.049282563E1,-1.881463528E-1,-1.119409725E-1,9.628756344E-2
3.050949230E1,-8.307760954E-2,-1.064431891E-1,1.121700481E-1
3.052615896E1,-1.771507785E-2,-5.329795182E-2,6.330086291E-2
3.054282563E1,-4.886918236E-3,1.023198478E-2,7.673988491E-2
3.055949229E1,3.726275265E-2,3.344484791E-2,1.085048541E-1
3.057615896E1,1.588248461E-1,-2.458730713E-2,1.280525327E-1
3.059282563E1,1.227838174E-1,-1.359174121E-2,8.407026529E-2
3.060949229E1,-1.771507785E-2,9.269873053E-2,-5.398517475E-2
3.062615896E1,-1.123991162E-1,1.024725661E-1,-1.431714296E-1
3.064282562E1,-1.301141977E-1,9.636391699E-2,-1.627191007E-1
3.065949229E1,-3.726275265E-2,9.086613357E-2,-1.902080178E-1
3.067615896E1,4.886918142E-2,8.720094711E-2,-2.121991515E-1
3.069282562E1,7.024945319E-2,7.498364896E-2,-2.018144578E-1
3.070949229E1,7.086031139E-2,5.726857483E-2,-1.303432733E-1
3.072615895E1,6.597339362E-2,4.566214234E-2,-3.749182448E-2
3.074282562E1,2.138026804E-2,2.183841541E-2,4.008800164E-2
3.075949229E1,-4.092793912E-2,-1.298087649E-2,5.474875495E-2
3.077615895E1,-5.803215504E-2,-6.307178736E-2,7.185296714E-2
3.079282562E1,-4.581485689E-2,-6.368265301E-2,8.895718306E-2
3.080949228E1,-3.054323979E-2,-2.092211880E-2,9.445496649E-2
3.082615895E1,-3.665188793E-3,-3.252854943E-2,4.741837829E-2
3.084282562E1,2.504545636E-2,-5.024362728E-2,-2.832885459E-2
3.085949228E1,7.086031139E-2,-7.483093534E-3,-3.565923125E-2
3.087615895E1,1.264490038E-1,8.399390616E-3,-1.366809942E-2
3.089282561E1,1.246164143E-1,-1.298087649E-2,3.825540841E-2
3.090949228E1,5.986474827E-2,1.267544460E-2,1.274416596E-1
3.092615895E1,4.886918236E-3,6.337722391E-2,2.007454336E-1
3.094282561E1,-6.414080411E-2,-4.352411628E-2,2.697731555E-1
3.095949228E1,-1.356119812E-1,-2.280052751E-1,9.201150388E-2
3.097615894E1,4.276053514E-3,1.672242284E-1,-5.703949928E-2
3.099282561E1,2.480110973E-1,7.009673119E-2,-2.818377316E-1
3.100949228E1,2.070831656E-1,-1.876882017E-1,-2.610683441E-1
3.102615894E1,3.439168632E-1,-1.107192412E-1,-1.855501719E-2
3.104282561E1,4.337140024E-1,-2.031125315E-2,2.141844630E-1
3.105949227E1,-1.117882580E-1,1.238528341E-1,2.709949017E-1
3.107615894E1,-4.465421438E-1,-1.076649204E-1,-7.475458086E-2
3.109282561E1,-3.152062297E-1,-3.275762498E-1,-3.062723279E-1
3.110949227E1,-1.197294965E-1,-9.789107740E-2,-3.893499374E-1
3.112615894E1,-1.032361463E-1,1.226311028E-1,-3.490328491E-1
3.114282560E1,-3.359756246E-2,7.254019380E-2,-1.932623386E-1
3.115949227E1,-1.386663020E-1,-4.718930274E-2,1.504254527E-2
3.117615894E1,-3.622428179E-1,1.079703495E-1,-6.803506613E-2
3.119282560E1,-4.208858311E-1,3.052796721E-1,-4.351648092E-1
3.120949227E1,-1.863137633E-1,2.099847645E-1,-6.300306916E-1
3.122615893E1,6.414080411E-2,4.016435891E-2,-4.712058306E-1
3.124282560E1,3.964512348E-1,-3.098611534E-1,-2.036470473E-1
3.125949227E1,7.342594862E-1,-3.599520624E-1,1.598175019E-1
3.127615893E1,4.001164436E-1,-8.078686893E-2,6.063596606E-1
3.129282560E1,-1.209512278E-1,-4.352411628E-2,5.892554522E-1
3.130949226E1,-3.659079969E-1,-1.253799945E-1,3.094793558E-1
3.132615893E1,-3.200931549E-1,8.414662629E-2,7.673988491E-2
3.134282560E1,-4.581485689E-2,1.488982886E-1,-5.726857111E-3
3.135949226E1,2.333503515E-1,-7.223475724E-2,-4.909825698E-2
3.137615893E1,3.115410507E-1,3.833176568E-2,3.642281145E-2
3.139282559E1,8.491020650E-2,4.696022868E-1,1.127809063E-1
3.140949226E1,-3.152062297E-1,4.482220411E-1,6.513345987E-2
3.142615893E1,-5.925388336E-1,8.903354406E-2,-4.237874225E-2
3.144282559E1,-5.980366468E-1,8.353576064E-2,-9.980003536E-2
3.145949226E1,-3.903425932E-1,2.014326602E-1,-8.025235683E-2
3.147615892E1,-9.590577334E-2,-1.053741761E-2,8.933897130E-3
3.149282559E1,6.536252797E-2,-1.937968582E-1,1.280525327E-1
3.150949226E1,6.169734150E-2,-4.596757516E-2,1.848629564E-1
3.152615892E1,-3.054323839E-3,-1.064431891E-1,4.925097153E-2
3.154282559E1,-1.350011230E-1,-1.412624866E-1,-2.384663373E-1
3.155949225E1,-2.284634262E-1,1.831067204E-1,-3.496437371E-1
3.157615892E1,3.897317350E-1,6.566796452E-3,-3.557523787E-1
3.159282559E1,7.079922557E-1,2.826776803E-1,-1.138499230E-1
3.160949225E1,9.101885557E-2,3.651444316E-1,-3.260490671E-2
3.162615892E1,-3.023780584E-1,6.459894776E-2,-2.024253160E-1
3.164282558E1,-4.532616735E-1,2.832885385E-1,-3.545306325E-1
3.165949225E1,-1.087339297E-1,5.062541962E-1,-4.113410711E-1
3.167615892E1,2.932150960E-1,-1.786779426E-2,-1.779907197E-1
3.169282558E1,5.864301920E-1,-4.075995386E-1,2.318995446E-1
3.170949225E1,8.289434910E-1,-5.242747068E-1,5.171734095E-1
3.172615891E1,3.255909383E-1,-3.880518377E-1,7.957277298E-1
3.174282558E1,-2.076940238E-1,-3.202458620E-1,7.975603342E-1
3.175949225E1,-3.891208768E-1,-5.022835732E-1,7.340303659E-1
3.177615891E1,-4.269944727E-1,-9.628756046E-1,7.285326123E-1
3.179282558E1,-4.581485987E-1,-1.296407819E0,6.998219490E-1
3.180949224E1,-4.954113364E-1,-1.025794625E0,6.020836234E-1
3.182615891E1,-6.878337264E-1,-5.584831238E-1,3.791179657E-1
3.184282558E1,-8.680388331E-1,4.152353406E-1,-1.733328775E-2
3.185949224E1,-3.591884971E-1,1.087186575E0,-3.233765364E-1
3.187615891E1,3.543015718E-1,8.287907839E-1,-2.751182318E-1
3.189282557E1,7.501419783E-1,3.291034102E-1,-4.211149216E-1
3.190949224E1,9.016364217E-1,1.989891976E-1,-4.541015923E-1
3.192615891E1,7.208204269E-1,5.502364635E-1,-2.879463732E-1
3.194282557E1,4.459312931E-2,3.663661480E-1,-8.391755074E-2
3.195949224E1,-3.170388341E-1,2.977965772E-2,1.195004210E-1
3.197615890E1,-4.129445851E-1,-7.162389904E-2,1.787542999E-1
3.199282557E1,-3.781253099E-1,-4.291325063E-2,-4.176788032E-2
3.200949224E1,-8.796452731E-2,-4.167625010E-1,-2.354120165E-1
3.202615890E1,6.108647678E-3,-6.568323374E-1,-5.103011727E-1
3.204282557E1,-1.832594350E-2,-8.290961981E-1,-7.344885468E-1
3.205949223E1,9.896009415E-2,-9.567669630E-1,-5.695550442E-1
3.207615890E1,1.026252806E-1,-5.395463109E-1,-1.480583549E-1
3.209282557E1,-5.497783050E-2,-9.666935354E-2,8.040507883E-2
3.210949223E1,-1.252272725E-1,-3.191768378E-2,1.320995111E-2
3.212615890E1,-7.269290835E-2,-1.449276656E-1,-2.290742996E-4
3.214282556E1,-2.076940238E-1,5.482511222E-2,6.268999726E-2
3.215949223E1,-2.675587833E-1,-2.255618125E-1,1.744782478E-1
3.217615890E1,-2.852738500E-1,-2.267835438E-1,3.461312652E-1
3.219282556E1,-9.468404204E-2,-5.798633695E-1,3.699549735E-1
3.220949223E1,1.209512278E-1,-5.688678026E-1,2.373973280E-1
3.222615889E1,2.449567765E-1,-5.749764442E-1,-2.160934173E-2
3.224282556E1,2.254091054E-1,-3.709476292E-1,-1.627191007E-1
3.225949223E1,2.193004489E-1,-7.154753804E-1,-2.225838602E-1
3.227615889E1,2.119700760E-1,-9.518800378E-1,-2.099847607E-2
3.229282556E1,-8.979712427E-2,5.054906011E-2,3.791179657E-1
3.230949222E1,-7.757982612E-2,4.286743701E-1,4.951822758E-1
3.232615889E1,5.070177838E-2,2.179260105E-1,2.661079764E-1
3.234282556E1,1.221729559E-3,-2.634354234E-1,-7.008909583E-1
3.235949222E1,1.288924664E-1,-6.368265301E-2,-1.272660375E0
3.237615889E1,4.019490182E-1,-3.837758005E-1,-1.413770199E0
3.239282555E1,6.310232878E-1,-1.828012913E-1,-1.193858862E0
3.240949222E1,4.831940532E-1,-1.333212405E-1,-3.325395286E-1
3.242615889E1,-9.040798992E-2,-8.785762787E-1,5.984184146E-1
3.244282555E1,-2.070831656E-1,-1.320231557E0,8.085559011E-1
3.245949222E1,-2.638935745E-1,-1.145524144E0,5.715403557E-1
3.247615888E1,-3.255909383E-1,-8.883501291E-1,2.209039778E-1
3.249282555E1,-1.899789423E-1,-9.805907011E-1,-9.392046370E-3
3.250949222E1,-5.558869615E-2,-1.133917689E0,-1.957058012E-1
3.252615888E1,9.040798992E-2,-1.288466573E0,-4.290561378E-1
3.254282555E1,3.371973634E-1,-1.020907760E0,-5.182424188E-1
3.255949221E1,6.401863098E-1,-5.022835732E-1,-4.479929507E-1
3.257615888E1,7.183769941E-1,-4.430296719E-1,-2.005927265E-1
3.259282555E1,5.076286197E-1,-6.323977709E-1,5.230529606E-2
3.260949221E1,2.162461281E-1,-8.150463104E-1,1.628718227E-1
3.262615888E1,1.832594350E-2,-8.309288025E-1,1.720348001E-1
3.264282554E1,1.771507785E-2,-8.413135409E-1,9.262236953E-2
3.265949221E1,1.105665267E-1,-7.600684762E-1,-5.887209252E-2
3.267615888E1,1.014035568E-1,-6.763800383E-1,-2.879463732E-1
3.269282554E1,9.468404204E-2,-7.637336850E-1,-5.103011727E-1
3.270949221E1,1.172860414E-1,-8.052725196E-1,-6.886736751E-1
3.272615887E1,1.905898154E-1,-7.741183639E-1,-8.334486485E-1
3.274282554E1,3.152062297E-1,-6.177369952E-1,-8.193987608E-1
3.275949221E1,4.557051361E-1,-4.222602844E-1,-7.015018463E-1
3.277615887E1,4.954113364E-1,-1.974620372E-1,-4.095084667E-1
3.279282554E1,3.023780584E-1,-1.748600453E-1,-1.095738709E-1
3.280949220E1,4.886918142E-2,-2.426660359E-1,7.796161622E-2
3.282615887E1,-1.368337125E-1,-3.281871080E-1,1.182786897E-1
3.284282554E1,-1.588248461E-1,-3.404043913E-1,5.474875495E-2
3.285949220E1,-3.054323839E-3,-3.465130329E-1,-2.061668551E-3
3.287615887E1,2.247982323E-1,-3.171915412E-1,-6.131555140E-2
3.289282553E1,4.312705398E-1,-1.937968582E-1,-1.059086844E-1
3.290949220E1,5.503891706E-1,3.466657549E-2,-1.376736462E-1
3.292615887E1,4.392117858E-1,3.217730224E-1,-9.002619982E-2
3.294282553E1,9.712749720E-2,3.443750143E-1,2.664897591E-2
3.295949220E1,-2.193004489E-1,3.113883138E-1,1.311068535E-1
3.297615886E1,-3.769035637E-1,3.773617148E-1,2.099084109E-1
3.299282553E1,-3.921751976E-1,4.995346665E-1,2.209039778E-1
3.300949220E1,-3.249800503E-1,7.102830410E-1,1.140026376E-1
3.302615886E1,-1.154534444E-1,8.135191798E-1,-3.283398226E-3
3.304282553E1,9.834922850E-2,8.746056557E-1,1.137735695E-2
3.305949219E1,1.966984570E-1,9.961677194E-1,1.311068535E-1
3.307615886E1,1.582139730E-1,1.074358463E0,2.422842383E-1
3.309282553E1,-8.246674389E-2,1.275943756E0,3.052033186E-1
3.310949219E1,-3.445277214E-1,1.344360709E0,3.278053105E-1
3.312615886E1,-4.037816226E-1,1.238681078E0,3.149771392E-1
3.314282552E1,-2.877173126E-1,1.238070250E0,3.864483237E-1
3.315949219E1,-1.099556610E-1,1.262504816E0,4.469239414E-1
3.317615886E1,1.111773923E-1,1.094516993E0,4.738020003E-1
3.319282552E1,1.056796089E-1,1.079245329E0,5.208385587E-1
3.320949219E1,-7.024945319E-2,1.240513682E0,4.316523373E-1
3.322615885E1,-1.594357044E-1,1.243567944E0,2.942077518E-1
3.324282552E1,-1.508836001E-1,1.224020243E0,1.427132785E-1
3.325949219E1,-1.258381456E-1,1.175761938E0,8.323032409E-3
3.327615885E1,-7.635809481E-2,1.077412724E0,-6.009382382E-2
3.329282552E1,-1.893680729E-2,9.216422439E-1,-3.932442144E-2
3.330949218E1,-4.153880477E-2,8.440623879E-1,3.397935256E-2
3.332615885E1,-1.117882580E-1,7.945823669E-1,4.802924395E-2
3.334282552E1,-1.637117565E-1,7.487674952E-1,2.909243479E-2
3.335949218E1,-1.631008983E-1,7.371610999E-1,5.268708803E-3
3.337615885E1,-1.337793916E-1,6.339249015E-1,2.603811212E-2
3.339282551E1,-1.466075480E-1,5.734493136E-1,6.330086291E-2
3.340949218E1,-1.325576603E-1,5.227475166E-1,3.886627033E-2
3.342615885E1,-6.414080411E-2,4.415025115E-1,2.420551702E-2
3.344282551E1,-2.993237413E-2,3.370446563E-1,8.284853399E-2
3.345949218E1,-1.282816008E-2,2.686277926E-1,1.347720474E-1
